EXPID. 0509
[电化学]: i-t : @ 0(V) X 600(sec)
起始电位 (V),0
静置时间 (秒),0
运行时间 (秒),600
记录间隔,0.1
电解液 信息:
HNO3,0.4
0.1,-0.01005814
0.2,-0.01005814
0.3,-0.01005814
0.4,-0.01005814
0.5,-0.01005814
0.6,-0.01005814
0.7,-0.01005814
0.8000001,-0.009072331
0.9000001,0.003718509
1,0.001439425
1.1,-0.00161794
1.2,-0.003442818
1.3,-0.004098908
1.4,-0.004201312
1.5,-0.004179236
1.6,-0.004135062
1.7,-0.004087893
1.8,-0.004025492
1.9,-0.003939612
2,-0.003863925
2.1,-0.003777137
2.2,-0.003691265
2.3,-0.003622239
2.4,-0.003550701
2.5,-0.003479779
2.6,-0.00342044
2.7,-0.003361243
2.799999,-0.003300087
2.899999,-0.003246562
2.999999,-0.003190798
3.099999,-0.003131466
3.199999,-0.003072605
3.299999,-0.002999808
3.399999,-0.002925633
3.499999,-0.002838559
3.599999,-0.002747543
3.699999,-0.002660021
3.799999,-0.002577029
3.899998,-0.002490264
3.999998,-0.002416061
4.099998,-0.00234427
4.199998,-0.002282894
4.299998,-0.002220189
4.399998,-0.002166419
4.499998,-0.002117075
4.599998,-0.002070131
4.699998,-0.0020277
4.799998,-0.001988174
4.899998,-0.00195098
4.999998,-0.001916628
5.099998,-0.001882894
5.199997,-0.001852401
5.299997,-0.001824048
5.399997,-0.001796849
5.499997,-0.001771774
5.599997,-0.001748414
5.699997,-0.001724867
5.799997,-0.001702936
5.899997,-0.001682363
5.999997,-0.00166247
6.099997,-0.001643727
6.199996,-0.001625742
6.299996,-0.001608158
6.399996,-0.001591907
6.499996,-0.001575769
6.599996,-0.001560426
6.699996,-0.001545753
6.799996,-0.001531369
6.899996,-0.001517977
6.999996,-0.001505522
7.099996,-0.001491454
7.199996,-0.001480047
7.299995,-0.001468432
7.399995,-0.001455978
7.499995,-0.001445293
7.599995,-0.001434302
7.699995,-0.001423574
7.799995,-0.001413383
7.899995,-0.001403162
7.999995,-0.001393323
8.099995,-0.001384689
8.199995,-0.001375102
8.299995,-0.001366294
8.399996,-0.001357573
8.499996,-0.001349008
8.599997,-0.001340222
8.699997,-0.001331808
8.799997,-0.001323947
8.899998,-0.00131592
8.999998,-0.001307945
9.099998,-0.001300751
9.199999,-0.001293255
9.299999,-0.001285744
9.4,-0.00127871
9.5,-0.001271846
9.6,-0.001264978
9.700001,-0.001258384
9.800001,-0.001251862
9.900002,-0.001245412
10,-0.001238846
10.1,-0.001232711
10.2,-0.001226706
10.3,-0.001220649
10.4,-0.001214903
10.5,-0.001209244
10.6,-0.001203138
10.7,-0.001197753
10.8,-0.001192303
10.90001,-0.00118645
11.00001,-0.001181014
11.10001,-0.001176122
11.20001,-0.001170469
11.30001,-0.001165597
11.40001,-0.001160283
11.50001,-0.001155388
11.60001,-0.001150824
11.70001,-0.001145491
11.80001,-0.001141356
11.90001,-0.001136655
12.00001,-0.001131748
12.10001,-0.001127806
12.20001,-0.001123052
12.30001,-0.001118332
12.40001,-0.001114207
12.50001,-0.001109971
12.60001,-0.001105682
12.70001,-0.00110139
12.80001,-0.001097393
12.90001,-0.001093276
13.00001,-0.001088953
13.10001,-0.001085192
13.20001,-0.00108107
13.30001,-0.001076803
13.40001,-0.001073133
13.50002,-0.001069222
13.60002,-0.001065292
13.70002,-0.00106146
13.80002,-0.001057887
13.90002,-0.001053884
14.00002,-0.001050286
14.10002,-0.0010467
14.20002,-0.001042834
14.30002,-0.001039601
14.40002,-0.00103605
14.50002,-0.001032459
14.60002,-0.001029022
14.70002,-0.001025459
14.80002,-0.001022114
14.90002,-0.001018625
15.00002,-0.001015285
15.10002,-0.001012009
15.20002,-0.001008689
15.30002,-0.001005469
15.40002,-0.001002412
15.50002,-0.000998979
15.60002,-0.0009958911
15.70002,-0.0009928766
15.80002,-0.0009898884
15.90002,-0.0009865764
16.00002,-0.000983511
16.10003,-0.0009812311
16.20003,-0.0009779285
16.30003,-0.0009750119
16.40003,-0.0009724119
16.50003,-0.0009692626
16.60003,-0.0009663019
16.70003,-0.0009635087
16.80003,-0.0009607645
16.90003,-0.0009579873
17.00003,-0.0009551084
17.10003,-0.0009524292
17.20003,-0.0009498479
17.30003,-0.0009468024
17.40003,-0.000943949
17.50003,-0.0009414675
17.60003,-0.0009387977
17.70003,-0.0009359301
17.80003,-0.0009334128
17.90003,-0.0009308429
18.00003,-0.0009280949
18.10003,-0.0009257264
18.20003,-0.0009232497
18.30003,-0.000920465
18.40003,-0.000917944
18.50003,-0.0009153796
18.60003,-0.0009129923
18.70004,-0.0009105768
18.80004,-0.0009080549
18.90004,-0.0009058549
19.00004,-0.0009032247
19.10004,-0.0009007339
19.20004,-0.0008983728
19.30004,-0.0008958632
19.40004,-0.0008934957
19.50004,-0.0008912139
19.60004,-0.000888836
19.70004,-0.000886379
19.80004,-0.0008842365
19.90004,-0.000881757
20.00004,-0.0008795298
20.10004,-0.0008773195
20.20004,-0.0008749464
20.30004,-0.0008727465
20.40004,-0.0008705391
20.50004,-0.0008682394
20.60004,-0.0008660386
20.70004,-0.000863768
20.80004,-0.0008616595
20.90004,-0.0008594285
21.00004,-0.0008572409
21.10004,-0.0008551163
21.20004,-0.0008529918
21.30005,-0.0008508645
21.40005,-0.0008488925
21.50005,-0.000846605
21.60005,-0.0008447328
21.70005,-0.0008427976
21.80005,-0.0008405637
21.90005,-0.000838541
22.00005,-0.0008367488
22.10005,-0.0008346449
22.20005,-0.0008325638
22.30005,-0.000830766
22.40005,-0.0008287658
22.50005,-0.0008267298
22.60005,-0.0008250817
22.70005,-0.0008231342
22.80005,-0.0008209409
22.90005,-0.0008190236
23.00005,-0.0008172079
23.10005,-0.000815137
23.20005,-0.0008132828
23.30005,-0.0008114737
23.40005,-0.0008095092
23.50005,-0.0008077153
23.60005,-0.0008059881
23.70005,-0.000803921
23.80005,-0.0008020808
23.90005,-0.0008002652
24.00006,-0.0007984411
24.10006,-0.0007967535
24.20006,-0.0007949604
24.30006,-0.000793076
24.40006,-0.0007912321
24.50006,-0.0007894174
24.60006,-0.0007877618
24.70006,-0.0007861797
24.80006,-0.0007845731
24.90006,-0.0007834035
25.00006,-0.0007824193
25.10006,-0.0007817122
25.20006,-0.0007804116
25.30006,-0.0007784349
25.40006,-0.0007768613
25.50006,-0.000774684
25.60006,-0.0007726122
25.70006,-0.0007709209
25.80006,-0.000769045
25.90006,-0.0007670833
26.00006,-0.0007654541
26.10006,-0.0007636969
26.20006,-0.0007618896
26.30006,-0.0007602831
26.40006,-0.0007585418
26.50006,-0.0007568693
26.60007,-0.0007551619
26.70007,-0.0007535186
26.80007,-0.0007518997
26.90007,-0.0007502621
27.00007,-0.0007485641
27.10007,-0.0007469981
27.20007,-0.0007453199
27.30007,-0.0007439196
27.40007,-0.0007423949
27.50007,-0.0007405802
27.60007,-0.0007389868
27.70007,-0.0007375534
27.80007,-0.0007359855
27.90007,-0.0007347546
28.00007,-0.0007332347
28.10007,-0.0007317816
28.20007,-0.0007305573
28.30007,-0.0007291541
28.40007,-0.0007278696
28.50007,-0.0007266501
28.60007,-0.0007256302
28.70007,-0.0007245764
28.80007,-0.0007231986
28.90007,-0.0007219781
29.00007,-0.0007207256
29.10007,-0.0007188619
29.20008,-0.0007171932
29.30008,-0.0007153079
29.40008,-0.0007135638
29.50008,-0.000712009
29.60008,-0.0007104099
29.70008,-0.0007089097
29.80008,-0.0007075348
29.90008,-0.0007059894
30.00008,-0.0007044807
30.10008,-0.0007032509
30.20008,-0.0007016424
30.30008,-0.0007002694
30.40008,-0.0006988982
30.50008,-0.000697431
30.60008,-0.0006960043
30.70008,-0.0006946453
30.80008,-0.0006932261
30.90008,-0.0006918145
31.00008,-0.0006905167
31.10008,-0.0006891174
31.20008,-0.0006877942
31.30008,-0.0006864814
31.40008,-0.0006851489
31.50008,-0.0006837005
31.60008,-0.0006824424
31.70008,-0.0006812219
31.80009,-0.0006796934
31.90009,-0.0006783346
32.00008,-0.0006771507
32.10008,-0.0006759425
32.20008,-0.0006745544
32.30008,-0.0006732897
32.40008,-0.0006718762
32.50008,-0.0006705342
32.60007,-0.0006693617
32.70007,-0.0006679943
32.80007,-0.0006666411
32.90007,-0.0006655637
33.00007,-0.0006642868
33.10007,-0.0006630456
33.20007,-0.0006617676
33.30006,-0.0006605471
33.40006,-0.0006592833
33.50006,-0.0006580855
33.60006,-0.0006569026
33.70006,-0.0006556454
33.80006,-0.000654489
33.90005,-0.0006533532
34.00005,-0.0006522278
34.10005,-0.0006510517
34.20005,-0.0006497191
34.30005,-0.0006484477
34.40005,-0.0006472151
34.50005,-0.0006460304
34.60004,-0.0006448277
34.70004,-0.0006436976
34.80004,-0.0006425177
34.90004,-0.0006412831
35.00004,-0.0006400946
35.10004,-0.0006389278
35.20004,-0.0006376706
35.30003,-0.0006364388
35.40003,-0.000635352
35.50003,-0.0006341617
35.60003,-0.0006328988
35.70003,-0.0006318497
35.80003,-0.0006307075
35.90002,-0.0006294276
36.00002,-0.0006284086
36.10002,-0.0006272824
36.20002,-0.0006260647
36.30002,-0.0006249789
36.40002,-0.0006239543
36.50002,-0.0006228185
36.60001,-0.0006216706
36.70001,-0.0006204671
36.80001,-0.000619418
36.90001,-0.0006182634
37.00001,-0.000617218
37.10001,-0.0006160823
37.2,-0.0006149975
37.3,-0.0006139305
37.4,-0.000612952
37.5,-0.0006117325
37.6,-0.0006107239
37.7,-0.0006096626
37.8,-0.0006084816
37.89999,-0.0006078045
37.99999,-0.0006068534
38.09999,-0.0006055754
38.19999,-0.0006046073
38.29999,-0.0006035347
38.39999,-0.0006024084
38.49998,-0.0006014733
38.59998,-0.0006004063
38.69998,-0.0005992188
38.79998,-0.0005982224
38.89998,-0.0005972289
38.99998,-0.0005961761
39.09998,-0.0005951542
39.19997,-0.0005941052
39.29997,-0.000593074
39.39997,-0.0005921341
39.49997,-0.0005911406
39.59997,-0.0005900707
39.69997,-0.0005890377
39.79996,-0.0005881167
39.89996,-0.0005870911
39.99996,-0.0005860477
40.09996,-0.0005851869
40.19996,-0.0005842207
40.29996,-0.0005831057
40.39996,-0.0005821828
40.49995,-0.0005811413
40.59995,-0.0005801741
40.69995,-0.0005794019
40.79995,-0.000578478
40.89995,-0.0005774666
40.99995,-0.000576557
41.09995,-0.0005755983
41.19994,-0.0005745727
41.29994,-0.0005736875
41.39994,-0.0005727514
41.49994,-0.0005718709
41.59994,-0.0005709141
41.69994,-0.0005698829
41.79993,-0.0005688734
41.89993,-0.0005679373
41.99993,-0.0005669164
42.09993,-0.000565937
42.19993,-0.0005650038
42.29993,-0.0005640094
42.39993,-0.0005630873
42.49992,-0.0005620976
42.59992,-0.0005612416
42.69992,-0.0005602273
42.79992,-0.000559214
42.89992,-0.0005583711
42.99992,-0.0005574765
43.09991,-0.0005565367
43.19991,-0.0005557287
43.29991,-0.0005548604
43.39991,-0.000554091
43.49991,-0.0005533235
43.59991,-0.0005527029
43.69991,-0.0005522282
43.7999,-0.0005515229
43.8999,-0.0005508185
43.9999,-0.0005501733
44.0999,-0.0005493088
44.1999,-0.0005485
44.2999,-0.0005476241
44.39989,-0.0005466437
44.49989,-0.000545847
44.59989,-0.0005446681
44.69989,-0.0005435568
44.79989,-0.0005426264
44.89989,-0.0005416639
44.99989,-0.0005405818
45.09988,-0.0005397051
45.19988,-0.0005387501
45.29988,-0.0005377181
45.39988,-0.0005368649
45.49988,-0.0005359052
45.59988,-0.0005349719
45.69987,-0.0005341254
45.79987,-0.0005333258
45.89987,-0.0005322871
45.99987,-0.0005314678
46.09987,-0.0005305505
46.19987,-0.0005296775
46.29987,-0.0005289025
46.39986,-0.0005281792
46.49986,-0.0005273297
46.59986,-0.0005265406
46.69986,-0.000526245
46.79986,-0.0005251186
46.89986,-0.0005240638
46.99986,-0.000523432
47.09985,-0.0005224657
47.19985,-0.0005213715
47.29985,-0.0005205974
47.39985,-0.0005197781
47.49985,-0.0005188797
47.59985,-0.000518164
47.69984,-0.0005173531
47.79984,-0.0005164518
47.89984,-0.0005156175
47.99984,-0.0005149
48.09984,-0.0005141287
48.19984,-0.0005133225
48.29984,-0.0005125211
48.39983,-0.0005116773
48.49983,-0.0005107526
48.59983,-0.000510147
48.69983,-0.0005093954
48.79983,-0.0005084867
48.89983,-0.0005078905
48.99982,-0.0005071184
49.09982,-0.0005062661
49.19982,-0.0005055428
49.29982,-0.0005047104
49.39982,-0.0005038214
49.49982,-0.0005030897
49.59982,-0.0005023475
49.69981,-0.0005015264
49.79981,-0.0005008144
49.89981,-0.0005000902
49.99981,-0.0004992295
50.09981,-0.0004984375
50.19981,-0.0004977491
50.2998,-0.0004969345
50.3998,-0.000496119
50.4998,-0.0004954616
50.5998,-0.000494727
50.6998,-0.0004938126
50.7998,-0.0004930744
50.8998,-0.0004923529
50.99979,-0.0004915252
51.09979,-0.0004907991
51.19979,-0.0004900551
51.29979,-0.0004892604
51.39979,-0.0004885889
51.49979,-0.0004877997
51.59978,-0.0004869794
51.69978,-0.0004863391
51.79978,-0.0004855989
51.89978,-0.0004848116
51.99978,-0.0004840667
52.09978,-0.0004832935
52.19978,-0.000482606
52.29977,-0.0004818913
52.39977,-0.0004811294
52.49977,-0.0004803092
52.59977,-0.0004795548
52.69977,-0.000478906
52.79977,-0.0004782863
52.89977,-0.0004775442
52.99976,-0.0004768568
53.09976,-0.0004761891
53.19976,-0.0004755374
53.29976,-0.0004751014
53.39976,-0.0004743763
53.49976,-0.000473686
53.59975,-0.0004734392
53.69975,-0.000473168
53.79975,-0.0004730729
53.89975,-0.0004734176
53.99975,-0.0004733507
54.09975,-0.0004725851
54.19975,-0.0004715115
54.29974,-0.0004703231
54.39974,-0.0004692956
54.49974,-0.0004682927
54.59974,-0.0004673623
54.69974,-0.0004665439
54.79974,-0.0004656313
54.89973,-0.0004648836
54.99973,-0.0004641453
55.09973,-0.000463407
55.19973,-0.0004631602
55.29973,-0.0004625349
55.39973,-0.0004619407
55.49973,-0.0004616016
55.59972,-0.0004613201
55.69972,-0.0004609057
55.79972,-0.0004605724
55.89972,-0.0004602013
55.99972,-0.0004594827
56.09972,-0.0004586173
56.19971,-0.0004578347
56.29971,-0.0004569928
56.39971,-0.0004562451
56.49971,-0.0004555661
56.59971,-0.0004548071
56.69971,-0.0004539199
56.79971,-0.0004530705
56.8997,-0.0004522964
56.9997,-0.0004514941
57.0997,-0.0004507896
57.1997,-0.0004500014
57.2997,-0.0004492085
57.3997,-0.0004485238
57.49969,-0.0004478222
57.59969,-0.0004470999
57.69969,-0.0004463795
57.79969,-0.0004457128
57.89969,-0.0004449989
57.99969,-0.0004442842
58.09969,-0.0004436541
58.19968,-0.0004429601
58.29968,-0.0004423122
58.39968,-0.0004418018
58.49968,-0.0004412028
58.59968,-0.0004405088
58.69968,-0.0004398401
58.79967,-0.0004392798
58.89967,-0.0004386056
58.99967,-0.0004379576
59.09967,-0.0004373106
59.19967,-0.0004366976
59.29967,-0.000436125
59.39967,-0.000435365
59.49966,-0.0004346051
59.59966,-0.0004339844
59.69966,-0.000433344
59.79966,-0.0004326999
59.89966,-0.0004321104
59.99966,-0.0004315265
60.09966,-0.0004309653
60.19965,-0.0004303409
60.29965,-0.0004297391
60.39965,-0.0004290648
60.49965,-0.0004284122
60.59965,-0.0004277652
60.69965,-0.0004272125
60.79964,-0.0004265495
60.89964,-0.0004259948
60.99964,-0.0004253742
61.09964,-0.0004247329
61.19964,-0.000424294
61.29964,-0.0004236094
61.39964,-0.0004229191
61.49963,-0.0004223352
61.59963,-0.0004217965
61.69963,-0.0004211279
61.79963,-0.0004205431
61.89963,-0.0004200101
61.99963,-0.0004193754
62.09962,-0.0004187906
62.19962,-0.00041825
62.29962,-0.0004176247
62.39962,-0.0004170446
62.49962,-0.0004164795
62.59962,-0.0004159192
62.69962,-0.0004152826
62.79961,-0.0004146771
62.89961,-0.0004141186
62.99961,-0.0004134472
63.09961,-0.000412981
63.19961,-0.0004123915
63.29961,-0.0004117313
63.3996,-0.0004112539
63.4996,-0.0004106615
63.5996,-0.0004100306
63.6996,-0.0004095437
63.7996,-0.0004089852
63.8996,-0.0004082752
63.9996,-0.0004077544
64.09959,-0.0004072101
64.19959,-0.0004066074
64.29959,-0.0004060612
64.39959,-0.0004054942
64.49959,-0.0004049377
64.59959,-0.0004044828
64.69958,-0.0004040016
64.79958,-0.0004034394
64.89958,-0.0004028527
64.99958,-0.0004023131
65.09958,-0.0004017622
65.19958,-0.0004011378
65.29958,-0.0004005954
65.39957,-0.0004000124
65.49957,-0.0003994003
65.59957,-0.0003989238
65.69957,-0.000398403
65.79957,-0.0003978013
65.89957,-0.0003972419
65.99957,-0.0003966994
66.09956,-0.0003961202
66.19956,-0.0003956259
66.29956,-0.0003951993
66.39956,-0.0003945664
66.49956,-0.0003941445
66.59956,-0.0003935295
66.69955,-0.000392941
66.79955,-0.000392471
66.89955,-0.0003920426
66.99955,-0.0003915284
67.09955,-0.000391
67.19955,-0.0003905452
67.29955,-0.0003900451
67.39954,-0.0003894481
67.49954,-0.0003888445
67.59954,-0.0003883482
67.69954,-0.0003877954
67.79954,-0.0003872755
67.89954,-0.0003868065
67.99953,-0.0003862519
68.09953,-0.0003857179
68.19953,-0.0003852367
68.29953,-0.0003847432
68.39953,-0.0003842761
68.49953,-0.0003837581
68.59953,-0.0003832006
68.69952,-0.0003827439
68.79952,-0.0003822664
68.89952,-0.0003817975
68.99952,-0.0003813257
69.09952,-0.0003808077
69.19952,-0.0003802154
69.29951,-0.0003797285
69.39951,-0.0003793348
69.49951,-0.0003787453
69.59951,-0.000378201
69.69951,-0.0003777621
69.79951,-0.0003773261
69.89951,-0.0003768007
69.9995,-0.0003763759
70.0995,-0.000375824
70.1995,-0.0003752543
70.2995,-0.0003749953
70.3995,-0.0003744228
70.4995,-0.0003738144
70.59949,-0.0003734641
70.69949,-0.0003730563
70.79949,-0.000372415
70.89949,-0.0003720082
70.99949,-0.0003715769
71.09949,-0.0003709996
71.19949,-0.0003704967
71.29948,-0.0003699759
71.39948,-0.0003694702
71.49948,-0.0003690342
71.59948,-0.0003685614
71.69948,-0.0003681659
71.79948,-0.0003677949
71.89948,-0.0003671884
71.99947,-0.0003666554
72.09947,-0.0003661459
72.19947,-0.0003657174
72.29947,-0.0003653172
72.39947,-0.0003648275
72.49947,-0.0003644771
72.59946,-0.0003639008
72.69946,-0.000363396
72.79946,-0.0003630015
72.89946,-0.0003624326
72.99946,-0.0003618676
73.09946,-0.0003614937
73.19946,-0.000361053
73.29945,-0.0003605557
73.39945,-0.0003601254
73.49945,-0.0003597299
73.59945,-0.0003593268
73.69945,-0.0003589661
73.79945,-0.0003584482
73.89944,-0.000357933
73.99944,-0.0003574876
74.09944,-0.0003570384
74.19944,-0.0003564818
74.29944,-0.0003559865
74.39944,-0.0003555862
74.49944,-0.0003551521
74.59943,-0.000354637
74.69943,-0.0003542123
74.79943,-0.0003537989
74.89943,-0.0003533138
74.99943,-0.0003529193
75.09943,-0.0003524701
75.19942,-0.0003519973
75.29942,-0.0003515839
75.39942,-0.0003511319
75.49942,-0.000350629
75.59942,-0.0003502805
75.69942,-0.0003498794
75.79942,-0.0003493313
75.89941,-0.0003488699
75.99941,-0.0003484611
76.09941,-0.0003479818
76.19941,-0.0003475411
76.29941,-0.0003471154
76.39941,-0.0003466888
76.4994,-0.000346233
76.5994,-0.000345797
76.6994,-0.0003453656
76.7994,-0.0003449117
76.8994,-0.0003445247
76.9994,-0.0003440623
77.0994,-0.0003435462
77.19939,-0.0003433164
77.29939,-0.0003429275
77.39939,-0.0003423634
77.49939,-0.0003419406
77.59939,-0.0003415281
77.69939,-0.0003410855
77.79939,-0.0003407163
77.89938,-0.0003403575
77.99938,-0.0003398932
78.09938,-0.0003397106
78.19938,-0.000339331
78.29938,-0.0003387698
78.39938,-0.0003383385
78.49937,-0.0003379128
78.59937,-0.0003374607
78.69937,-0.0003370106
78.79937,-0.000336567
78.89937,-0.0003361489
78.99937,-0.0003356696
79.09937,-0.0003352854
79.19936,-0.0003348521
79.29936,-0.0003344331
79.39936,-0.000334063
79.49936,-0.000333643
79.59936,-0.0003331504
79.69936,-0.0003327691
79.79935,-0.0003323999
79.89935,-0.0003319761
79.99935,-0.0003316163
80.09935,-0.0003312312
80.19935,-0.0003308912
80.29935,-0.0003307716
80.39935,-0.0003305513
80.49934,-0.0003300625
80.59934,-0.0003299297
80.69934,-0.0003301068
80.79934,-0.0003297263
80.89934,-0.000329327
80.99934,-0.00032902
81.09933,-0.0003286226
81.19933,-0.0003282581
81.29933,-0.0003279737
81.39933,-0.0003276319
81.49933,-0.0003271441
81.59933,-0.0003268408
81.69933,-0.0003262494
81.79932,-0.0003257381
81.89932,-0.0003253378
81.99932,-0.0003247737
82.09932,-0.0003242549
82.19932,-0.0003237849
82.29932,-0.0003233508
82.39931,-0.0003228874
82.49931,-0.0003224251
82.59931,-0.0003220088
82.69931,-0.0003215671
82.79931,-0.000321116
82.89931,-0.0003206923
82.99931,-0.0003203175
83.0993,-0.0003198984
83.1993,-0.000319501
83.2993,-0.000319081
83.3993,-0.0003186384
83.4993,-0.0003183247
83.5993,-0.0003179029
83.6993,-0.0003174405
83.79929,-0.0003170723
83.89929,-0.0003166984
83.99929,-0.0003162539
84.09929,-0.0003158866
84.19929,-0.0003154789
84.29929,-0.0003150852
84.39928,-0.0003147273
84.49928,-0.0003143667
84.59928,-0.0003140013
84.69928,-0.0003136048
84.79928,-0.0003132055
84.89928,-0.0003128166
84.99928,-0.0003123514
85.09927,-0.0003119907
85.19927,-0.0003116093
85.29927,-0.0003112552
85.39927,-0.0003110254
85.49927,-0.0003106459
85.59927,-0.0003103276
85.69926,-0.0003102231
85.79926,-0.000309852
85.89926,-0.0003094292
85.99926,-0.0003092192
86.09926,-0.0003089319
86.19926,-0.0003085119
86.29926,-0.0003082002
86.39925,-0.000307816
86.49925,-0.0003073413
86.59925,-0.0003070023
86.69925,-0.0003066134
86.79925,-0.0003061802
86.89925,-0.0003058251
86.99924,-0.0003055511
87.09924,-0.0003051518
87.19924,-0.0003046772
87.29924,-0.0003043344
87.39924,-0.0003039982
87.49924,-0.0003035904
87.59924,-0.0003032354
87.69923,-0.0003028502
87.79923,-0.0003024698
87.89923,-0.0003021034
87.99923,-0.0003017014
88.09923,-0.0003013067
88.19923,-0.0003010581
88.29922,-0.0003006842
88.39922,-0.0003003151
88.49922,-0.0002999355
88.59922,-0.0002995749
88.69922,-0.0002991643
88.79922,-0.000298846
88.89922,-0.0002984523
88.99921,-0.0002980418
89.09921,-0.0002977366
89.19921,-0.0002974174
89.29921,-0.0002969889
89.39921,-0.0002966037
89.49921,-0.000296341
89.59921,-0.0002959521
89.6992,-0.0002955848
89.7992,-0.0002952768
89.8992,-0.0002949595
89.9992,-0.0002945413
90.0992,-0.0002942042
90.1992,-0.0002938303
90.29919,-0.0002934583
90.39919,-0.0002931636
90.49919,-0.0002928914
90.59919,-0.0002924959
90.69919,-0.0002921248
90.79919,-0.0002917924
90.89919,-0.0002914233
90.99918,-0.0002911144
91.09918,-0.0002908573
91.19918,-0.000290458
91.29918,-0.0002901114
91.39918,-0.0002897686
91.49918,-0.0002894551
91.59917,-0.0002891443
91.69917,-0.0002889051
91.79917,-0.0002885246
91.89917,-0.0002881263
91.99917,-0.0002877985
92.09917,-0.0002874256
92.19917,-0.0002870583
92.29916,-0.0002867551
92.39916,-0.0002864444
92.49916,-0.0002860818
92.59916,-0.0002860375
92.69916,-0.0002857795
92.79916,-0.0002853416
92.89915,-0.000285028
92.99915,-0.0002847935
93.09915,-0.0002843848
93.19915,-0.00028409
93.29915,-0.0002837632
93.39915,-0.0002833865
93.49915,-0.0002830889
93.59914,-0.0002827979
93.69914,-0.0002824957
93.79914,-0.0002822197
93.89914,-0.0002818939
93.99914,-0.0002815266
94.09914,-0.0002813223
94.19913,-0.0002810115
94.29913,-0.0002806725
94.39913,-0.000280502
94.49913,-0.0002803918
94.59913,-0.0002800792
94.69913,-0.0002798767
94.79913,-0.0002798748
94.89912,-0.0002797797
94.99912,-0.0002797731
95.09912,-0.0002801413
95.19912,-0.0002806904
95.29912,-0.0002807205
95.39912,-0.0002805378
95.49911,-0.0002802412
95.59911,-0.000279727
95.69911,-0.0002792354
95.79911,-0.0002786638
95.89911,-0.000278224
95.99911,-0.0002778011
96.09911,-0.0002773472
96.1991,-0.00027693
96.2991,-0.0002766013
96.3991,-0.0002761682
96.4991,-0.0002757387
96.5991,-0.0002753884
96.6991,-0.0002749712
96.7991,-0.0002745314
96.89909,-0.0002742338
96.99909,-0.0002738675
97.09909,-0.0002734757
97.19909,-0.000273165
97.29909,-0.0002727516
97.39909,-0.0002724606
97.49908,-0.0002721084
97.59908,-0.0002717806
97.69908,-0.0002713926
97.79908,-0.0002710725
97.89908,-0.0002707278
97.99908,-0.0002703643
98.09908,-0.000270013
98.19907,-0.0002697211
98.29907,-0.0002693745
98.39907,-0.0002689903
98.49907,-0.0002686965
98.59907,-0.0002683791
98.69907,-0.0002680279
98.79906,-0.0002677256
98.89906,-0.0002674072
98.99906,-0.0002670758
99.09906,-0.0002667631
99.19906,-0.0002665098
99.29906,-0.0002661867
99.39906,-0.0002658722
99.49905,-0.0002656302
99.59905,-0.0002653769
99.69905,-0.0002649729
99.79905,-0.0002646395
99.89905,-0.0002644003
99.99905,-0.0002641752
100.099,-0.0002640029
100.199,-0.0002636827
100.299,-0.0002633446
100.399,-0.0002631535
100.499,-0.0002627429
100.599,-0.0002623181
100.699,-0.0002620563
100.799,-0.000261754
100.899,-0.0002614348
100.999,-0.0002611711
101.099,-0.0002609027
101.199,-0.0002606221
101.299,-0.0002603904
101.399,-0.0002600881
101.499,-0.0002597397
101.599,-0.0002595005
101.699,-0.0002591953
101.799,-0.0002588921
101.899,-0.0002585804
101.999,-0.0002583365
102.099,-0.0002580276
102.199,-0.0002577592
102.299,-0.0002575049
102.399,-0.0002572036
102.499,-0.0002568485
102.599,-0.0002566828
102.699,-0.0002564521
102.799,-0.0002561564
102.899,-0.0002558993
102.999,-0.0002556224
103.099,-0.0002552947
103.199,-0.0002550659
103.299,-0.0002547862
103.399,-0.0002544029
103.499,-0.000254158
103.599,-0.0002539301
103.699,-0.0002535883
103.799,-0.000253366
103.899,-0.0002531183
103.999,-0.0002528161
104.099,-0.0002525448
104.199,-0.0002523169
104.299,-0.0002520457
104.399,-0.0002517331
104.499,-0.0002514788
104.599,-0.0002511803
104.699,-0.0002508215
104.799,-0.0002506294
104.899,-0.0002503544
104.999,-0.0002500794
105.099,-0.0002497865
105.199,-0.0002495567
105.299,-0.0002492695
105.399,-0.0002490228
105.499,-0.0002487421
105.599,-0.0002484276
105.699,-0.0002482336
105.799,-0.0002479793
105.899,-0.000247694
105.999,-0.0002474256
106.099,-0.0002471675
106.199,-0.0002468728
106.299,-0.0002465564
106.3989,-0.000246352
106.4989,-0.0002461222
106.5989,-0.0002458435
106.6989,-0.0002456655
106.7989,-0.0002453519
106.8989,-0.0002450317
106.9989,-0.0002449526
107.0989,-0.0002446023
107.1989,-0.0002442049
107.2989,-0.0002440127
107.3989,-0.0002437613
107.4989,-0.0002434355
107.5989,-0.0002432226
107.6989,-0.0002429929
107.7989,-0.0002426764
107.8989,-0.0002424401
107.9989,-0.0002422216
108.0989,-0.0002419457
108.1989,-0.000241714
108.2989,-0.0002415473
108.3989,-0.0002412601
108.4989,-0.0002410604
108.5989,-0.0002407836
108.6989,-0.000240518
108.7989,-0.0002402646
108.8989,-0.0002400151
108.9989,-0.0002397232
109.0989,-0.0002394915
109.1989,-0.0002392429
109.2989,-0.0002389914
109.3989,-0.0002387051
109.4989,-0.0002384895
109.5989,-0.0002382352
109.6989,-0.0002379442
109.7989,-0.0002377644
109.8989,-0.0002375204
109.9989,-0.0002372426
110.0989,-0.0002369846
110.1989,-0.0002367991
110.2989,-0.0002365439
110.3989,-0.0002363197
110.4989,-0.0002361003
110.5989,-0.0002358112
110.6989,-0.0002355673
110.7989,-0.00023533
110.8989,-0.0002350654
110.9989,-0.0002348403
111.0989,-0.0002346491
111.1989,-0.0002343854
111.2989,-0.0002341302
111.3989,-0.0002339513
111.4989,-0.0002338072
111.5989,-0.0002334465
111.6989,-0.0002332384
111.7989,-0.0002329719
111.8989,-0.0002326922
111.9989,-0.000232486
112.0989,-0.0002322854
112.1989,-0.0002319878
112.2989,-0.0002317448
112.3989,-0.0002315254
112.4989,-0.0002312655
112.5989,-0.0002310498
112.6989,-0.0002308407
112.7989,-0.0002306025
112.8988,-0.0002303717
112.9988,-0.0002301617
113.0988,-0.0002298943
113.1988,-0.0002296655
113.2988,-0.0002294847
113.3988,-0.0002292841
113.4988,-0.0002290411
113.5988,-0.0002289319
113.6988,-0.0002286908
113.7988,-0.0002284186
113.8988,-0.0002282227
113.9988,-0.0002279477
114.0988,-0.0002276605
114.1988,-0.0002275494
114.2988,-0.0002273912
114.3988,-0.0002270964
114.4988,-0.0002269147
114.5988,-0.0002266755
114.6988,-0.000226425
114.7988,-0.0002262611
114.8988,-0.0002260925
114.9988,-0.0002258543
115.0988,-0.0002256914
115.1988,-0.0002255218
115.2988,-0.000225342
115.3988,-0.0002251075
115.4988,-0.0002248956
115.5988,-0.0002246583
115.6988,-0.0002243984
115.7988,-0.0002242298
115.8988,-0.0002240123
115.9988,-0.0002237514
116.0988,-0.0002236374
116.1988,-0.0002234369
116.2988,-0.0002231939
116.3988,-0.0002231129
116.4988,-0.0002228746
116.5988,-0.0002226119
116.6988,-0.0002224923
116.7988,-0.0002223247
116.8988,-0.0002220393
116.9988,-0.0002218425
117.0988,-0.0002216815
117.1988,-0.0002214441
117.2988,-0.0002212219
117.3988,-0.0002210194
117.4988,-0.0002208122
117.5988,-0.000220573
117.6988,-0.0002203951
117.7988,-0.0002201907
117.8988,-0.0002199487
117.9988,-0.0002197537
118.0988,-0.0002195117
118.1988,-0.0002192904
118.2988,-0.0002191266
118.3988,-0.0002188949
118.4988,-0.0002186792
118.5988,-0.0002184975
118.6988,-0.0002183534
118.7988,-0.0002181095
118.8988,-0.000217858
118.9988,-0.0002176923
119.0988,-0.0002174842
119.1988,-0.0002172892
119.2988,-0.0002171188
119.3988,-0.0002169097
119.4987,-0.000216647
119.5987,-0.0002164323
119.6987,-0.0002162345
119.7987,-0.000216001
119.8987,-0.000215822
119.9987,-0.0002155866
120.0987,-0.0002153926
120.1987,-0.0002151892
120.2987,-0.000214981
120.3987,-0.0002147597
120.4987,-0.0002146081
120.5987,-0.0002143548
120.6987,-0.0002141674
120.7987,-0.0002139678
120.8987,-0.00021377
120.9987,-0.0002135515
121.0987,-0.0002133359
121.1987,-0.0002131419
121.2987,-0.0002129413
121.3987,-0.0002126908
121.4987,-0.0002125128
121.5987,-0.0002123385
121.6987,-0.0002120909
121.7987,-0.0002119317
121.8987,-0.0002117208
121.9987,-0.0002115042
122.0987,-0.0002113243
122.1987,-0.000211103
122.2987,-0.0002108855
122.3987,-0.0002107131
122.4987,-0.0002104588
122.5987,-0.0002102432
122.6987,-0.0002100501
122.7987,-0.0002098336
122.8987,-0.000209664
122.9987,-0.0002094456
123.0987,-0.0002092562
123.1987,-0.0002090463
123.2987,-0.0002088344
123.3987,-0.0002086291
123.4987,-0.0002084662
123.5987,-0.0002082797
123.6987,-0.0002080574
123.7987,-0.0002078738
123.8987,-0.000207644
123.9987,-0.0002074632
124.0987,-0.0002072824
124.1987,-0.0002070865
124.2987,-0.0002069471
124.3987,-0.0002067202
124.4987,-0.0002065064
124.5987,-0.0002063435
124.6987,-0.000206141
124.7987,-0.0002059273
124.8987,-0.0002057549
124.9987,-0.0002055892
125.0987,-0.0002053801
125.1987,-0.000205156
125.2987,-0.0002050307
125.3987,-0.0002048471
125.4987,-0.0002046098
125.5987,-0.0002045316
125.6987,-0.0002043348
125.7987,-0.0002040909
125.8987,-0.0002039694
125.9986,-0.0002038046
126.0986,-0.0002035748
126.1986,-0.0002034204
126.2986,-0.0002032848
126.3986,-0.0002030794
126.4986,-0.0002029325
126.5986,-0.0002028318
126.6986,-0.000202602
126.7986,-0.000202376
126.8986,-0.0002022592
126.9986,-0.0002020426
127.0986,-0.000201827
127.1986,-0.0002016725
127.2986,-0.0002014917
127.3986,-0.0002012732
127.4986,-0.0002011329
127.5986,-0.0002009794
127.6986,-0.0002007901
127.7986,-0.0002005914
127.8986,-0.000200436
127.9986,-0.0002002185
128.0986,-0.0002000537
128.1986,-0.0001999002
128.2986,-0.000199725
128.3986,-0.0001995225
128.4986,-0.0001993841
128.5986,-0.000199224
128.6987,-0.0001990639
128.7987,-0.0001989076
128.8987,-0.000198771
128.9987,-0.0001985667
129.0987,-0.0001983972
129.1987,-0.0001982239
129.2987,-0.000198029
129.3987,-0.0001978557
129.4987,-0.0001976909
129.5987,-0.0001975308
129.6987,-0.0001973368
129.7987,-0.0001971428
129.8987,-0.0001969676
129.9987,-0.0001968094
130.0987,-0.0001966267
130.1987,-0.0001964308
130.2988,-0.000196298
130.3988,-0.0001961558
130.4988,-0.0001959421
130.5988,-0.0001957735
130.6988,-0.0001955899
130.7988,-0.0001954138
130.8988,-0.0001952895
130.9988,-0.0001951331
131.0988,-0.000195022
131.1988,-0.0001947988
131.2988,-0.0001946528
131.3988,-0.0001944428
131.4988,-0.0001942488
131.5988,-0.0001941433
131.6988,-0.0001940652
131.7988,-0.0001938373
131.8988,-0.0001936894
131.9989,-0.0001935623
132.0989,-0.0001933796
132.1989,-0.0001931866
132.2989,-0.000193066
132.3989,-0.0001929078
132.4989,-0.0001927383
132.5989,-0.0001925848
132.6989,-0.0001924068
132.7989,-0.000192193
132.8989,-0.000192145
132.9989,-0.0001920235
133.0989,-0.0001918079
133.1989,-0.0001917325
133.2989,-0.0001915065
133.3989,-0.0001913069
133.4989,-0.000191192
133.599,-0.0001910093
133.699,-0.0001907965
133.799,-0.000190626
133.899,-0.0001904735
133.999,-0.0001902973
134.099,-0.0001901222
134.199,-0.0001899602
134.299,-0.0001897747
134.399,-0.0001896193
134.499,-0.0001894809
134.599,-0.0001893189
134.699,-0.0001891277
134.799,-0.0001889761
134.899,-0.0001887991
134.999,-0.0001887407
135.099,-0.0001886512
135.1991,-0.0001884176
135.2991,-0.0001881982
135.3991,-0.0001880993
135.4991,-0.0001878893
135.5991,-0.0001877104
135.6991,-0.0001875851
135.7991,-0.0001874297
135.8991,-0.0001872537
135.9991,-0.0001871077
136.0991,-0.000186973
136.1991,-0.0001868026
136.2991,-0.0001866368
136.3991,-0.0001864974
136.4991,-0.000186342
136.5991,-0.0001861773
136.6991,-0.0001860124
136.7991,-0.000185793
136.8992,-0.0001856555
136.9992,-0.0001855162
137.0992,-0.0001853212
137.1992,-0.0001851263
137.2992,-0.000185017
137.3992,-0.0001848588
137.4992,-0.0001846686
137.5992,-0.0001845189
137.6992,-0.0001843597
137.7992,-0.0001841987
137.8992,-0.0001840216
137.9992,-0.0001838775
138.0992,-0.000183725
138.1992,-0.0001835197
138.2992,-0.0001833803
138.3992,-0.0001832503
138.4993,-0.0001830507
138.5993,-0.0001828897
138.6993,-0.0001827625
138.7993,-0.0001825723
138.8993,-0.0001824169
138.9993,-0.0001822606
139.0993,-0.0001821495
139.1993,-0.0001819771
139.2993,-0.000181833
139.3993,-0.0001816193
139.4993,-0.0001815016
139.5993,-0.0001813029
139.6993,-0.000181171
139.7993,-0.0001810533
139.8993,-0.0001809036
139.9993,-0.0001807256
140.0993,-0.0001805796
140.1994,-0.0001804346
140.2994,-0.000180234
140.3994,-0.0001800626
140.4994,-0.0001799157
140.5994,-0.0001797706
140.6994,-0.0001796341
140.7994,-0.0001794834
140.8994,-0.0001793827
140.9994,-0.0001792018
141.0994,-0.0001790521
141.1994,-0.0001788788
141.2994,-0.0001787084
141.3994,-0.0001786095
141.4994,-0.0001784447
141.5994,-0.0001782733
141.6994,-0.0001781207
141.7995,-0.0001779823
141.8995,-0.0001778222
141.9995,-0.000177696
142.0995,-0.0001775265
142.1995,-0.0001773853
142.2995,-0.0001772685
142.3995,-0.0001771244
142.4995,-0.0001769718
142.5995,-0.0001768814
142.6995,-0.0001767552
142.7995,-0.0001765904
142.8995,-0.0001764869
142.9995,-0.000176387
143.0995,-0.0001762702
143.1995,-0.0001760857
143.2995,-0.0001759821
143.3996,-0.0001757975
143.4996,-0.0001756186
143.5996,-0.0001755376
143.6996,-0.000175417
143.7996,-0.00017524
143.8996,-0.0001751025
143.9996,-0.0001749565
144.0996,-0.0001747898
144.1996,-0.000174658
144.2996,-0.0001745648
144.3996,-0.0001744047
144.4996,-0.0001742512
144.5996,-0.0001741673
144.6996,-0.0001740204
144.7996,-0.0001738858
144.8996,-0.0001737718
144.9996,-0.0001736183
145.0997,-0.0001733914
145.1997,-0.000173316
145.2997,-0.000173187
145.3997,-0.0001729864
145.4997,-0.0001729111
145.5997,-0.000172783
145.6997,-0.0001726163
145.7997,-0.0001724864
145.8997,-0.0001723545
145.9997,-0.0001721803
146.0997,-0.0001720635
146.1997,-0.0001719609
146.2997,-0.0001718111
146.3997,-0.0001716482
146.4997,-0.0001715625
146.5997,-0.0001714608
146.6998,-0.0001712565
146.7998,-0.0001711143
146.8998,-0.0001710144
146.9998,-0.0001708525
147.0998,-0.0001707253
147.1998,-0.0001705605
147.2998,-0.0001704287
147.3998,-0.0001703006
147.4998,-0.0001701339
147.5998,-0.0001699748
147.6998,-0.000169873
147.7998,-0.0001697535
147.8998,-0.0001695802
147.9998,-0.0001694935
148.0998,-0.0001693457
148.1998,-0.0001692167
148.2999,-0.0001691225
148.3999,-0.0001689925
148.4999,-0.0001688532
148.5999,-0.0001687646
148.6999,-0.0001687185
148.7999,-0.0001686149
148.8999,-0.0001684906
148.9999,-0.0001683635
149.0999,-0.0001682486
149.1999,-0.0001680875
149.2999,-0.0001679359
149.3999,-0.0001678606
149.4999,-0.0001677212
149.5999,-0.0001676091
149.6999,-0.000167531
149.7999,-0.0001674443
149.8999,-0.0001672748
150,-0.0001671392
150.1,-0.0001669546
150.2,-0.0001668228
150.3,-0.0001667098
150.4,-0.0001665977
150.5,-0.0001664791
150.6,-0.0001663491
150.7,-0.0001662399
150.8,-0.000166141
150.9,-0.0001660638
151,-0.0001659103
151.1,-0.0001657332
151.2,-0.0001655816
151.3,-0.0001654337
151.4,-0.0001653
151.5,-0.0001652332
151.6001,-0.0001650796
151.7001,-0.0001649431
151.8001,-0.0001648489
151.9001,-0.0001647886
152.0001,-0.0001646389
152.1001,-0.0001644911
152.2001,-0.0001643912
152.3001,-0.0001642462
152.4001,-0.0001641059
152.5001,-0.000164007
152.6001,-0.0001638705
152.7001,-0.0001637462
152.8001,-0.0001636331
152.9001,-0.0001634646
153.0001,-0.0001633525
153.1001,-0.0001632659
153.2001,-0.0001631105
153.3002,-0.0001629306
153.4002,-0.0001629325
153.5002,-0.0001628138
153.6002,-0.0001626274
153.7002,-0.0001625389
153.8002,-0.0001624494
153.9002,-0.0001622818
154.0002,-0.0001622469
154.1002,-0.0001621113
154.2002,-0.0001619079
154.3002,-0.0001618542
154.4002,-0.0001617384
154.5002,-0.0001615783
154.6002,-0.0001614756
154.7002,-0.0001613692
154.8002,-0.0001612459
154.9003,-0.0001611319
155.0003,-0.0001609944
155.1003,-0.0001608899
155.2003,-0.000160758
155.3003,-0.0001606394
155.4003,-0.0001605282
155.5003,-0.0001603795
155.6003,-0.0001602891
155.7003,-0.0001601648
155.8003,-0.0001600273
155.9003,-0.0001598954
156.0003,-0.0001597984
156.1003,-0.0001596769
156.2003,-0.0001595611
156.3003,-0.0001594208
156.4003,-0.0001592861
156.5004,-0.0001591656
156.6004,-0.0001590253
156.7004,-0.0001589057
156.8004,-0.0001587757
156.9004,-0.0001586683
157.0004,-0.0001585384
157.1004,-0.0001584169
157.2004,-0.0001583077
157.3004,-0.0001581834
157.4004,-0.0001580807
157.5004,-0.0001579818
157.6004,-0.000157865
157.7004,-0.0001577087
157.8004,-0.0001576334
157.9004,-0.0001575147
158.0004,-0.0001573546
158.1004,-0.0001572491
158.2005,-0.0001571427
158.3005,-0.0001569911
158.4005,-0.0001568969
158.5005,-0.0001568075
158.6005,-0.0001566446
158.7005,-0.0001565466
158.8005,-0.000156459
158.9005,-0.0001562924
159.0005,-0.0001561596
159.1005,-0.0001560682
159.2005,-0.0001559439
159.3005,-0.0001558243
159.4005,-0.0001557471
159.5005,-0.0001556247
159.6005,-0.0001555653
159.7005,-0.0001554627
159.8006,-0.0001553035
159.9006,-0.0001552075
160.0006,-0.0001551463
160.1006,-0.0001549617
160.2006,-0.0001549061
160.3006,-0.0001548233
160.4006,-0.0001546754
160.5006,-0.0001545925
160.6006,-0.0001545172
160.7006,-0.0001543618
160.8006,-0.0001542347
160.9006,-0.0001541311
161.0006,-0.0001540444
161.1006,-0.0001538975
161.2006,-0.0001538005
161.3006,-0.0001537355
161.4007,-0.0001536037
161.5007,-0.0001535029
161.6007,-0.0001534069
161.7007,-0.0001532873
161.8007,-0.0001531517
161.9007,-0.0001530509
162.0007,-0.000152936
162.1007,-0.0001528616
162.2007,-0.0001527665
162.3007,-0.0001525998
162.4007,-0.0001524793
162.5007,-0.0001524218
162.6007,-0.0001522834
162.7007,-0.0001521647
162.8007,-0.0001520828
162.9007,-0.000151999
163.0007,-0.0001518389
163.1008,-0.0001517099
163.2008,-0.0001516421
163.3008,-0.0001515338
163.4008,-0.0001514255
163.5008,-0.0001513313
163.6008,-0.000151224
163.7008,-0.0001511044
163.8008,-0.0001510017
163.9008,-0.0001508878
164.0008,-0.0001507653
164.1008,-0.0001506759
164.2008,-0.0001505798
164.3008,-0.0001504687
164.4008,-0.000150351
164.5008,-0.0001502455
164.6008,-0.0001501551
164.7009,-0.0001500713
164.8009,-0.000149962
164.9009,-0.0001498519
165.0009,-0.0001497897
165.1009,-0.0001496578
165.2009,-0.0001495062
165.3009,-0.0001494723
165.4009,-0.0001493716
165.5009,-0.0001492425
165.6009,-0.0001491842
165.7009,-0.000149074
165.8009,-0.0001489487
165.9009,-0.0001488564
166.0009,-0.0001487717
166.1009,-0.0001486361
166.2009,-0.0001485221
166.3009,-0.0001484666
166.401,-0.0001483781
166.501,-0.000148282
166.601,-0.0001482792
166.701,-0.0001482453
166.801,-0.0001482528
166.901,-0.0001485428
167.001,-0.0001489148
167.101,-0.0001492868
167.201,-0.0001496475
167.301,-0.0001498208
167.401,-0.0001498038
167.501,-0.0001496692
167.601,-0.0001494488
167.701,-0.0001492134
167.801,-0.0001490344
167.901,-0.0001488423
168.0011,-0.0001486634
168.1011,-0.0001484892
168.2011,-0.0001483969
168.3011,-0.0001482029
168.4011,-0.0001480127
168.5011,-0.0001478658
168.6011,-0.0001477113
168.7011,-0.0001475597
168.8011,-0.0001473892
168.9011,-0.000147279
169.0011,-0.0001470898
169.1011,-0.0001469579
169.2011,-0.0001468044
169.3011,-0.00014665
169.4011,-0.0001464955
169.5011,-0.0001463646
169.6012,-0.0001462412
169.7012,-0.0001460821
169.8012,-0.0001459832
169.9012,-0.0001458711
170.0012,-0.0001456856
170.1012,-0.0001455604
170.2012,-0.0001454568
170.3012,-0.000145324
170.4012,-0.0001451828
170.5012,-0.0001450594
170.6012,-0.0001449351
170.7012,-0.0001448258
170.8012,-0.0001446817
170.9012,-0.000144565
171.0012,-0.0001444793
171.1012,-0.0001443597
171.2012,-0.0001442354
171.3013,-0.0001441346
171.4013,-0.000144031
171.5013,-0.0001438785
171.6013,-0.0001438539
171.7013,-0.0001437692
171.8013,-0.0001436402
171.9013,-0.0001435131
172.0013,-0.0001434123
172.1013,-0.0001432908
172.2013,-0.000143143
172.3013,-0.0001430648
172.4013,-0.0001429791
172.5013,-0.0001428548
172.6013,-0.0001427305
172.7013,-0.0001426212
172.8013,-0.0001425092
172.9014,-0.0001424357
173.0014,-0.0001423312
173.1014,-0.0001422078
173.2014,-0.0001421325
173.3014,-0.0001420543
173.4014,-0.0001419347
173.5014,-0.0001418104
173.6014,-0.0001417501
173.7014,-0.0001416145
173.8014,-0.0001415222
173.9014,-0.0001414356
174.0014,-0.000141332
174.1014,-0.0001411992
174.2014,-0.0001411399
174.3014,-0.000141026
174.4014,-0.0001409572
174.5014,-0.0001408677
174.6015,-0.0001407585
174.7015,-0.0001406681
174.8015,-0.0001405777
174.9015,-0.0001404421
175.0015,-0.0001403272
175.1015,-0.000140249
175.2015,-0.0001401869
175.3015,-0.000140056
175.4015,-0.0001399382
175.5015,-0.0001398591
175.6015,-0.0001397697
175.7015,-0.0001396331
175.8015,-0.0001395276
175.9015,-0.0001394561
176.0015,-0.0001393628
176.1015,-0.0001393054
176.2016,-0.0001392338
176.3016,-0.000139101
176.4016,-0.0001390069
176.5016,-0.0001389692
176.6016,-0.0001388449
176.7016,-0.0001387262
176.8016,-0.0001386839
176.9016,-0.0001385586
177.0016,-0.0001384456
177.1016,-0.0001383703
177.2016,-0.0001382535
177.3016,-0.000138148
177.4016,-0.0001380585
177.5016,-0.0001379173
177.6016,-0.0001378344
177.7016,-0.0001377798
177.8017,-0.0001376781
177.9017,-0.00013755
178.0017,-0.000137517
178.1017,-0.0001374342
178.2017,-0.0001373127
178.3017,-0.0001372477
178.4017,-0.0001371291
178.5017,-0.0001370095
178.6017,-0.0001369379
178.7017,-0.0001368371
178.8017,-0.0001367392
178.9017,-0.000136646
179.0017,-0.0001365489
179.1017,-0.0001364699
179.2017,-0.0001363898
179.3017,-0.00013629
179.4017,-0.0001361949
179.5018,-0.0001360847
179.6018,-0.0001360235
179.7018,-0.0001358888
179.8018,-0.0001357956
179.9018,-0.0001357532
180.0018,-0.0001356138
180.1018,-0.0001355121
180.2018,-0.0001355357
180.3018,-0.0001354575
180.4018,-0.0001353181
180.5018,-0.00013524
180.6018,-0.0001351759
180.7018,-0.0001350563
180.8018,-0.00013498
180.9018,-0.0001348906
181.0018,-0.0001347559
181.1019,-0.0001346278
181.2019,-0.0001345609
181.3019,-0.000134496
181.4019,-0.0001343848
181.5019,-0.000134286
181.6019,-0.0001342191
181.7019,-0.0001341108
181.8019,-0.000134076
181.9019,-0.000133963
182.0019,-0.0001338481
182.1019,-0.0001338085
182.2019,-0.0001337143
182.3019,-0.0001336173
182.4019,-0.0001335204
182.5019,-0.0001334516
182.6019,-0.0001333527
182.702,-0.0001332793
182.802,-0.0001331719
182.902,-0.0001330843
183.002,-0.0001330043
183.102,-0.000132928
183.202,-0.0001328188
183.302,-0.0001327236
183.402,-0.000132669
183.502,-0.0001325607
183.602,-0.000132475
183.702,-0.0001323771
183.802,-0.0001322933
183.902,-0.0001321868
184.002,-0.0001321238
184.102,-0.0001320173
184.202,-0.000131926
184.302,-0.000131861
184.4021,-0.0001317621
184.5021,-0.0001316491
184.6021,-0.0001316275
184.7021,-0.0001315295
184.8021,-0.0001314259
184.9021,-0.0001314325
185.0021,-0.0001312969
185.1021,-0.0001311792
185.2021,-0.0001310963
185.3021,-0.0001310153
185.4021,-0.0001309221
185.5021,-0.0001308713
185.6021,-0.0001308308
185.7021,-0.0001307253
185.8021,-0.0001306424
185.9021,-0.0001306151
186.0022,-0.000130488
186.1022,-0.0001303966
186.2022,-0.000130342
186.3022,-0.0001302215
186.4022,-0.0001301056
186.5022,-0.0001300388
186.6022,-0.0001299512
186.7022,-0.0001298721
186.8022,-0.000129808
186.9022,-0.0001297412
187.0022,-0.0001296404
187.1022,-0.0001295867
187.2022,-0.0001295114
187.3022,-0.000129404
187.4022,-0.000129372
187.5022,-0.0001292845
187.6022,-0.0001291761
187.7023,-0.0001291083
187.8023,-0.0001290283
187.9023,-0.000128919
188.0023,-0.0001288371
188.1023,-0.000128775
188.2023,-0.0001287128
188.3023,-0.0001286441
188.4023,-0.0001285923
188.5023,-0.0001285141
188.6023,-0.0001284764
188.7023,-0.0001284661
188.8023,-0.0001283389
188.9023,-0.0001283069
189.0023,-0.0001283013
189.1023,-0.0001281657
189.2023,-0.00012808
189.3024,-0.0001280188
189.4024,-0.0001278831
189.5024,-0.0001278643
189.6024,-0.0001278059
189.7024,-0.0001277315
189.8024,-0.0001276731
189.9024,-0.0001276147
190.0024,-0.000127563
190.1024,-0.0001274707
190.2024,-0.0001274245
190.3024,-0.0001274028
190.4024,-0.000127336
190.5024,-0.0001272296
190.6024,-0.000127207
190.7024,-0.0001271543
190.8024,-0.0001270553
190.9025,-0.0001269838
191.0025,-0.0001269263
191.1025,-0.0001268482
191.2025,-0.0001267983
191.3025,-0.0001266796
191.4025,-0.0001266325
191.5025,-0.0001265779
191.6025,-0.0001265167
191.7025,-0.0001264442
191.8025,-0.0001263849
191.9025,-0.0001263152
192.0025,-0.0001262219
192.1025,-0.0001261174
192.2025,-0.0001260675
192.3025,-0.0001260195
192.4025,-0.0001259347
192.5025,-0.0001258716
192.6026,-0.0001258076
192.7026,-0.0001257351
192.8026,-0.0001256352
192.9026,-0.0001255834
193.0026,-0.0001255015
193.1026,-0.000125478
193.2026,-0.0001253951
193.3026,-0.0001253047
193.4026,-0.0001253198
193.5026,-0.0001252943
193.6026,-0.0001251361
193.7026,-0.0001250881
193.8026,-0.0001250617
193.9026,-0.0001249609
194.0026,-0.0001249901
194.1026,-0.0001250693
194.2027,-0.0001249534
194.3027,-0.000124896
194.4027,-0.0001249393
194.5027,-0.0001248527
194.6027,-0.0001247283
194.7027,-0.0001247255
194.8027,-0.0001246417
194.9027,-0.0001245598
195.0027,-0.000124508
195.1027,-0.0001244694
195.2027,-0.0001244091
195.3027,-0.000124346
195.4027,-0.0001242933
195.5027,-0.0001242038
195.6027,-0.0001241501
195.7027,-0.0001240691
195.8027,-0.0001239636
195.9028,-0.000123941
196.0028,-0.0001238996
196.1028,-0.0001238007
196.2028,-0.0001237103
196.3028,-0.0001237141
196.4028,-0.0001235907
196.5028,-0.0001235069
196.6028,-0.0001234956
196.7028,-0.0001234052
196.8028,-0.0001232865
196.9028,-0.0001232319
197.0028,-0.0001231349
197.1028,-0.0001230474
197.2028,-0.0001229984
197.3028,-0.0001229296
197.4028,-0.0001228477
197.5029,-0.0001227658
197.6029,-0.000122746
197.7029,-0.0001226273
197.8029,-0.0001225322
197.9029,-0.0001225096
198.0029,-0.0001224117
198.1029,-0.0001222911
198.2029,-0.0001222902
198.3029,-0.0001222488
198.4029,-0.0001221179
198.5029,-0.0001220689
198.6029,-0.0001220359
198.7029,-0.0001219031
198.8029,-0.0001218824
198.9029,-0.0001218419
199.0029,-0.0001217252
199.103,-0.0001217016
199.203,-0.0001216724
199.303,-0.0001215283
199.403,-0.0001214125
199.503,-0.0001213588
199.603,-0.0001212505
199.703,-0.0001211667
199.803,-0.0001210933
199.903,-0.0001210396
200.003,-0.0001209642
200.103,-0.0001209247
200.203,-0.0001208333
200.303,-0.0001207806
200.403,-0.0001207561
200.503,-0.0001207589
200.603,-0.0001206459
200.703,-0.0001205499
200.8031,-0.0001204792
200.9031,-0.0001204256
201.0031,-0.0001203898
201.1031,-0.0001203474
201.2031,-0.0001202551
201.3031,-0.0001202099
201.4031,-0.0001202222
201.5031,-0.0001201261
201.6031,-0.0001199557
201.7031,-0.0001199189
201.8031,-0.0001198172
201.9031,-0.0001197372
202.0031,-0.0001196647
202.1031,-0.0001196505
202.2031,-0.000119562
202.3031,-0.0001194697
202.4032,-0.0001194226
202.5032,-0.000119368
202.6032,-0.0001192851
202.7032,-0.0001192315
202.8032,-0.0001191825
202.9032,-0.0001190732
203.0032,-0.0001190092
203.1032,-0.0001189442
203.2032,-0.0001188953
203.3032,-0.0001188039
203.4032,-0.0001187257
203.5032,-0.0001186579
203.6032,-0.0001186014
203.7032,-0.0001185355
203.8032,-0.000118447
203.9032,-0.0001184046
204.0033,-0.0001183255
204.1033,-0.0001182219
204.2033,-0.0001181833
204.3033,-0.000118139
204.4033,-0.0001180072
204.5033,-0.0001179526
204.6033,-0.0001178791
204.7033,-0.0001177897
204.8033,-0.0001177303
204.9033,-0.000117688
205.0033,-0.000117607
205.1033,-0.0001175071
205.2033,-0.0001174893
205.3033,-0.00011738
205.4033,-0.0001173245
205.5033,-0.0001172595
205.6033,-0.0001172199
205.7034,-0.0001171747
205.8034,-0.000117202
205.9034,-0.000117089
206.0034,-0.0001169958
206.1034,-0.0001170193
206.2034,-0.0001168658
206.3034,-0.0001167773
206.4034,-0.000116783
206.5034,-0.0001167029
206.6034,-0.0001165824
206.7034,-0.0001166144
206.8034,-0.0001166134
206.9034,-0.0001165136
207.0034,-0.0001164091
207.1034,-0.0001164044
207.2034,-0.0001163319
207.3035,-0.0001162678
207.4035,-0.0001162443
207.5035,-0.0001161963
207.6035,-0.0001161595
207.7035,-0.0001160927
207.8035,-0.0001160107
207.9035,-0.0001159928
208.0035,-0.0001159363
208.1035,-0.0001159071
208.2035,-0.0001158488
208.3035,-0.0001157998
208.4035,-0.0001157414
208.5035,-0.000115667
208.6035,-0.0001155992
208.7035,-0.0001155455
208.8035,-0.000115489
208.9035,-0.000115393
209.0036,-0.0001153977
209.1036,-0.0001153459
209.2036,-0.000115246
209.3036,-0.0001151839
209.4036,-0.0001151444
209.5036,-0.0001150417
209.6036,-0.0001149701
209.7036,-0.0001149419
209.8036,-0.0001148769
209.9036,-0.0001147931
210.0036,-0.0001147234
210.1036,-0.0001146772
210.2036,-0.0001146028
210.3036,-0.0001145746
210.4036,-0.0001144748
210.5036,-0.0001143938
210.6037,-0.0001143599
210.7037,-0.0001142685
210.8037,-0.0001142177
210.9037,-0.0001141508
211.0037,-0.0001140802
211.1037,-0.0001140237
211.2037,-0.0001139888
211.3037,-0.0001139069
211.4037,-0.0001138306
211.5037,-0.000113776
211.6037,-0.000113744
211.7037,-0.0001136319
211.8037,-0.0001135641
211.9037,-0.000113533
212.0037,-0.0001134144
212.1037,-0.0001133824
212.2038,-0.0001133786
212.3038,-0.0001132543
212.4038,-0.0001131658
212.5038,-0.0001131714
212.6038,-0.0001130885
212.7038,-0.0001130066
212.8038,-0.0001129181
212.9038,-0.0001128955
213.0038,-0.0001127994
213.1038,-0.0001127938
213.2038,-0.0001126874
213.3038,-0.0001125951
213.4038,-0.0001125649
213.5038,-0.0001125066
213.6038,-0.0001124246
213.7038,-0.0001123681
213.8038,-0.000112305
213.9039,-0.0001122363
214.0039,-0.0001121581
214.1039,-0.0001121167
214.2039,-0.000112063
214.3039,-0.0001119726
214.4039,-0.0001120037
214.5039,-0.000111949
214.6039,-0.0001118229
214.7039,-0.0001118181
214.8039,-0.0001117146
214.9039,-0.0001116072
215.0039,-0.0001115733
215.1039,-0.0001114735
215.2039,-0.0001114019
215.3039,-0.000111416
215.4039,-0.0001113501
215.504,-0.0001112691
215.604,-0.0001112719
215.704,-0.0001112531
215.804,-0.0001111222
215.904,-0.0001110864
216.004,-0.0001110243
216.104,-0.0001109499
216.204,-0.0001109028
216.304,-0.0001108491
216.404,-0.0001107502
216.504,-0.0001107286
216.604,-0.0001106984
216.704,-0.0001106278
216.804,-0.0001105336
216.904,-0.0001105421
217.004,-0.0001104865
217.104,-0.0001103867
217.2041,-0.0001103679
217.3041,-0.0001103509
217.4041,-0.0001102464
217.5041,-0.000110189
217.6041,-0.0001101635
217.7041,-0.0001100788
217.8041,-0.0001100402
217.9041,-0.0001100025
218.0041,-0.0001099422
218.1041,-0.000109897
218.2041,-0.0001098895
218.3041,-0.0001098198
218.4041,-0.0001097247
218.5041,-0.0001097322
218.6041,-0.0001096785
218.7041,-0.0001096851
218.8042,-0.0001097379
218.9042,-0.0001096729
219.0042,-0.0001095975
219.1042,-0.0001096654
219.2042,-0.0001095505
219.3042,-0.0001094855
219.4042,-0.0001094968
219.5042,-0.0001094393
219.6042,-0.0001093809
219.7042,-0.0001093141
219.8042,-0.0001093047
219.9042,-0.0001092482
220.0042,-0.0001091973
220.1042,-0.0001091559
220.2042,-0.0001090787
220.3042,-0.000109041
220.4043,-0.0001089741
220.5043,-0.0001089402
220.6043,-0.0001088752
220.7043,-0.0001088432
220.8043,-0.0001087679
220.9043,-0.0001087519
221.0043,-0.0001087349
221.1043,-0.0001086925
221.2043,-0.0001085927
221.3043,-0.0001086238
221.4043,-0.0001084882
221.5043,-0.0001083742
221.6043,-0.0001083714
221.7043,-0.0001083111
221.8043,-0.0001082292
221.9043,-0.000108184
222.0043,-0.0001081623
222.1044,-0.0001080936
222.2044,-0.0001080248
222.3044,-0.0001079919
222.4044,-0.000107941
222.5044,-0.0001078422
222.6044,-0.0001078214
222.7044,-0.0001077857
222.8044,-0.0001076802
222.9044,-0.0001076736
223.0044,-0.0001075587
223.1044,-0.0001074975
223.2044,-0.0001074965
223.3044,-0.0001074457
223.4044,-0.0001073525
223.5044,-0.000107328
223.6044,-0.0001072508
223.7045,-0.0001071782
223.8045,-0.0001071133
223.9045,-0.0001070973
224.0045,-0.0001070163
224.1045,-0.0001069437
224.2045,-0.0001069993
224.3045,-0.0001069032
224.4045,-0.0001068176
224.5045,-0.0001067912
224.6045,-0.0001067177
224.7045,-0.0001066452
224.8045,-0.000106632
224.9045,-0.0001065576
225.0045,-0.0001064653
225.1045,-0.0001064362
225.2045,-0.000106423
225.3046,-0.0001063382
225.4046,-0.0001063137
225.5046,-0.0001062252
225.6046,-0.0001061687
225.7046,-0.0001061301
225.8046,-0.0001060613
225.9046,-0.0001060001
226.0046,-0.0001059625
226.1046,-0.0001059399
226.2046,-0.0001058871
226.3046,-0.0001057864
226.4046,-0.0001057798
226.5046,-0.0001057261
226.6046,-0.0001056234
226.7046,-0.000105599
226.8046,-0.0001055547
226.9046,-0.0001054681
227.0047,-0.0001054144
227.1047,-0.0001053673
227.2047,-0.0001052712
227.3047,-0.0001052345
227.4047,-0.0001051874
227.5047,-0.0001051309
227.6047,-0.0001050565
227.7047,-0.0001050367
227.8047,-0.0001049906
227.9047,-0.0001048992
228.0047,-0.0001048559
228.1047,-0.0001047966
228.2047,-0.0001047834
228.3047,-0.0001047194
228.4047,-0.000104628
228.5047,-0.0001045913
228.6048,-0.0001045659
228.7048,-0.000104466
228.8048,-0.000104403
228.9048,-0.0001044218
229.0048,-0.0001043851
229.1048,-0.0001042843
229.2048,-0.0001042231
229.3048,-0.0001042033
229.4048,-0.0001041543
229.5048,-0.0001040847
229.6048,-0.000103998
229.7048,-0.0001039942
229.8048,-0.0001039114
229.9048,-0.0001038671
230.0048,-0.0001037937
230.1048,-0.0001037626
230.2048,-0.0001037098
230.3049,-0.000103658
230.4049,-0.0001035761
230.5049,-0.000103562
230.6049,-0.0001034697
230.7049,-0.0001034179
230.8049,-0.0001033689
230.9049,-0.0001033332
231.0049,-0.0001032569
231.1049,-0.0001032277
231.2049,-0.0001031514
231.3049,-0.0001030685
231.4049,-0.0001030535
231.5049,-0.0001030026
231.6049,-0.0001029423
231.7049,-0.000102899
231.8049,-0.0001028557
231.905,-0.0001027672
232.005,-0.0001027069
232.105,-0.0001026786
232.205,-0.0001026419
232.305,-0.0001025638
232.405,-0.0001025091
232.505,-0.0001024526
232.605,-0.000102382
232.705,-0.000102349
232.805,-0.0001023001
232.905,-0.0001022784
233.005,-0.0001022285
233.105,-0.000102155
233.205,-0.0001020995
233.305,-0.0001020882
233.405,-0.0001019629
233.5051,-0.0001019187
233.6051,-0.0001018688
233.7051,-0.0001018283
233.8051,-0.0001017473
233.9051,-0.0001017237
234.0051,-0.0001016917
234.1051,-0.0001016051
234.2051,-0.0001015674
234.3051,-0.0001015316
234.4051,-0.0001014657
234.5051,-0.0001014101
234.6051,-0.0001013857
234.7051,-0.0001013357
234.8051,-0.0001012463
234.9051,-0.0001012425
235.0051,-0.0001012095
235.1051,-0.0001010965
235.2052,-0.0001010984
235.3052,-0.0001010777
235.4052,-0.0001009892
235.5052,-0.0001009364
235.6052,-0.0001009317
235.7052,-0.0001008639
235.8052,-0.0001007754
235.9052,-0.0001007566
236.0052,-0.0001006916
236.1052,-0.0001006294
236.2052,-0.0001006228
236.3052,-0.0001005419
236.4052,-0.0001004797
236.5052,-0.000100475
236.6052,-0.0001004147
236.7052,-0.0001003262
236.8053,-0.000100297
236.9053,-0.0001002697
237.0053,-0.0001001868
237.1053,-0.0001001407
237.2053,-0.0001001124
237.3053,-0.0001000512
237.4053,-9.999376E-05
237.5053,-9.993914E-05
237.6053,-9.989394E-05
237.7053,-9.985533E-05
237.8053,-9.982049E-05
237.9053,-9.97216E-05
238.0053,-9.968676E-05
238.1053,-9.96651E-05
238.2053,-9.957658E-05
238.3053,-9.952384E-05
238.4053,-9.950971E-05
238.5054,-9.947394E-05
238.6054,-9.938258E-05
238.7054,-9.937223E-05
238.8054,-9.932891E-05
238.9054,-9.924509E-05
239.0054,-9.920742E-05
239.1054,-9.918388E-05
239.2054,-9.910477E-05
239.3054,-9.905298E-05
239.4054,-9.902001E-05
239.5054,-9.897011E-05
239.6054,-9.889948E-05
239.7054,-9.886464E-05
239.8054,-9.885144E-05
239.9054,-9.878364E-05
240.0054,-9.872526E-05
240.1055,-9.868853E-05
240.2055,-9.861036E-05
240.3055,-9.860849E-05
240.4055,-9.855857E-05
240.5055,-9.849265E-05
240.6055,-9.845592E-05
240.7055,-9.844085E-05
240.8055,-9.838341E-05
240.9055,-9.834197E-05
241.0055,-9.832502E-05
241.1055,-9.826852E-05
241.2055,-9.8196E-05
241.3055,-9.811407E-05
241.4055,-9.810936E-05
241.5055,-9.805003E-05
241.6055,-9.801802E-05
241.7056,-9.793232E-05
241.8056,-9.791725E-05
241.9056,-9.787676E-05
242.0056,-9.782496E-05
242.1056,-9.777788E-05
242.2056,-9.774209E-05
242.3056,-9.770913E-05
242.4056,-9.766957E-05
242.5056,-9.764414E-05
242.6056,-9.757069E-05
242.7056,-9.749253E-05
242.8056,-9.750666E-05
242.9056,-9.742378E-05
243.0056,-9.735315E-05
243.1056,-9.731925E-05
243.2056,-9.731737E-05
243.3056,-9.721001E-05
243.4057,-9.716952E-05
243.5057,-9.716952E-05
243.6057,-9.714597E-05
243.7057,-9.706216E-05
243.8057,-9.703014E-05
243.9057,-9.699812E-05
244.0057,-9.693031E-05
244.1057,-9.688794E-05
244.2057,-9.684367E-05
244.3057,-9.676928E-05
244.4057,-9.673349E-05
244.5057,-9.672219E-05
244.6057,-9.666003E-05
244.7057,-9.662331E-05
244.8057,-9.655739E-05
244.9057,-9.653009E-05
245.0058,-9.647451E-05
245.1058,-9.643119E-05
245.2058,-9.639447E-05
245.3058,-9.635586E-05
245.4058,-9.63342E-05
245.5058,-9.630407E-05
245.6058,-9.624756E-05
245.7058,-9.622778E-05
245.8058,-9.619012E-05
245.9058,-9.61355E-05
246.0058,-9.612514E-05
246.1058,-9.604132E-05
246.2058,-9.597446E-05
246.3058,-9.594997E-05
246.4058,-9.588028E-05
246.5058,-9.582096E-05
246.6059,-9.582473E-05
246.7059,-9.578611E-05
246.8059,-9.569947E-05
246.9059,-9.567028E-05
247.0059,-9.56345E-05
247.1059,-9.558929E-05
247.2059,-9.551395E-05
247.3059,-9.552808E-05
247.4059,-9.54584E-05
247.5059,-9.542354E-05
247.6059,-9.541884E-05
247.7059,-9.540001E-05
247.8059,-9.535009E-05
247.9059,-9.535762E-05
248.0059,-9.531902E-05
248.1059,-9.520695E-05
248.2059,-9.520977E-05
248.306,-9.51222E-05
248.406,-9.506287E-05
248.506,-9.508358E-05
248.606,-9.499976E-05
248.706,-9.493197E-05
248.806,-9.49282E-05
248.906,-9.485474E-05
249.006,-9.479918E-05
249.106,-9.480577E-05
249.206,-9.478128E-05
249.306,-9.47116E-05
249.406,-9.467299E-05
249.506,-9.466922E-05
249.606,-9.459294E-05
249.706,-9.458823E-05
249.806,-9.454491E-05
249.9061,-9.44658E-05
250.0061,-9.442626E-05
250.1061,-9.442248E-05
250.2061,-9.434338E-05
250.3061,-9.428123E-05
250.4061,-9.429912E-05
250.5061,-9.422754E-05
250.6061,-9.416162E-05
250.7061,-9.414467E-05
250.8061,-9.41136E-05
250.9061,-9.402037E-05
251.0061,-9.399871E-05
251.1061,-9.398082E-05
251.2061,-9.392431E-05
251.3061,-9.387063E-05
251.4061,-9.387534E-05
251.5061,-9.38292E-05
251.6062,-9.378776E-05
251.7062,-9.375856E-05
251.8062,-9.369453E-05
251.9062,-9.36465E-05
252.0062,-9.360601E-05
252.1062,-9.354196E-05
252.2062,-9.349583E-05
252.3062,-9.352501E-05
252.4062,-9.346758E-05
252.5062,-9.341766E-05
252.6062,-9.341107E-05
252.7062,-9.334514E-05
252.8062,-9.328393E-05
252.9062,-9.323779E-05
253.0062,-9.32199E-05
253.1062,-9.314362E-05
253.2063,-9.310406E-05
253.3063,-9.310782E-05
253.4063,-9.306827E-05
253.5063,-9.303531E-05
253.6063,-9.303531E-05
253.7063,-9.297315E-05
253.8063,-9.297128E-05
253.9063,-9.294585E-05
254.0063,-9.285262E-05
254.1063,-9.281778E-05
254.2063,-9.285262E-05
254.3063,-9.276316E-05
254.4063,-9.273679E-05
254.5063,-9.271795E-05
254.6063,-9.265957E-05
254.7063,-9.263602E-05
254.8064,-9.261436E-05
254.9064,-9.255691E-05
255.0064,-9.250511E-05
255.1064,-9.249476E-05
255.2064,-9.243166E-05
255.3064,-9.240813E-05
255.4064,-9.23761E-05
255.5064,-9.23648E-05
255.6064,-9.230735E-05
255.7064,-9.229982E-05
255.8064,-9.228098E-05
255.9064,-9.22452E-05
256.0064,-9.218494E-05
256.1064,-9.217458E-05
256.2064,-9.211242E-05
256.3064,-9.20286E-05
256.4064,-9.202577E-05
256.5064,-9.201071E-05
256.6064,-9.194478E-05
256.7065,-9.188452E-05
256.8065,-9.18977E-05
256.9065,-9.182331E-05
257.0065,-9.177622E-05
257.1065,-9.177622E-05
257.2065,-9.170936E-05
257.3065,-9.165568E-05
257.4065,-9.167922E-05
257.5065,-9.164814E-05
257.6065,-9.156622E-05
257.7065,-9.152195E-05
257.8065,-9.147863E-05
257.9065,-9.14485E-05
258.0065,-9.144661E-05
258.1065,-9.136751E-05
258.2065,-9.129217E-05
258.3065,-9.127805E-05
258.4066,-9.127239E-05
258.5066,-9.119329E-05
258.6066,-9.11575E-05
258.7066,-9.115467E-05
258.8066,-9.111701E-05
258.9066,-9.10266E-05
259.0066,-9.10266E-05
259.1066,-9.096822E-05
259.2066,-9.094373E-05
259.3066,-9.08957E-05
259.4066,-9.08778E-05
259.5066,-9.083449E-05
259.6066,-9.079683E-05
259.7066,-9.07582E-05
259.8066,-9.073372E-05
259.9066,-9.069793E-05
260.0067,-9.063296E-05
260.1067,-9.060565E-05
260.2067,-9.06226E-05
260.3067,-9.053972E-05
260.4067,-9.048888E-05
260.5067,-9.049923E-05
260.6067,-9.04738E-05
260.7067,-9.038716E-05
260.8067,-9.035421E-05
260.9067,-9.032784E-05
261.0067,-9.024968E-05
261.1067,-9.023178E-05
261.2067,-9.017339E-05
261.3067,-9.012348E-05
261.4067,-9.009994E-05
261.5067,-9.007169E-05
261.6068,-9.003779E-05
261.7068,-9.001519E-05
261.8068,-8.999823E-05
261.9068,-8.995114E-05
262.0068,-8.991253E-05
262.1068,-8.988711E-05
262.2068,-8.981271E-05
262.3068,-8.975244E-05
262.4068,-8.973831E-05
262.5068,-8.972795E-05
262.6068,-8.965073E-05
262.7068,-8.961117E-05
262.8068,-8.957351E-05
262.9068,-8.954055E-05
263.0068,-8.94944E-05
263.1068,-8.946898E-05
263.2068,-8.941153E-05
263.3069,-8.937387E-05
263.4069,-8.934749E-05
263.5069,-8.9307E-05
263.6069,-8.923637E-05
263.7069,-8.92392E-05
263.8069,-8.917799E-05
263.9069,-8.912619E-05
264.0069,-8.913466E-05
264.1069,-8.907157E-05
264.2069,-8.898681E-05
264.3069,-8.898305E-05
264.4069,-8.900376E-05
264.5069,-8.888888E-05
264.6069,-8.886628E-05
264.7069,-8.885591E-05
264.8069,-8.878246E-05
264.907,-8.873631E-05
265.007,-8.87269E-05
265.107,-8.868169E-05
265.207,-8.858281E-05
265.307,-8.857339E-05
265.407,-8.853478E-05
265.507,-8.847263E-05
265.607,-8.847168E-05
265.707,-8.842271E-05
265.807,-8.836245E-05
265.907,-8.835303E-05
266.007,-8.832289E-05
266.107,-8.826638E-05
266.207,-8.822966E-05
266.307,-8.818351E-05
266.407,-8.814396E-05
266.507,-8.815997E-05
266.6071,-8.809217E-05
266.7071,-8.803189E-05
266.8071,-8.800082E-05
266.9071,-8.798386E-05
267.0071,-8.792265E-05
267.1071,-8.789251E-05
267.2071,-8.786991E-05
267.3071,-8.784826E-05
267.4071,-8.778328E-05
267.5071,-8.774278E-05
267.6071,-8.771547E-05
267.7071,-8.767687E-05
267.8071,-8.763636E-05
267.9071,-8.753749E-05
268.0071,-8.754314E-05
268.1071,-8.754973E-05
268.2072,-8.750641E-05
268.3072,-8.741317E-05
268.4072,-8.741317E-05
268.5072,-8.740565E-05
268.6072,-8.729923E-05
268.7072,-8.728416E-05
268.8072,-8.724366E-05
268.9072,-8.719846E-05
269.0072,-8.714478E-05
269.1072,-8.71429E-05
269.2072,-8.709676E-05
269.3072,-8.702518E-05
269.4072,-8.702518E-05
269.5072,-8.700259E-05
269.6072,-8.695362E-05
269.7072,-8.689429E-05
269.8073,-8.685755E-05
269.9073,-8.683119E-05
270.0073,-8.680388E-05
270.1073,-8.674455E-05
270.2073,-8.670405E-05
270.3073,-8.668522E-05
270.4073,-8.664096E-05
270.5073,-8.656939E-05
270.6073,-8.655997E-05
270.7073,-8.654113E-05
270.8073,-8.648745E-05
270.9073,-8.642342E-05
271.0073,-8.643283E-05
271.1073,-8.637727E-05
271.2073,-8.634714E-05
271.3073,-8.629816E-05
271.4073,-8.629064E-05
271.5074,-8.623789E-05
271.6074,-8.6204E-05
271.7074,-8.61748E-05
271.8074,-8.615314E-05
271.9074,-8.610322E-05
272.0074,-8.606556E-05
272.1074,-8.603542E-05
272.2074,-8.599116E-05
272.3074,-8.595255E-05
272.4074,-8.588569E-05
272.5074,-8.588852E-05
272.6074,-8.585367E-05
272.7074,-8.581601E-05
272.8074,-8.578022E-05
272.9074,-8.573689E-05
273.0074,-8.569546E-05
273.1075,-8.56738E-05
273.2075,-8.561824E-05
273.3075,-8.556456E-05
273.4075,-8.557398E-05
273.5075,-8.553819E-05
273.6075,-8.547604E-05
273.7075,-8.545061E-05
273.8075,-8.5428E-05
273.9075,-8.537339E-05
274.0075,-8.533948E-05
274.1075,-8.531877E-05
274.2075,-8.526038E-05
274.3075,-8.521989E-05
274.4075,-8.522742E-05
274.5075,-8.520953E-05
274.6075,-8.512665E-05
274.7076,-8.511912E-05
274.8076,-8.508333E-05
274.9076,-8.501083E-05
275.0076,-8.504379E-05
275.1076,-8.500423E-05
275.2076,-8.49741E-05
275.3076,-8.495432E-05
275.4076,-8.495621E-05
275.5076,-8.488746E-05
275.6076,-8.480176E-05
275.7076,-8.476221E-05
275.8076,-8.474525E-05
275.9076,-8.465109E-05
276.0076,-8.462284E-05
276.1076,-8.461341E-05
276.2076,-8.456068E-05
276.3076,-8.450606E-05
276.4077,-8.449569E-05
276.5077,-8.443636E-05
276.6077,-8.443448E-05
276.7077,-8.43695E-05
276.8077,-8.434408E-05
276.9077,-8.432524E-05
277.0077,-8.431394E-05
277.1077,-8.426498E-05
277.2077,-8.421788E-05
277.3077,-8.419999E-05
277.4077,-8.415102E-05
277.5077,-8.413972E-05
277.6077,-8.412465E-05
277.7077,-8.40625E-05
277.8077,-8.403613E-05
277.9077,-8.404931E-05
278.0078,-8.397868E-05
278.1078,-8.392124E-05
278.2078,-8.391653E-05
278.3078,-8.387697E-05
278.4078,-8.382141E-05
278.5078,-8.381576E-05
278.6078,-8.38007E-05
278.7078,-8.374231E-05
278.8078,-8.369805E-05
278.9078,-8.369146E-05
279.0078,-8.363212E-05
279.1078,-8.359351E-05
279.2078,-8.358881E-05
279.3078,-8.355679E-05
279.4078,-8.350782E-05
279.5078,-8.348898E-05
279.6078,-8.345508E-05
279.7079,-8.342212E-05
279.8079,-8.338163E-05
279.9079,-8.33675E-05
280.0079,-8.330252E-05
280.1079,-8.331288E-05
280.2079,-8.324884E-05
280.3079,-8.318858E-05
280.4079,-8.320928E-05
280.5079,-8.320269E-05
280.6079,-8.310758E-05
280.7079,-8.3117E-05
280.8079,-8.311606E-05
280.9079,-8.300588E-05
281.0079,-8.303225E-05
281.1079,-8.301152E-05
281.2079,-8.295784E-05
281.308,-8.292771E-05
281.408,-8.292583E-05
281.508,-8.285708E-05
281.608,-8.28034E-05
281.708,-8.282882E-05
281.808,-8.277797E-05
281.908,-8.271205E-05
282.008,-8.272053E-05
282.108,-8.270924E-05
282.208,-8.264143E-05
282.308,-8.262164E-05
282.408,-8.25821E-05
282.508,-8.255572E-05
282.608,-8.251618E-05
282.708,-8.254443E-05
282.808,-8.250205E-05
282.9081,-8.247662E-05
283.0081,-8.254725E-05
283.1081,-8.251712E-05
283.2081,-8.245025E-05
283.3081,-8.247191E-05
283.4081,-8.240882E-05
283.5081,-8.234572E-05
283.6081,-8.232501E-05
283.7081,-8.228828E-05
283.8081,-8.22506E-05
283.9081,-8.224966E-05
284.0081,-8.226756E-05
284.1081,-8.219316E-05
284.2081,-8.214608E-05
284.3081,-8.219222E-05
284.4081,-8.215925E-05
284.5081,-8.209616E-05
284.6082,-8.209616E-05
284.7082,-8.206791E-05
284.8082,-8.201895E-05
284.9082,-8.200387E-05
285.0082,-8.197374E-05
285.1082,-8.195961E-05
285.2082,-8.19954E-05
285.3082,-8.196244E-05
285.4082,-8.192195E-05
285.5082,-8.19389E-05
285.6082,-8.193983E-05
285.7082,-8.185414E-05
285.8082,-8.182777E-05
285.9082,-8.183625E-05
286.0082,-8.177409E-05
286.1082,-8.17336E-05
286.2083,-8.173077E-05
286.3083,-8.170158E-05
286.4083,-8.167521E-05
286.5083,-8.162624E-05
286.6083,-8.163E-05
286.7083,-8.161118E-05
286.8083,-8.157821E-05
286.9083,-8.153677E-05
287.0083,-8.150758E-05
287.1083,-8.149816E-05
287.2083,-8.143883E-05
287.3083,-8.140776E-05
287.4083,-8.138233E-05
287.5083,-8.137197E-05
287.6083,-8.130134E-05
287.7083,-8.12712E-05
287.8083,-8.124673E-05
287.9084,-8.121E-05
288.0084,-8.118551E-05
288.1084,-8.114031E-05
288.2084,-8.112618E-05
288.3084,-8.10838E-05
288.4084,-8.104519E-05
288.5084,-8.101788E-05
288.6084,-8.099999E-05
288.7084,-8.097174E-05
288.8084,-8.090958E-05
288.9084,-8.087944E-05
289.0084,-8.088416E-05
289.1084,-8.084836E-05
289.2084,-8.077679E-05
289.3084,-8.078433E-05
289.4084,-8.073253E-05
289.5085,-8.070146E-05
289.6085,-8.068262E-05
289.7085,-8.065249E-05
289.8085,-8.064495E-05
289.9085,-8.062705E-05
290.0085,-8.063555E-05
290.1085,-8.059599E-05
290.2085,-8.058092E-05
290.3085,-8.059692E-05
290.4085,-8.054796E-05
290.5085,-8.04971E-05
290.6085,-8.051217E-05
290.7085,-8.045002E-05
290.8085,-8.038221E-05
290.9085,-8.033795E-05
291.0085,-8.031535E-05
291.1086,-8.031252E-05
291.2086,-8.026732E-05
291.3086,-8.024284E-05
291.4086,-8.023342E-05
291.5086,-8.019575E-05
291.6086,-8.015997E-05
291.7086,-8.015338E-05
291.8086,-8.011287E-05
291.9086,-8.01044E-05
292.0086,-8.007615E-05
292.1086,-8.005449E-05
292.2086,-8.001494E-05
292.3086,-7.999798E-05
292.4086,-7.997538E-05
292.5086,-7.995372E-05
292.6086,-7.992452E-05
292.7086,-7.987556E-05
292.8087,-7.983601E-05
292.9087,-7.983036E-05
293.0087,-7.980399E-05
293.1087,-7.976632E-05
293.2087,-7.972112E-05
293.3087,-7.97051E-05
293.4087,-7.969098E-05
293.5087,-7.969381E-05
293.6087,-7.963259E-05
293.7087,-7.96213E-05
293.8087,-7.959775E-05
293.9087,-7.952335E-05
294.0087,-7.946684E-05
294.1087,-7.950829E-05
294.2087,-7.944613E-05
294.3087,-7.93868E-05
294.4088,-7.938303E-05
294.5088,-7.936891E-05
294.6088,-7.93369E-05
294.7088,-7.931806E-05
294.8088,-7.925873E-05
294.9088,-7.92446E-05
295.0088,-7.92041E-05
295.1088,-7.918715E-05
295.2088,-7.917773E-05
295.3088,-7.918998E-05
295.4088,-7.916644E-05
295.5088,-7.910146E-05
295.6088,-7.911087E-05
295.7088,-7.906943E-05
295.8088,-7.902141E-05
295.9088,-7.896584E-05
296.0089,-7.896396E-05
296.1089,-7.89197E-05
296.2089,-7.887168E-05
296.3089,-7.886038E-05
296.4089,-7.885661E-05
296.5089,-7.87954E-05
296.6089,-7.875772E-05
296.7089,-7.876902E-05
296.8089,-7.871158E-05
296.9089,-7.866733E-05
297.0089,-7.868239E-05
297.1089,-7.86466E-05
297.2089,-7.859575E-05
297.3089,-7.857221E-05
297.4089,-7.855055E-05
297.5089,-7.852418E-05
297.6089,-7.848367E-05
297.709,-7.845637E-05
297.809,-7.843283E-05
297.909,-7.842153E-05
298.009,-7.837068E-05
298.109,-7.834053E-05
298.209,-7.833394E-05
298.309,-7.828121E-05
298.409,-7.82313E-05
298.509,-7.823601E-05
298.609,-7.820305E-05
298.709,-7.818044E-05
298.809,-7.813054E-05
298.909,-7.809851E-05
299.009,-7.806178E-05
299.109,-7.804578E-05
299.209,-7.807403E-05
299.3091,-7.803447E-05
299.4091,-7.797138E-05
299.5091,-7.805237E-05
299.6091,-7.797232E-05
299.7091,-7.788663E-05
299.8091,-7.79356E-05
299.9091,-7.789792E-05
300.0091,-7.782447E-05
300.1091,-7.786308E-05
300.2091,-7.788192E-05
300.3091,-7.781223E-05
300.4091,-7.783389E-05
300.5091,-7.79177E-05
300.6091,-7.788568E-05
300.7091,-7.783859E-05
300.8091,-7.784613E-05
300.9091,-7.78094E-05
301.0092,-7.775667E-05
301.1092,-7.773501E-05
301.2092,-7.771241E-05
301.3092,-7.770958E-05
301.4092,-7.767285E-05
301.5092,-7.764742E-05
301.6092,-7.766155E-05
301.7092,-7.764554E-05
301.8092,-7.76154E-05
301.9092,-7.760034E-05
302.0092,-7.758338E-05
302.1092,-7.755795E-05
302.2092,-7.752218E-05
302.3092,-7.749863E-05
302.4092,-7.750428E-05
302.5092,-7.746002E-05
302.6093,-7.743177E-05
302.7093,-7.741481E-05
302.8093,-7.739033E-05
302.9093,-7.73197E-05
303.0093,-7.731123E-05
303.1093,-7.731123E-05
303.2093,-7.723778E-05
303.3093,-7.720858E-05
303.4093,-7.722176E-05
303.5093,-7.716902E-05
303.6093,-7.712006E-05
303.7093,-7.712006E-05
303.8093,-7.712382E-05
303.9093,-7.704848E-05
304.0093,-7.702777E-05
304.1093,-7.702588E-05
304.2094,-7.696656E-05
304.3094,-7.700611E-05
304.4094,-7.696656E-05
304.5094,-7.691476E-05
304.6094,-7.692136E-05
304.7094,-7.688274E-05
304.8094,-7.683E-05
304.9094,-7.679421E-05
305.0094,-7.675184E-05
305.1094,-7.671981E-05
305.2094,-7.667556E-05
305.3094,-7.668121E-05
305.4094,-7.666426E-05
305.5094,-7.658516E-05
305.6094,-7.657574E-05
305.7094,-7.655313E-05
305.8094,-7.652582E-05
305.9095,-7.649098E-05
306.0095,-7.645708E-05
306.1095,-7.645237E-05
306.2095,-7.645708E-05
306.3095,-7.639398E-05
306.4095,-7.634878E-05
306.5095,-7.633277E-05
306.6095,-7.629698E-05
306.7095,-7.624424E-05
306.8095,-7.623765E-05
306.9095,-7.623483E-05
307.0095,-7.618774E-05
307.1095,-7.612558E-05
307.2095,-7.614159E-05
307.3095,-7.610487E-05
307.4095,-7.602199E-05
307.5096,-7.602011E-05
307.6096,-7.601164E-05
307.7096,-7.594289E-05
307.8096,-7.590993E-05
307.9096,-7.591558E-05
308.0096,-7.588168E-05
308.1096,-7.583177E-05
308.2096,-7.583553E-05
308.3096,-7.58054E-05
308.4096,-7.57875E-05
308.5096,-7.579786E-05
308.6096,-7.578279E-05
308.7096,-7.571216E-05
308.8096,-7.573288E-05
308.9096,-7.569522E-05
309.0096,-7.563495E-05
309.1096,-7.571216E-05
309.2097,-7.566225E-05
309.3097,-7.552571E-05
309.4097,-7.55888E-05
309.5097,-7.553606E-05
309.6097,-7.542964E-05
309.7097,-7.542117E-05
309.8097,-7.539198E-05
309.9097,-7.535808E-05
310.0097,-7.531475E-05
310.1097,-7.530816E-05
310.2097,-7.527991E-05
310.3097,-7.524319E-05
310.4097,-7.525542E-05
310.5097,-7.523847E-05
310.6097,-7.521305E-05
310.7097,-7.522529E-05
310.8098,-7.521964E-05
310.9098,-7.516125E-05
311.0098,-7.516596E-05
311.1098,-7.511793E-05
311.2098,-7.50586E-05
311.3098,-7.505013E-05
311.4098,-7.498798E-05
311.5098,-7.497102E-05
311.6098,-7.498515E-05
311.7098,-7.494277E-05
311.8098,-7.488344E-05
311.9098,-7.487968E-05
312.0098,-7.488156E-05
312.1098,-7.485707E-05
312.2098,-7.480716E-05
312.3098,-7.482129E-05
312.4099,-7.482035E-05
312.5099,-7.476479E-05
312.6099,-7.473842E-05
312.7099,-7.47356E-05
312.8099,-7.469791E-05
312.9099,-7.46659E-05
313.0099,-7.464895E-05
313.1099,-7.460939E-05
313.2099,-7.461787E-05
313.3099,-7.456514E-05
313.4099,-7.451617E-05
313.5099,-7.453217E-05
313.6099,-7.450581E-05
313.7099,-7.443989E-05
313.8099,-7.442105E-05
313.9099,-7.439375E-05
314.0099,-7.43589E-05
314.11,-7.430428E-05
314.21,-7.431464E-05
314.31,-7.428733E-05
314.41,-7.422328E-05
314.51,-7.42167E-05
314.61,-7.419315E-05
314.71,-7.412441E-05
314.81,-7.412065E-05
314.91,-7.410745E-05
315.01,-7.406603E-05
315.11,-7.402552E-05
315.21,-7.40293E-05
315.31,-7.398221E-05
315.41,-7.394831E-05
315.51,-7.388709E-05
315.61,-7.385601E-05
315.7101,-7.382682E-05
315.8101,-7.380799E-05
315.9101,-7.376749E-05
316.0101,-7.374677E-05
316.1101,-7.371852E-05
316.2101,-7.369403E-05
316.3101,-7.364507E-05
316.4101,-7.36526E-05
316.5101,-7.358762E-05
316.6101,-7.352547E-05
316.7101,-7.355655E-05
316.8101,-7.352735E-05
316.9101,-7.346331E-05
317.0101,-7.345954E-05
317.1101,-7.345201E-05
317.2101,-7.341152E-05
317.3102,-7.344825E-05
317.4102,-7.346425E-05
317.5102,-7.339551E-05
317.6102,-7.339268E-05
317.7102,-7.34247E-05
317.8102,-7.335407E-05
317.9102,-7.333618E-05
318.0102,-7.331828E-05
318.1102,-7.329851E-05
318.2102,-7.327685E-05
318.3102,-7.327685E-05
318.4102,-7.322599E-05
318.5102,-7.319586E-05
318.6102,-7.317326E-05
318.7102,-7.311581E-05
318.8102,-7.31177E-05
318.9102,-7.309321E-05
319.0103,-7.306119E-05
319.1103,-7.305366E-05
319.2103,-7.303859E-05
319.3103,-7.299998E-05
319.4103,-7.297267E-05
319.5103,-7.295572E-05
319.6103,-7.294913E-05
319.7103,-7.290392E-05
319.8103,-7.290958E-05
319.9103,-7.288697E-05
320.0103,-7.284083E-05
320.1103,-7.280692E-05
320.2103,-7.283894E-05
320.3103,-7.275701E-05
320.4103,-7.273159E-05
320.5103,-7.270993E-05
320.6104,-7.270804E-05
320.7104,-7.263271E-05
320.8104,-7.258562E-05
320.9104,-7.261293E-05
321.0104,-7.255642E-05
321.1104,-7.252159E-05
321.2104,-7.251687E-05
321.3104,-7.246602E-05
321.4104,-7.243024E-05
321.5104,-7.241893E-05
321.6104,-7.238409E-05
321.7104,-7.236526E-05
321.8104,-7.237656E-05
321.9104,-7.231723E-05
322.0104,-7.228238E-05
322.1104,-7.231627E-05
322.2104,-7.224471E-05
322.3105,-7.216937E-05
322.4105,-7.219009E-05
322.5105,-7.217032E-05
322.6105,-7.209968E-05
322.7105,-7.207897E-05
322.8105,-7.206955E-05
322.9105,-7.203376E-05
323.0105,-7.198856E-05
323.1105,-7.19603E-05
323.2105,-7.194901E-05
323.3105,-7.191887E-05
323.4105,-7.190098E-05
323.5105,-7.187932E-05
323.6105,-7.185578E-05
323.7105,-7.183035E-05
323.8105,-7.181246E-05
323.9106,-7.178137E-05
324.0106,-7.175406E-05
324.1106,-7.173147E-05
324.2106,-7.169379E-05
324.3106,-7.169379E-05
324.4106,-7.163258E-05
324.5106,-7.159963E-05
324.6106,-7.157138E-05
324.7106,-7.155442E-05
324.8106,-7.151016E-05
324.9106,-7.148096E-05
325.0106,-7.149697E-05
325.1106,-7.145177E-05
325.2106,-7.139339E-05
325.3106,-7.1432E-05
325.4106,-7.137832E-05
325.5107,-7.130675E-05
325.6107,-7.131334E-05
325.7107,-7.128979E-05
325.8107,-7.124553E-05
325.9107,-7.120315E-05
326.0107,-7.119091E-05
326.1107,-7.116171E-05
326.2107,-7.116266E-05
326.3107,-7.112876E-05
326.4107,-7.105908E-05
326.5107,-7.105342E-05
326.6107,-7.103929E-05
326.7107,-7.101669E-05
326.8107,-7.095171E-05
326.9107,-7.093664E-05
327.0107,-7.088861E-05
327.1107,-7.086978E-05
327.2108,-7.084718E-05
327.3108,-7.082458E-05
327.4108,-7.078597E-05
327.5108,-7.078127E-05
327.6108,-7.073794E-05
327.7108,-7.070498E-05
327.8108,-7.069275E-05
327.9108,-7.065978E-05
328.0108,-7.059291E-05
328.1108,-7.063529E-05
328.2108,-7.060233E-05
328.3108,-7.052888E-05
328.4108,-7.049874E-05
328.5108,-7.050345E-05
328.6108,-7.04639E-05
328.7108,-7.042434E-05
328.8109,-7.039515E-05
328.9109,-7.038385E-05
329.0109,-7.038856E-05
329.1109,-7.036125E-05
329.2109,-7.030193E-05
329.3109,-7.028309E-05
329.4109,-7.027555E-05
329.5109,-7.023977E-05
329.6109,-7.023599E-05
329.7109,-7.026237E-05
329.8109,-7.017196E-05
329.9109,-7.018043E-05
330.0109,-7.018985E-05
330.1109,-7.01117E-05
330.2109,-7.005048E-05
330.3109,-7.007967E-05
330.4109,-7.000339E-05
330.511,-6.995066E-05
330.611,-6.995913E-05
330.711,-6.993182E-05
330.811,-6.986307E-05
330.911,-6.983765E-05
331.011,-6.984801E-05
331.111,-6.981316E-05
331.211,-6.974065E-05
331.311,-6.976042E-05
331.411,-6.974818E-05
331.511,-6.968791E-05
331.611,-6.967661E-05
331.711,-6.966813E-05
331.811,-6.964365E-05
331.911,-6.96088E-05
332.011,-6.961163E-05
332.1111,-6.957679E-05
332.2111,-6.954665E-05
332.3111,-6.952499E-05
332.4111,-6.955324E-05
332.5111,-6.950333E-05
332.6111,-6.944494E-05
332.7111,-6.944118E-05
332.8111,-6.941198E-05
332.9111,-6.938185E-05
333.0111,-6.934324E-05
333.1111,-6.932722E-05
333.2111,-6.930556E-05
333.3111,-6.927638E-05
333.4111,-6.923211E-05
333.5111,-6.925094E-05
333.6111,-6.920481E-05
333.7112,-6.916525E-05
333.8112,-6.918973E-05
333.9112,-6.919256E-05
334.0112,-6.911911E-05
334.1112,-6.910309E-05
334.2112,-6.909745E-05
334.3112,-6.903341E-05
334.4112,-6.903906E-05
334.5112,-6.90061E-05
334.6112,-6.897973E-05
334.7112,-6.895525E-05
334.8112,-6.894488E-05
334.9112,-6.891003E-05
335.0112,-6.888837E-05
335.1112,-6.886012E-05
335.2112,-6.883565E-05
335.3112,-6.881305E-05
335.4113,-6.88234E-05
335.5113,-6.878762E-05
335.6113,-6.876125E-05
335.7113,-6.875749E-05
335.8113,-6.875466E-05
335.9113,-6.869721E-05
336.0113,-6.872923E-05
336.1113,-6.868967E-05
336.2113,-6.865859E-05
336.3113,-6.863693E-05
336.4113,-6.861716E-05
336.5113,-6.858138E-05
336.6113,-6.855783E-05
336.7113,-6.850698E-05
336.8113,-6.850698E-05
336.9113,-6.847779E-05
337.0114,-6.844106E-05
337.1114,-6.841469E-05
337.2114,-6.835724E-05
337.3114,-6.838833E-05
337.4114,-6.834029E-05
337.5114,-6.830828E-05
337.6114,-6.831768E-05
337.7114,-6.830733E-05
337.8114,-6.826589E-05
337.9114,-6.826025E-05
338.0114,-6.823952E-05
338.1114,-6.818303E-05
338.2114,-6.81981E-05
338.3114,-6.816137E-05
338.4114,-6.811239E-05
338.5114,-6.811428E-05
338.6115,-6.809921E-05
338.7115,-6.806154E-05
338.8115,-6.802387E-05
338.9115,-6.801445E-05
339.0115,-6.799468E-05
339.1115,-6.795324E-05
339.2115,-6.794006E-05
339.3115,-6.792687E-05
339.4115,-6.791275E-05
339.5115,-6.789956E-05
339.6115,-6.785813E-05
339.7115,-6.782046E-05
339.8115,-6.784494E-05
339.9115,-6.781292E-05
340.0115,-6.774795E-05
340.1115,-6.776677E-05
340.2115,-6.774606E-05
340.3116,-6.766507E-05
340.4116,-6.764529E-05
340.5116,-6.765094E-05
340.6116,-6.762269E-05
340.7116,-6.756524E-05
340.8116,-6.75869E-05
340.9116,-6.756243E-05
341.0116,-6.751628E-05
341.1116,-6.752476E-05
341.2116,-6.749838E-05
341.3116,-6.743152E-05
341.4116,-6.742587E-05
341.5116,-6.740892E-05
341.6116,-6.738256E-05
341.7116,-6.734017E-05
341.8116,-6.734865E-05
341.9117,-6.732511E-05
342.0117,-6.727708E-05
342.1117,-6.72978E-05
342.2117,-6.728461E-05
342.3117,-6.719609E-05
342.4117,-6.718667E-05
342.5117,-6.719609E-05
342.6117,-6.71669E-05
342.7117,-6.715089E-05
342.8117,-6.712734E-05
342.9117,-6.711793E-05
343.0117,-6.705953E-05
343.1117,-6.703505E-05
343.2117,-6.699644E-05
343.3117,-6.702375E-05
343.4117,-6.697007E-05
343.5117,-6.691639E-05
343.6118,-6.696819E-05
343.7118,-6.698044E-05
343.8118,-6.690132E-05
343.9118,-6.689756E-05
344.0118,-6.689473E-05
344.1118,-6.687026E-05
344.2118,-6.682505E-05
344.3118,-6.6842E-05
344.4118,-6.682787E-05
344.5118,-6.676289E-05
344.6118,-6.676948E-05
344.7118,-6.673652E-05
344.8118,-6.669603E-05
344.9118,-6.670733E-05
345.0118,-6.665554E-05
345.1118,-6.65915E-05
345.2119,-6.661033E-05
345.3119,-6.657549E-05
345.4119,-6.654535E-05
345.5119,-6.655194E-05
345.6119,-6.653218E-05
345.7119,-6.650393E-05
345.8119,-6.646813E-05
345.9119,-6.648132E-05
346.0119,-6.643141E-05
346.1119,-6.640503E-05
346.2119,-6.64041E-05
346.3119,-6.639562E-05
346.4119,-6.634853E-05
346.5119,-6.636831E-05
346.6119,-6.634194E-05
346.7119,-6.630333E-05
346.812,-6.630333E-05
346.912,-6.628826E-05
347.012,-6.62374E-05
347.112,-6.620916E-05
347.212,-6.619408E-05
347.312,-6.617337E-05
347.412,-6.618467E-05
347.512,-6.612817E-05
347.612,-6.610462E-05
347.712,-6.609521E-05
347.812,-6.607355E-05
347.912,-6.603965E-05
348.012,-6.605565E-05
348.112,-6.603306E-05
348.212,-6.597467E-05
348.312,-6.59643E-05
348.412,-6.597373E-05
348.5121,-6.592381E-05
348.6121,-6.588897E-05
348.7121,-6.590403E-05
348.8121,-6.589462E-05
348.9121,-6.585224E-05
349.0121,-6.582493E-05
349.1121,-6.582493E-05
349.2121,-6.581269E-05
349.3121,-6.581175E-05
349.4121,-6.576371E-05
349.5121,-6.574959E-05
349.6121,-6.576654E-05
349.7121,-6.568273E-05
349.8121,-6.565636E-05
349.9121,-6.565259E-05
350.0121,-6.563282E-05
350.1122,-6.55716E-05
350.2122,-6.55716E-05
350.3122,-6.557442E-05
350.4122,-6.55198E-05
350.5122,-6.548308E-05
350.6122,-6.551792E-05
350.7122,-6.54633E-05
350.8122,-6.542374E-05
350.9122,-6.543034E-05
351.0122,-6.542093E-05
351.1122,-6.53842E-05
351.2122,-6.532863E-05
351.3122,-6.53437E-05
351.4122,-6.532487E-05
351.5122,-6.530133E-05
351.6122,-6.528344E-05
351.7122,-6.5242E-05
351.8123,-6.52354E-05
351.9123,-6.521186E-05
352.0123,-6.515253E-05
352.1123,-6.515253E-05
352.2123,-6.514876E-05
352.3123,-6.512333E-05
352.4123,-6.508473E-05
352.5123,-6.511204E-05
352.6123,-6.511204E-05
352.7123,-6.505271E-05
352.8123,-6.505082E-05
352.9123,-6.502916E-05
353.0123,-6.498773E-05
353.1123,-6.497643E-05
353.2123,-6.494159E-05
353.3123,-6.493594E-05
353.4124,-6.489638E-05
353.5124,-6.485777E-05
353.6124,-6.485872E-05
353.7124,-6.483422E-05
353.8124,-6.47975E-05
353.9124,-6.47796E-05
354.0124,-6.474947E-05
354.1124,-6.475324E-05
354.2124,-6.471934E-05
354.3124,-6.469108E-05
354.4124,-6.467979E-05
354.5124,-6.464305E-05
354.6124,-6.463834E-05
354.7124,-6.462705E-05
354.8124,-6.458654E-05
354.9124,-6.455641E-05
355.0125,-6.458937E-05
355.1125,-6.452628E-05
355.2125,-6.449615E-05
355.3125,-6.451216E-05
355.4125,-6.447731E-05
355.5125,-6.442363E-05
355.6125,-6.441139E-05
355.7125,-6.442646E-05
355.8125,-6.436901E-05
355.9125,-6.437278E-05
356.0125,-6.436901E-05
356.1125,-6.433134E-05
356.2125,-6.430214E-05
356.3125,-6.430403E-05
356.4125,-6.42965E-05
356.5125,-6.425412E-05
356.6125,-6.424564E-05
356.7126,-6.420704E-05
356.8126,-6.418255E-05
356.9126,-6.422492E-05
357.0126,-6.414676E-05
357.1126,-6.413546E-05
357.2126,-6.415053E-05
357.3126,-6.413169E-05
357.4126,-6.408933E-05
357.5126,-6.406389E-05
357.6126,-6.407048E-05
357.7126,-6.403092E-05
357.8126,-6.398385E-05
357.9126,-6.396972E-05
358.0126,-6.399138E-05
358.1126,-6.39424E-05
358.2126,-6.392452E-05
358.3127,-6.387461E-05
358.4127,-6.388496E-05
358.5127,-6.387271E-05
358.6127,-6.382845E-05
358.7127,-6.379362E-05
358.8127,-6.382563E-05
358.9127,-6.382563E-05
359.0127,-6.376348E-05
359.1127,-6.374087E-05
359.2127,-6.375971E-05
359.3127,-6.370603E-05
359.4127,-6.36533E-05
359.5127,-6.364389E-05
359.6127,-6.3658E-05
359.7127,-6.361375E-05
359.8127,-6.359397E-05
359.9128,-6.357701E-05
360.0128,-6.356289E-05
360.1128,-6.35563E-05
360.2128,-6.351957E-05
360.3128,-6.345742E-05
360.4128,-6.351015E-05
360.5128,-6.347342E-05
360.6128,-6.343481E-05
360.7128,-6.342728E-05
360.8128,-6.342446E-05
360.9128,-6.338961E-05
361.0128,-6.336701E-05
361.1128,-6.334346E-05
361.2128,-6.331615E-05
361.3128,-6.332558E-05
361.4128,-6.332745E-05
361.5128,-6.325023E-05
361.6129,-6.323517E-05
361.7129,-6.32427E-05
361.8129,-6.321633E-05
361.9129,-6.318431E-05
362.0129,-6.316548E-05
362.1129,-6.315229E-05
362.2129,-6.311369E-05
362.3129,-6.310897E-05
362.4129,-6.310238E-05
362.5129,-6.309767E-05
362.6129,-6.307884E-05
362.7129,-6.304305E-05
362.8129,-6.302234E-05
362.9129,-6.299408E-05
363.0129,-6.296583E-05
363.1129,-6.293852E-05
363.213,-6.295829E-05
363.313,-6.289991E-05
363.413,-6.286224E-05
363.513,-6.287637E-05
363.613,-6.283964E-05
363.713,-6.280856E-05
363.813,-6.279443E-05
363.913,-6.277372E-05
364.013,-6.273417E-05
364.113,-6.271251E-05
364.213,-6.273417E-05
364.313,-6.268802E-05
364.413,-6.264847E-05
364.513,-6.271062E-05
364.613,-6.267389E-05
364.713,-6.262209E-05
364.813,-6.272193E-05
364.9131,-6.267201E-05
365.0131,-6.262022E-05
365.1131,-6.266919E-05
365.2131,-6.263152E-05
365.3131,-6.256936E-05
365.4131,-6.255053E-05
365.5131,-6.253452E-05
365.6131,-6.250344E-05
365.7131,-6.245447E-05
365.8131,-6.243376E-05
365.9131,-6.242622E-05
366.0131,-6.236971E-05
366.1131,-6.235654E-05
366.2131,-6.235277E-05
366.3131,-6.231038E-05
366.4131,-6.231415E-05
366.5132,-6.228872E-05
366.6132,-6.224918E-05
366.7132,-6.2252E-05
366.8132,-6.222846E-05
366.9132,-6.220397E-05
367.0132,-6.218231E-05
367.1132,-6.216724E-05
367.2132,-6.216442E-05
367.3132,-6.211074E-05
367.4132,-6.210792E-05
367.5132,-6.212863E-05
367.6132,-6.208626E-05
367.7132,-6.208249E-05
367.8132,-6.205047E-05
367.9132,-6.204482E-05
368.0132,-6.203634E-05
368.1133,-6.200715E-05
368.2133,-6.195724E-05
368.3133,-6.199962E-05
368.4133,-6.193934E-05
368.5133,-6.190733E-05
368.6133,-6.191956E-05
368.7133,-6.191298E-05
368.8133,-6.18367E-05
368.9133,-6.186307E-05
369.0133,-6.185364E-05
369.1133,-6.182728E-05
369.2133,-6.180938E-05
369.3133,-6.180091E-05
369.4133,-6.176983E-05
369.5133,-6.175759E-05
369.6133,-6.174064E-05
369.7133,-6.171333E-05
369.8134,-6.168979E-05
369.9134,-6.168414E-05
370.0134,-6.167189E-05
370.1134,-6.162104E-05
370.2134,-6.164458E-05
370.3134,-6.163705E-05
370.4134,-6.156265E-05
370.5134,-6.158431E-05
370.6134,-6.156359E-05
370.7134,-6.152028E-05
370.8134,-6.150332E-05
370.9134,-6.150238E-05
371.0134,-6.148637E-05
371.1134,-6.145812E-05
371.2134,-6.144494E-05
371.3134,-6.143458E-05
371.4135,-6.137525E-05
371.5135,-6.138184E-05
371.6135,-6.138749E-05
371.7135,-6.134605E-05
371.8135,-6.132534E-05
371.9135,-6.131215E-05
372.0135,-6.128108E-05
372.1135,-6.126035E-05
372.2135,-6.126506E-05
372.3135,-6.121798E-05
372.4135,-6.121139E-05
372.5135,-6.120573E-05
372.6135,-6.117749E-05
372.7135,-6.117749E-05
372.8135,-6.12208E-05
372.9135,-6.117277E-05
373.0135,-6.113228E-05
373.1136,-6.113228E-05
373.2136,-6.109555E-05
373.3136,-6.105412E-05
373.4136,-6.105695E-05
373.5136,-6.103246E-05
373.6136,-6.100609E-05
373.7136,-6.10108E-05
373.8136,-6.099197E-05
373.9136,-6.095618E-05
374.0136,-6.091192E-05
374.1136,-6.095618E-05
374.2136,-6.088272E-05
374.3136,-6.087613E-05
374.4136,-6.088743E-05
374.5136,-6.086106E-05
374.6136,-6.08281E-05
374.7137,-6.082904E-05
374.8137,-6.078196E-05
374.9137,-6.078478E-05
375.0137,-6.078761E-05
375.1137,-6.075371E-05
375.2137,-6.069343E-05
375.3137,-6.07716E-05
375.4137,-6.071698E-05
375.5137,-6.065388E-05
375.6137,-6.069061E-05
375.7137,-6.066707E-05
375.8137,-6.059549E-05
375.9137,-6.058702E-05
376.0137,-6.060209E-05
376.1137,-6.055877E-05
376.2137,-6.056065E-05
376.3138,-6.054464E-05
376.4138,-6.052016E-05
376.5138,-6.051639E-05
376.6138,-6.050885E-05
376.7138,-6.046742E-05
376.8138,-6.045329E-05
376.9138,-6.04806E-05
377.0138,-6.046836E-05
377.1138,-6.040715E-05
377.2138,-6.043351E-05
377.3138,-6.04015E-05
377.4138,-6.033464E-05
377.5138,-6.038455E-05
377.6138,-6.032333E-05
377.7138,-6.027342E-05
377.8138,-6.028472E-05
377.9138,-6.028755E-05
378.0139,-6.021127E-05
378.1139,-6.020939E-05
378.2139,-6.023387E-05
378.3139,-6.015194E-05
378.4139,-6.011897E-05
378.5139,-6.019054E-05
378.6139,-6.015571E-05
378.7139,-6.009732E-05
378.8139,-6.012934E-05
378.9139,-6.014158E-05
379.0139,-6.007283E-05
379.1139,-6.008978E-05
379.2139,-6.011803E-05
379.3139,-6.003046E-05
379.4139,-6.001256E-05
379.5139,-5.99862E-05
379.614,-5.99683E-05
379.714,-5.995324E-05
379.814,-5.995041E-05
379.914,-5.993722E-05
380.014,-5.989014E-05
380.114,-5.993251E-05
380.214,-5.988731E-05
380.314,-5.986188E-05
380.414,-5.988166E-05
380.514,-5.986847E-05
380.614,-5.97969E-05
380.714,-5.981668E-05
380.814,-5.981292E-05
380.914,-5.975547E-05
381.014,-5.975547E-05
381.114,-5.976112E-05
381.2141,-5.97357E-05
381.3141,-5.974135E-05
381.4141,-5.973852E-05
381.5141,-5.967919E-05
381.6141,-5.96434E-05
381.7141,-5.964435E-05
381.8141,-5.961515E-05
381.9141,-5.963775E-05
382.0141,-5.962174E-05
382.1141,-5.957843E-05
382.2141,-5.956336E-05
382.3141,-5.958784E-05
382.4141,-5.954735E-05
382.5141,-5.952286E-05
382.6141,-5.955205E-05
382.7141,-5.950497E-05
382.8141,-5.94626E-05
382.9142,-5.948143E-05
383.0142,-5.945223E-05
383.1142,-5.942022E-05
383.2142,-5.93995E-05
383.3142,-5.941739E-05
383.4142,-5.93816E-05
383.5142,-5.932886E-05
383.6142,-5.93703E-05
383.7142,-5.933828E-05
383.8142,-5.928178E-05
383.9142,-5.92846E-05
384.0142,-5.930815E-05
384.1142,-5.924693E-05
384.2142,-5.923281E-05
384.3142,-5.922339E-05
384.4142,-5.921303E-05
384.5143,-5.919891E-05
384.6143,-5.922057E-05
384.7143,-5.918666E-05
384.8143,-5.913487E-05
384.9143,-5.91424E-05
385.0143,-5.914335E-05
385.1143,-5.913675E-05
385.2143,-5.919796E-05
385.3143,-5.917913E-05
385.4143,-5.915464E-05
385.5143,-5.918384E-05
385.6143,-5.914617E-05
385.7143,-5.908966E-05
385.8143,-5.912262E-05
385.9143,-5.905293E-05
386.0143,-5.902186E-05
386.1143,-5.903599E-05
386.2144,-5.903505E-05
386.3144,-5.895971E-05
386.4144,-5.894652E-05
386.5144,-5.89776E-05
386.6144,-5.895123E-05
386.7144,-5.891733E-05
386.8144,-5.891073E-05
386.9144,-5.889285E-05
387.0144,-5.88693E-05
387.1144,-5.884859E-05
387.2144,-5.882504E-05
387.3144,-5.880338E-05
387.4144,-5.883916E-05
387.5144,-5.87949E-05
387.6144,-5.875817E-05
387.7144,-5.877607E-05
387.8145,-5.875159E-05
387.9145,-5.873934E-05
388.0145,-5.871391E-05
388.1145,-5.869037E-05
388.2145,-5.868001E-05
388.3145,-5.869508E-05
388.4145,-5.866777E-05
388.5145,-5.862822E-05
388.6145,-5.863292E-05
388.7145,-5.864234E-05
388.8145,-5.860938E-05
388.9145,-5.857737E-05
389.0145,-5.858019E-05
389.1145,-5.854723E-05
389.2145,-5.854911E-05
389.3145,-5.853499E-05
389.4146,-5.850202E-05
389.5146,-5.848225E-05
389.6146,-5.849637E-05
389.7146,-5.847283E-05
389.8146,-5.844082E-05
389.9146,-5.848413E-05
390.0146,-5.844458E-05
390.1146,-5.841162E-05
390.2146,-5.84766E-05
390.3146,-5.842292E-05
390.4146,-5.839373E-05
390.5146,-5.843139E-05
390.6146,-5.841444E-05
390.7146,-5.834099E-05
390.8146,-5.833628E-05
390.9146,-5.833157E-05
391.0146,-5.830897E-05
391.1147,-5.827224E-05
391.2147,-5.82826E-05
391.3147,-5.824117E-05
391.4147,-5.820726E-05
391.5147,-5.820067E-05
391.6147,-5.819973E-05
391.7147,-5.817336E-05
391.8147,-5.817807E-05
391.9147,-5.813851E-05
392.0147,-5.813851E-05
392.1147,-5.812439E-05
392.2147,-5.810932E-05
392.3147,-5.809425E-05
392.4147,-5.808107E-05
392.5147,-5.807636E-05
392.6147,-5.804905E-05
392.7148,-5.807166E-05
392.8148,-5.806506E-05
392.9148,-5.805847E-05
393.0148,-5.802551E-05
393.1148,-5.801233E-05
393.2148,-5.799914E-05
393.3148,-5.800573E-05
393.4148,-5.798596E-05
393.5148,-5.79464E-05
393.6148,-5.795582E-05
393.7148,-5.793605E-05
393.8148,-5.788707E-05
393.9148,-5.787578E-05
394.0148,-5.787483E-05
394.1148,-5.784752E-05
394.2148,-5.781079E-05
394.3148,-5.780985E-05
394.4149,-5.778349E-05
394.5149,-5.774958E-05
394.6149,-5.774487E-05
394.7149,-5.776277E-05
394.8149,-5.77185E-05
394.9149,-5.769967E-05
395.0149,-5.768931E-05
395.1149,-5.766577E-05
395.2149,-5.767518E-05
395.3149,-5.765541E-05
395.4149,-5.763752E-05
395.5149,-5.759514E-05
395.6149,-5.761021E-05
395.7149,-5.758007E-05
395.8149,-5.754334E-05
395.9149,-5.752828E-05
396.015,-5.753298E-05
396.115,-5.750191E-05
396.215,-5.750097E-05
396.315,-5.751697E-05
396.415,-5.748024E-05
396.515,-5.748307E-05
396.615,-5.75537E-05
396.715,-5.751132E-05
396.815,-5.746047E-05
396.915,-5.750191E-05
397.015,-5.745293E-05
397.115,-5.740962E-05
397.215,-5.739926E-05
397.315,-5.737666E-05
397.415,-5.734087E-05
397.515,-5.72919E-05
397.6151,-5.729002E-05
397.7151,-5.72806E-05
397.8151,-5.726176E-05
397.9151,-5.72354E-05
398.0151,-5.722315E-05
398.1151,-5.720149E-05
398.2151,-5.722221E-05
398.3151,-5.720621E-05
398.4151,-5.716665E-05
398.5151,-5.719019E-05
398.6151,-5.716571E-05
398.7151,-5.710356E-05
398.8151,-5.712615E-05
398.9151,-5.711957E-05
399.0151,-5.707059E-05
399.1151,-5.705176E-05
399.2151,-5.705082E-05
399.3152,-5.701974E-05
399.4152,-5.699055E-05
399.5152,-5.697359E-05
399.6152,-5.696983E-05
399.7152,-5.694628E-05
399.8152,-5.693687E-05
399.9152,-5.690768E-05
400.0152,-5.688413E-05
400.1152,-5.689355E-05
400.2152,-5.686341E-05
400.3152,-5.681256E-05
400.4152,-5.682103E-05
400.5152,-5.683422E-05
400.6152,-5.678619E-05
400.7152,-5.67909E-05
400.8152,-5.677489E-05
400.9153,-5.676453E-05
401.0153,-5.67504E-05
401.1153,-5.672215E-05
401.2153,-5.671085E-05
401.3153,-5.672121E-05
401.4153,-5.665246E-05
401.5153,-5.666659E-05
401.6153,-5.666188E-05
401.7153,-5.664681E-05
401.8153,-5.661668E-05
401.9153,-5.665435E-05
402.0153,-5.668825E-05
402.1153,-5.663928E-05
402.2153,-5.663175E-05
402.3153,-5.669579E-05
402.4153,-5.661197E-05
402.5154,-5.657336E-05
402.6154,-5.656677E-05
402.7154,-5.652345E-05
402.8154,-5.646694E-05
402.9154,-5.647542E-05
403.0154,-5.644622E-05
403.1154,-5.642456E-05
403.2154,-5.641892E-05
403.3154,-5.640856E-05
403.4154,-5.637089E-05
403.5154,-5.637371E-05
403.6154,-5.63756E-05
403.7154,-5.636335E-05
403.8154,-5.631815E-05
403.9154,-5.639161E-05
404.0154,-5.632286E-05
404.1154,-5.626447E-05
404.2155,-5.633322E-05
404.3155,-5.628236E-05
404.4155,-5.624187E-05
404.5155,-5.62221E-05
404.6155,-5.621268E-05
404.7155,-5.618725E-05
404.8155,-5.615146E-05
404.9155,-5.616183E-05
405.0155,-5.614393E-05
405.1155,-5.612604E-05
405.2155,-5.612321E-05
405.3155,-5.608931E-05
405.4155,-5.608837E-05
405.5155,-5.609967E-05
405.6155,-5.607142E-05
405.7155,-5.602622E-05
405.8156,-5.607424E-05
405.9156,-5.603092E-05
406.0156,-5.5965E-05
406.1156,-5.598007E-05
406.2156,-5.594899E-05
406.3156,-5.592639E-05
406.4156,-5.591132E-05
406.5156,-5.592262E-05
406.6156,-5.590944E-05
406.7156,-5.586518E-05
406.8156,-5.58859E-05
406.9156,-5.585953E-05
407.0156,-5.58228E-05
407.1156,-5.583222E-05
407.2156,-5.585199E-05
407.3156,-5.581621E-05
407.4156,-5.579455E-05
407.5157,-5.578984E-05
407.6157,-5.57889E-05
407.7157,-5.575217E-05
407.8157,-5.57371E-05
407.9157,-5.570885E-05
408.0157,-5.570697E-05
408.1157,-5.569566E-05
408.2157,-5.564669E-05
408.3157,-5.564387E-05
408.4157,-5.565046E-05
408.5157,-5.561656E-05
408.6157,-5.560149E-05
408.7157,-5.556759E-05
408.8157,-5.55723E-05
408.9157,-5.557324E-05
409.0157,-5.55318E-05
409.1158,-5.551674E-05
409.2158,-5.551579E-05
409.3158,-5.551391E-05
409.4158,-5.551485E-05
409.5158,-5.548189E-05
409.6158,-5.548095E-05
409.7158,-5.545646E-05
409.8158,-5.540467E-05
409.9158,-5.545458E-05
410.0158,-5.538489E-05
410.1158,-5.538113E-05
410.2158,-5.537359E-05
410.3158,-5.537265E-05
410.4158,-5.533216E-05
410.5158,-5.53218E-05
410.6158,-5.533121E-05
410.7159,-5.532556E-05
410.8159,-5.526812E-05
410.9159,-5.529166E-05
411.0159,-5.528978E-05
411.1159,-5.522763E-05
411.2159,-5.52135E-05
411.3159,-5.522669E-05
411.4159,-5.518619E-05
411.5159,-5.516265E-05
411.6159,-5.516641E-05
411.7159,-5.517583E-05
411.8159,-5.510802E-05
411.9159,-5.511556E-05
412.0159,-5.51052E-05
412.1159,-5.507695E-05
412.2159,-5.507036E-05
412.3159,-5.507412E-05
412.416,-5.502798E-05
412.516,-5.502421E-05
412.616,-5.500914E-05
412.716,-5.498277E-05
412.816,-5.496959E-05
412.916,-5.494605E-05
413.016,-5.493757E-05
413.116,-5.495641E-05
413.216,-5.493851E-05
413.316,-5.490932E-05
413.416,-5.491779E-05
413.516,-5.489049E-05
413.616,-5.485941E-05
413.716,-5.482927E-05
413.816,-5.485847E-05
413.916,-5.480949E-05
414.0161,-5.476147E-05
414.1161,-5.480196E-05
414.2161,-5.479161E-05
414.3161,-5.472851E-05
414.4161,-5.474829E-05
414.5161,-5.472568E-05
414.6161,-5.467483E-05
414.7161,-5.466165E-05
414.8161,-5.466541E-05
414.9161,-5.463904E-05
415.0161,-5.462774E-05
415.1161,-5.460325E-05
415.2161,-5.457124E-05
415.3161,-5.45477E-05
415.4161,-5.45637E-05
415.5161,-5.453734E-05
415.6161,-5.451945E-05
415.7162,-5.451945E-05
415.8162,-5.449778E-05
415.9162,-5.44733E-05
416.0162,-5.447236E-05
416.1162,-5.449402E-05
416.2162,-5.446577E-05
416.3162,-5.451379E-05
416.4162,-5.446482E-05
416.5162,-5.443751E-05
416.6162,-5.448742E-05
416.7162,-5.445447E-05
416.8162,-5.438101E-05
416.9162,-5.439419E-05
417.0162,-5.438572E-05
417.1162,-5.435088E-05
417.2162,-5.435276E-05
417.3163,-5.435464E-05
417.4163,-5.432922E-05
417.5163,-5.431791E-05
417.6163,-5.434051E-05
417.7163,-5.432262E-05
417.8163,-5.426989E-05
417.9163,-5.428213E-05
418.0163,-5.423504E-05
418.1163,-5.420114E-05
418.2163,-5.420208E-05
418.3163,-5.420396E-05
418.4163,-5.416817E-05
418.5163,-5.416253E-05
418.6163,-5.417571E-05
418.7163,-5.416723E-05
418.8163,-5.417195E-05
418.9164,-5.415311E-05
419.0164,-5.41258E-05
419.1164,-5.410885E-05
419.2164,-5.411168E-05
419.3164,-5.408342E-05
419.4164,-5.405328E-05
419.5164,-5.405423E-05
419.6164,-5.402033E-05
419.7164,-5.399961E-05
419.8164,-5.399396E-05
419.9164,-5.398737E-05
420.0164,-5.394122E-05
420.1164,-5.391862E-05
420.2164,-5.393745E-05
420.3164,-5.38979E-05
420.4164,-5.387719E-05
420.5164,-5.392427E-05
420.6165,-5.387812E-05
420.7165,-5.382821E-05
420.8165,-5.385364E-05
420.9165,-5.384705E-05
421.0165,-5.379808E-05
421.1165,-5.379808E-05
421.2165,-5.380467E-05
421.3165,-5.376512E-05
421.4165,-5.375005E-05
421.5165,-5.374063E-05
421.6165,-5.371426E-05
421.7165,-5.369919E-05
421.8165,-5.371332E-05
421.9165,-5.367754E-05
422.0165,-5.365211E-05
422.1165,-5.366153E-05
422.2166,-5.365117E-05
422.3166,-5.360785E-05
422.4166,-5.361444E-05
422.5166,-5.361538E-05
422.6166,-5.358807E-05
422.7166,-5.360126E-05
422.8166,-5.360314E-05
422.9166,-5.355511E-05
423.0166,-5.355699E-05
423.1166,-5.356453E-05
423.2166,-5.353439E-05
423.3166,-5.352686E-05
423.4166,-5.346753E-05
423.5166,-5.349861E-05
423.6166,-5.347789E-05
423.7166,-5.344869E-05
423.8167,-5.342233E-05
423.9167,-5.342421E-05
424.0167,-5.342609E-05
424.1167,-5.340067E-05
424.2167,-5.3363E-05
424.3167,-5.336112E-05
424.4167,-5.335357E-05
424.5167,-5.332533E-05
424.6167,-5.333004E-05
424.7167,-5.335075E-05
424.8167,-5.329519E-05
424.9167,-5.327636E-05
425.0167,-5.327636E-05
425.1167,-5.326882E-05
425.2167,-5.323115E-05
425.3167,-5.322645E-05
425.4167,-5.323775E-05
425.5168,-5.318972E-05
425.6168,-5.318972E-05
425.7168,-5.320196E-05
425.8168,-5.316806E-05
425.9168,-5.313981E-05
426.0168,-5.314923E-05
426.1168,-5.312568E-05
426.2168,-5.311344E-05
426.3168,-5.309554E-05
426.4168,-5.308142E-05
426.5168,-5.310497E-05
426.6168,-5.308048E-05
426.7168,-5.306541E-05
426.8168,-5.303716E-05
426.9168,-5.303998E-05
427.0168,-5.301267E-05
427.1169,-5.300231E-05
427.2169,-5.304563E-05
427.3169,-5.303998E-05
427.4169,-5.29929E-05
427.5169,-5.3072E-05
427.6169,-5.303056E-05
427.7169,-5.295334E-05
427.8169,-5.298536E-05
427.9169,-5.294675E-05
428.0169,-5.290626E-05
428.1169,-5.28893E-05
428.2169,-5.28893E-05
428.3169,-5.286294E-05
428.4169,-5.280738E-05
428.5169,-5.283186E-05
428.6169,-5.284316E-05
428.7169,-5.277065E-05
428.817,-5.278477E-05
428.917,-5.278289E-05
429.017,-5.27424E-05
429.117,-5.271885E-05
429.217,-5.27085E-05
429.317,-5.268589E-05
429.417,-5.27019E-05
429.517,-5.2668E-05
429.617,-5.26341E-05
429.717,-5.263692E-05
429.817,-5.264351E-05
429.917,-5.259172E-05
430.017,-5.257194E-05
430.117,-5.261715E-05
430.217,-5.25484E-05
430.317,-5.253427E-05
430.4171,-5.256723E-05
430.5171,-5.252768E-05
430.6171,-5.249284E-05
430.7171,-5.250414E-05
430.8171,-5.251356E-05
430.9171,-5.2474E-05
431.0171,-5.246835E-05
431.1171,-5.247494E-05
431.2171,-5.2474E-05
431.3171,-5.247024E-05
431.4171,-5.244293E-05
431.5171,-5.24288E-05
431.6171,-5.243257E-05
431.7171,-5.237136E-05
431.8171,-5.238171E-05
431.9171,-5.23836E-05
432.0172,-5.234969E-05
432.1172,-5.232803E-05
432.2172,-5.232332E-05
432.3172,-5.231014E-05
432.4172,-5.226776E-05
432.5172,-5.226306E-05
432.6172,-5.225834E-05
432.7172,-5.222256E-05
432.8172,-5.21896E-05
432.9172,-5.224516E-05
433.0172,-5.219525E-05
433.1172,-5.213592E-05
433.2172,-5.215758E-05
433.3172,-5.216041E-05
433.4172,-5.212086E-05
433.5172,-5.212368E-05
433.6172,-5.210955E-05
433.7173,-5.209448E-05
433.8173,-5.205681E-05
433.9173,-5.205964E-05
434.0173,-5.203045E-05
434.1173,-5.204269E-05
434.2173,-5.203516E-05
434.3173,-5.202762E-05
434.4173,-5.201538E-05
434.5173,-5.20135E-05
434.6173,-5.199278E-05
434.7173,-5.197112E-05
434.8173,-5.198901E-05
434.9173,-5.193345E-05
435.0173,-5.190237E-05
435.1173,-5.190802E-05
435.2173,-5.188636E-05
435.3174,-5.185623E-05
435.4174,-5.185717E-05
435.5174,-5.185999E-05
435.6174,-5.181573E-05
435.7174,-5.181761E-05
435.8174,-5.179973E-05
435.9174,-5.178183E-05
436.0174,-5.17404E-05
436.1174,-5.176959E-05
436.2174,-5.17338E-05
436.3174,-5.167918E-05
436.4174,-5.171309E-05
436.5174,-5.171591E-05
436.6174,-5.166883E-05
436.7174,-5.16434E-05
436.8174,-5.166883E-05
436.9174,-5.163963E-05
437.0175,-5.159631E-05
437.1175,-5.161514E-05
437.2175,-5.16142E-05
437.3175,-5.157747E-05
437.4175,-5.160008E-05
437.5175,-5.161138E-05
437.6175,-5.1569E-05
437.7175,-5.164151E-05
437.8175,-5.160761E-05
437.9175,-5.158972E-05
438.0175,-5.160479E-05
438.1175,-5.158595E-05
438.2175,-5.152568E-05
438.3175,-5.152003E-05
438.4175,-5.153792E-05
438.5175,-5.150308E-05
438.6176,-5.143527E-05
438.7176,-5.147106E-05
438.8176,-5.147294E-05
438.9176,-5.143339E-05
439.0176,-5.141738E-05
439.1176,-5.143339E-05
439.2176,-5.139855E-05
439.3176,-5.135523E-05
439.4176,-5.136747E-05
439.5176,-5.134392E-05
439.6176,-5.130061E-05
439.7176,-5.130154E-05
439.8176,-5.130437E-05
439.9176,-5.127329E-05
440.0176,-5.12507E-05
440.1176,-5.125258E-05
440.2177,-5.121679E-05
440.3177,-5.123092E-05
440.4177,-5.120455E-05
440.5177,-5.119607E-05
440.6177,-5.118195E-05
440.7177,-5.115934E-05
440.8177,-5.115464E-05
440.9177,-5.112921E-05
441.0177,-5.111603E-05
441.1177,-5.112544E-05
441.2177,-5.110661E-05
441.3177,-5.107459E-05
441.4177,-5.106612E-05
441.5177,-5.107459E-05
441.6177,-5.107835E-05
441.7177,-5.10501E-05
441.8177,-5.109625E-05
441.9178,-5.110755E-05
442.0178,-5.106047E-05
442.1178,-5.105482E-05
442.2178,-5.105105E-05
442.3178,-5.099266E-05
442.4178,-5.096818E-05
442.5178,-5.096158E-05
442.6178,-5.096347E-05
442.7178,-5.091073E-05
442.8178,-5.089378E-05
442.9178,-5.092674E-05
443.0178,-5.090037E-05
443.1178,-5.082974E-05
443.2178,-5.088436E-05
443.3178,-5.085046E-05
443.4178,-5.08175E-05
443.5179,-5.081185E-05
443.6179,-5.081279E-05
443.7179,-5.076476E-05
443.8179,-5.076099E-05
443.9179,-5.076099E-05
444.0179,-5.075629E-05
444.1179,-5.071768E-05
444.2179,-5.071391E-05
444.3179,-5.070543E-05
444.4179,-5.068942E-05
444.5179,-5.066965E-05
444.6179,-5.068942E-05
444.7179,-5.067812E-05
444.8179,-5.06866E-05
444.9179,-5.064045E-05
445.0179,-5.06348E-05
445.118,-5.061408E-05
445.218,-5.061031E-05
445.318,-5.061314E-05
445.418,-5.059619E-05
445.518,-5.057265E-05
445.618,-5.059525E-05
445.718,-5.056323E-05
445.818,-5.05491E-05
445.918,-5.052556E-05
446.018,-5.054439E-05
446.118,-5.054345E-05
446.218,-5.050955E-05
446.318,-5.05265E-05
446.418,-5.053404E-05
446.518,-5.049637E-05
446.618,-5.049731E-05
446.718,-5.051144E-05
446.8181,-5.046247E-05
446.9181,-5.043704E-05
447.0181,-5.043421E-05
447.1181,-5.042856E-05
447.2181,-5.039843E-05
447.3181,-5.035887E-05
447.4181,-5.038618E-05
447.5181,-5.036359E-05
447.6181,-5.03165E-05
447.7181,-5.033251E-05
447.8181,-5.029013E-05
447.9181,-5.031273E-05
448.0181,-5.029955E-05
448.1181,-5.024869E-05
448.2181,-5.02939E-05
448.3181,-5.02986E-05
448.4182,-5.024398E-05
448.5182,-5.021197E-05
448.6182,-5.02421E-05
448.7182,-5.02195E-05
448.8182,-5.017524E-05
448.9182,-5.018748E-05
449.0182,-5.019125E-05
449.1182,-5.016771E-05
449.2182,-5.012909E-05
449.3182,-5.014228E-05
449.4182,-5.012721E-05
449.5182,-5.013851E-05
449.6182,-5.011967E-05
449.7182,-5.008671E-05
449.8182,-5.005281E-05
449.9182,-5.00547E-05
450.0182,-5.004622E-05
450.1183,-5.005658E-05
450.2183,-5.008295E-05
450.3183,-5.007447E-05
450.4183,-5.003021E-05
450.5183,-5.006505E-05
450.6183,-5.004905E-05
450.7183,-5.002267E-05
450.8183,-5.001043E-05
450.9183,-5.000949E-05
451.0183,-5.000102E-05
451.1183,-4.998124E-05
451.2183,-4.991814E-05
451.3183,-4.996052E-05
451.4183,-4.993698E-05
451.5183,-4.989272E-05
451.6183,-4.990967E-05
451.7184,-4.989648E-05
451.8184,-4.985787E-05
451.9184,-4.982679E-05
452.0184,-4.981267E-05
452.1184,-4.982868E-05
452.2184,-4.979948E-05
452.3184,-4.978065E-05
452.4184,-4.977029E-05
452.5184,-4.976088E-05
452.6184,-4.975711E-05
452.7184,-4.974016E-05
452.8184,-4.977123E-05
452.9184,-4.97119E-05
453.0184,-4.968648E-05
453.1184,-4.972885E-05
453.2184,-4.969495E-05
453.3185,-4.966859E-05
453.4185,-4.968742E-05
453.5185,-4.968083E-05
453.6185,-4.963939E-05
453.7185,-4.966576E-05
453.8185,-4.965258E-05
453.9185,-4.96215E-05
454.0185,-4.960172E-05
454.1185,-4.96215E-05
454.2185,-4.957629E-05
454.3185,-4.954899E-05
454.4185,-4.954051E-05
454.5185,-4.956123E-05
454.6185,-4.953015E-05
454.7185,-4.949625E-05
454.8185,-4.95019E-05
454.9185,-4.948213E-05
455.0186,-4.946988E-05
455.1186,-4.9468E-05
455.2186,-4.94162E-05
455.3186,-4.94614E-05
455.4186,-4.941714E-05
455.5186,-4.937665E-05
455.6186,-4.93936E-05
455.7186,-4.938136E-05
455.8186,-4.937194E-05
455.9186,-4.936912E-05
456.0186,-4.93597E-05
456.1186,-4.930414E-05
456.2186,-4.933239E-05
456.3186,-4.931355E-05
456.4186,-4.929189E-05
456.5186,-4.928624E-05
456.6187,-4.927777E-05
456.7187,-4.92853E-05
456.8187,-4.926552E-05
456.9187,-4.928436E-05
457.0187,-4.927965E-05
457.1187,-4.924386E-05
457.2187,-4.926646E-05
457.3187,-4.922314E-05
457.4187,-4.921279E-05
457.5187,-4.923351E-05
457.6187,-4.916947E-05
457.7187,-4.915157E-05
457.8187,-4.915722E-05
457.9187,-4.917324E-05
458.0187,-4.910825E-05
458.1187,-4.911296E-05
458.2188,-4.914687E-05
458.3188,-4.907153E-05
458.4188,-4.908E-05
458.5188,-4.909695E-05
458.6188,-4.902444E-05
458.7188,-4.901879E-05
458.8188,-4.900843E-05
458.9188,-4.902632E-05
459.0188,-4.896888E-05
459.1188,-4.897453E-05
459.2188,-4.898583E-05
459.3188,-4.893027E-05
459.4188,-4.891332E-05
459.5188,-4.892179E-05
459.6188,-4.892932E-05
459.7188,-4.889448E-05
459.8188,-4.890579E-05
459.9189,-4.890579E-05
460.0189,-4.885305E-05
460.1189,-4.890861E-05
460.2189,-4.888601E-05
460.3189,-4.887282E-05
460.4189,-4.892273E-05
460.5189,-4.890296E-05
460.6189,-4.886341E-05
460.7189,-4.887659E-05
460.8189,-4.885775E-05
460.9189,-4.881632E-05
461.0189,-4.879183E-05
461.1189,-4.879748E-05
461.2189,-4.876829E-05
461.3189,-4.874852E-05
461.4189,-4.877111E-05
461.519,-4.87438E-05
461.619,-4.86873E-05
461.719,-4.870991E-05
461.819,-4.869107E-05
461.919,-4.866187E-05
462.019,-4.864022E-05
462.119,-4.862891E-05
462.219,-4.862421E-05
462.319,-4.863833E-05
462.419,-4.864022E-05
462.519,-4.861573E-05
462.619,-4.860725E-05
462.719,-4.859218E-05
462.819,-4.858183E-05
462.919,-4.85903E-05
463.019,-4.860537E-05
463.119,-4.85564E-05
463.2191,-4.852627E-05
463.3191,-4.856959E-05
463.4191,-4.853003E-05
463.5191,-4.84933E-05
463.6191,-4.852533E-05
463.7191,-4.850272E-05
463.8191,-4.847447E-05
463.9191,-4.847447E-05
464.0191,-4.848295E-05
464.1191,-4.84142E-05
464.2191,-4.843963E-05
464.3191,-4.844057E-05
464.4191,-4.838595E-05
464.5191,-4.835581E-05
464.6191,-4.838972E-05
464.7191,-4.838407E-05
464.8192,-4.832473E-05
464.9192,-4.833415E-05
465.0192,-4.834169E-05
465.1192,-4.829836E-05
465.2192,-4.830213E-05
465.3192,-4.830213E-05
465.4192,-4.827576E-05
465.5192,-4.825787E-05
465.6192,-4.82541E-05
465.7192,-4.823056E-05
465.8192,-4.826352E-05
465.9192,-4.823339E-05
466.0192,-4.823809E-05
466.1192,-4.820231E-05
466.2192,-4.82089E-05
466.3192,-4.816841E-05
466.4193,-4.814863E-05
466.5193,-4.818065E-05
466.6193,-4.815051E-05
466.7193,-4.812697E-05
466.8193,-4.816652E-05
466.9193,-4.811379E-05
467.0193,-4.809025E-05
467.1193,-4.809495E-05
467.2193,-4.811002E-05
467.3193,-4.805634E-05
467.4193,-4.804221E-05
467.5193,-4.807047E-05
467.6193,-4.804316E-05
467.7193,-4.800266E-05
467.8193,-4.80149E-05
467.9193,-4.800549E-05
468.0193,-4.798948E-05
468.1194,-4.800643E-05
468.2194,-4.796876E-05
468.3194,-4.795746E-05
468.4194,-4.796405E-05
468.5194,-4.796122E-05
468.6194,-4.792826E-05
468.7194,-4.793957E-05
468.8194,-4.794051E-05
468.9194,-4.789719E-05
469.0194,-4.794145E-05
469.1194,-4.791602E-05
469.2194,-4.790849E-05
469.3194,-4.789248E-05
469.4194,-4.791226E-05
469.5194,-4.788306E-05
469.6194,-4.788212E-05
469.7195,-4.787176E-05
469.8195,-4.78727E-05
469.9195,-4.782844E-05
470.0195,-4.785481E-05
470.1195,-4.783409E-05
470.2195,-4.778136E-05
470.3195,-4.778983E-05
470.4195,-4.777194E-05
470.5195,-4.773992E-05
470.6195,-4.774463E-05
470.7195,-4.771543E-05
470.8195,-4.769754E-05
470.9195,-4.768248E-05
471.0195,-4.771732E-05
471.1195,-4.761279E-05
471.2195,-4.766176E-05
471.3195,-4.767776E-05
471.4196,-4.767588E-05
471.5196,-4.761467E-05
471.6196,-4.76222E-05
471.7196,-4.761844E-05
471.8196,-4.759583E-05
471.9196,-4.755628E-05
472.0196,-4.758076E-05
472.1196,-4.755817E-05
472.2196,-4.754592E-05
472.3196,-4.75318E-05
472.4196,-4.752709E-05
472.5196,-4.753086E-05
472.6196,-4.750354E-05
472.7196,-4.749036E-05
472.8196,-4.748848E-05
472.9196,-4.746587E-05
473.0197,-4.745834E-05
473.1197,-4.744327E-05
473.2197,-4.743386E-05
473.3197,-4.743103E-05
473.4197,-4.741785E-05
473.5197,-4.748471E-05
473.6197,-4.746493E-05
473.7197,-4.741596E-05
473.8197,-4.747058E-05
473.9197,-4.744704E-05
474.0197,-4.743197E-05
474.1197,-4.744704E-05
474.2197,-4.743762E-05
474.3197,-4.741691E-05
474.4197,-4.74009E-05
474.5197,-4.739619E-05
474.6198,-4.738018E-05
474.7198,-4.736794E-05
474.8198,-4.735663E-05
474.9198,-4.734439E-05
475.0198,-4.732179E-05
475.1198,-4.732556E-05
475.2198,-4.733309E-05
475.3198,-4.730202E-05
475.4198,-4.733215E-05
475.5198,-4.730107E-05
475.6198,-4.727659E-05
475.7198,-4.726246E-05
475.8198,-4.724834E-05
475.9198,-4.721067E-05
476.0198,-4.719654E-05
476.1198,-4.71843E-05
476.2198,-4.718995E-05
476.3199,-4.714286E-05
476.4199,-4.71617E-05
476.5199,-4.715887E-05
476.6199,-4.71099E-05
476.7199,-4.714098E-05
476.8199,-4.711649E-05
476.9199,-4.706941E-05
477.0199,-4.709954E-05
477.1199,-4.709013E-05
477.2199,-4.705246E-05
477.3199,-4.704492E-05
477.4199,-4.707694E-05
477.5199,-4.702138E-05
477.6199,-4.698183E-05
477.7199,-4.703927E-05
477.8199,-4.706564E-05
477.92,-4.700819E-05
478.02,-4.698936E-05
478.12,-4.70016E-05
478.22,-4.697806E-05
478.32,-4.699407E-05
478.42,-4.697523E-05
478.52,-4.696582E-05
478.62,-4.695922E-05
478.72,-4.694698E-05
478.82,-4.693191E-05
478.92,-4.695358E-05
479.02,-4.693474E-05
479.12,-4.691496E-05
479.22,-4.691967E-05
479.32,-4.687164E-05
479.42,-4.686976E-05
479.5201,-4.687823E-05
479.6201,-4.687164E-05
479.7201,-4.684716E-05
479.8201,-4.68481E-05
479.9201,-4.686317E-05
480.0201,-4.684151E-05
480.1201,-4.680572E-05
480.2201,-4.683491E-05
480.3201,-4.681608E-05
480.4201,-4.676994E-05
480.5201,-4.677747E-05
480.6201,-4.677747E-05
480.7201,-4.675769E-05
480.8201,-4.674734E-05
480.9201,-4.672567E-05
481.0201,-4.672944E-05
481.1201,-4.675958E-05
481.2202,-4.674451E-05
481.3202,-4.670025E-05
481.4202,-4.672567E-05
481.5202,-4.671908E-05
481.6202,-4.667671E-05
481.7202,-4.669177E-05
481.8202,-4.669271E-05
481.9202,-4.668518E-05
482.0202,-4.662773E-05
482.1202,-4.666164E-05
482.2202,-4.664845E-05
482.3202,-4.658819E-05
482.4202,-4.662491E-05
482.5202,-4.662962E-05
482.6202,-4.659666E-05
482.7202,-4.656276E-05
482.8203,-4.657594E-05
482.9203,-4.654957E-05
483.0203,-4.652132E-05
483.1203,-4.65185E-05
483.2203,-4.654581E-05
483.3203,-4.651567E-05
483.4203,-4.648553E-05
483.5203,-4.649589E-05
483.6203,-4.648271E-05
483.7203,-4.647612E-05
483.8203,-4.645916E-05
483.9203,-4.64262E-05
484.0203,-4.645822E-05
484.1203,-4.644315E-05
484.2203,-4.639607E-05
484.3203,-4.640643E-05
484.4203,-4.64102E-05
484.5204,-4.63763E-05
484.6204,-4.636876E-05
484.7204,-4.635745E-05
484.8204,-4.636782E-05
484.9204,-4.633486E-05
485.0204,-4.633674E-05
485.1204,-4.629436E-05
485.2204,-4.631131E-05
485.3204,-4.632921E-05
485.4204,-4.629436E-05
485.5204,-4.627929E-05
485.6204,-4.627176E-05
485.7204,-4.627082E-05
485.8204,-4.623315E-05
485.9204,-4.626893E-05
486.0204,-4.624916E-05
486.1205,-4.620866E-05
486.2205,-4.62501E-05
486.3205,-4.623503E-05
486.4205,-4.620866E-05
486.5205,-4.619737E-05
486.6205,-4.621431E-05
486.7205,-4.618795E-05
486.8205,-4.615311E-05
486.9205,-4.615969E-05
487.0205,-4.61418E-05
487.1205,-4.61258E-05
487.2205,-4.612108E-05
487.3205,-4.61258E-05
487.4205,-4.610507E-05
487.5205,-4.608812E-05
487.6205,-4.60787E-05
487.7206,-4.603633E-05
487.8206,-4.607117E-05
487.9206,-4.605422E-05
488.0206,-4.602597E-05
488.1206,-4.602879E-05
488.2206,-4.603162E-05
488.3206,-4.599301E-05
488.4206,-4.596569E-05
488.5206,-4.599395E-05
488.6206,-4.60109E-05
488.7206,-4.596099E-05
488.8206,-4.595722E-05
488.9206,-4.595251E-05
489.0206,-4.595063E-05
489.1206,-4.593839E-05
489.2206,-4.590072E-05
489.3206,-4.588942E-05
489.4207,-4.590354E-05
489.5207,-4.588659E-05
489.6207,-4.585457E-05
489.7207,-4.585646E-05
489.8207,-4.587246E-05
489.9207,-4.585175E-05
490.0207,-4.581879E-05
490.1207,-4.584516E-05
490.2207,-4.581502E-05
490.3207,-4.579995E-05
490.4207,-4.582632E-05
490.5207,-4.581125E-05
490.6207,-4.582538E-05
490.7207,-4.58348E-05
490.8207,-4.582255E-05
490.9207,-4.578488E-05
491.0208,-4.580749E-05
491.1208,-4.578488E-05
491.2208,-4.574534E-05
491.3208,-4.580184E-05
491.4208,-4.578959E-05
491.5208,-4.571614E-05
491.6208,-4.579524E-05
491.7208,-4.576228E-05
491.8208,-4.572744E-05
491.9208,-4.572367E-05
492.0208,-4.573497E-05
492.1208,-4.571237E-05
492.2208,-4.567847E-05
492.3208,-4.567282E-05
492.4208,-4.568318E-05
492.5208,-4.564174E-05
492.6208,-4.563797E-05
492.7209,-4.564645E-05
492.8209,-4.560313E-05
492.9209,-4.559089E-05
493.0209,-4.559277E-05
493.1209,-4.556923E-05
493.2209,-4.556546E-05
493.3209,-4.554098E-05
493.4209,-4.553156E-05
493.5209,-4.553439E-05
493.6209,-4.552403E-05
493.7209,-4.547976E-05
493.8209,-4.549577E-05
493.9209,-4.551084E-05
494.0209,-4.549201E-05
494.1209,-4.544586E-05
494.2209,-4.547035E-05
494.321,-4.545434E-05
494.421,-4.543456E-05
494.521,-4.545904E-05
494.621,-4.545434E-05
494.721,-4.541855E-05
494.821,-4.547506E-05
494.921,-4.545904E-05
495.021,-4.544398E-05
495.121,-4.546281E-05
495.221,-4.544869E-05
495.321,-4.540819E-05
495.421,-4.541196E-05
495.521,-4.538182E-05
495.621,-4.537523E-05
495.721,-4.535169E-05
495.821,-4.534604E-05
495.9211,-4.531779E-05
496.0211,-4.530272E-05
496.1211,-4.530648E-05
496.2211,-4.529424E-05
496.3211,-4.526128E-05
496.4211,-4.529048E-05
496.5211,-4.527258E-05
496.6211,-4.519819E-05
496.7211,-4.522267E-05
496.8211,-4.524998E-05
496.9211,-4.519631E-05
497.0211,-4.518123E-05
497.1211,-4.520478E-05
497.2211,-4.520384E-05
497.3211,-4.516146E-05
497.4211,-4.517276E-05
497.5211,-4.516617E-05
497.6212,-4.518688E-05
497.7212,-4.519065E-05
497.8212,-4.517182E-05
497.9212,-4.514639E-05
498.0212,-4.519348E-05
498.1212,-4.515204E-05
498.2212,-4.51445E-05
498.3212,-4.512662E-05
498.4212,-4.509836E-05
498.5212,-4.509836E-05
498.6212,-4.506917E-05
498.7212,-4.505127E-05
498.8212,-4.505693E-05
498.9212,-4.501643E-05
499.0212,-4.50315E-05
499.1212,-4.50202E-05
499.2213,-4.498912E-05
499.3213,-4.497311E-05
499.4213,-4.501361E-05
499.5213,-4.499572E-05
499.6213,-4.493827E-05
499.7213,-4.495428E-05
499.8213,-4.495428E-05
499.9213,-4.494298E-05
500.0213,-4.493262E-05
500.1213,-4.493356E-05
500.2213,-4.489872E-05
500.3213,-4.487517E-05
500.4213,-4.488742E-05
500.5213,-4.48667E-05
500.6213,-4.486858E-05
500.7213,-4.4894E-05
500.8214,-4.487894E-05
500.9214,-4.491096E-05
501.0214,-4.490437E-05
501.1214,-4.488082E-05
501.2214,-4.488553E-05
501.3214,-4.485445E-05
501.4214,-4.48328E-05
501.5214,-4.484692E-05
501.6214,-4.478006E-05
501.7214,-4.480077E-05
501.8214,-4.478006E-05
501.9214,-4.475463E-05
502.0214,-4.475369E-05
502.1214,-4.473957E-05
502.2214,-4.474145E-05
502.3214,-4.47066E-05
502.4214,-4.469907E-05
502.5215,-4.471507E-05
502.6215,-4.469342E-05
502.7215,-4.465198E-05
502.8215,-4.468683E-05
502.9215,-4.469813E-05
503.0215,-4.465293E-05
503.1215,-4.464162E-05
503.2215,-4.465575E-05
503.3215,-4.461714E-05
503.4215,-4.459736E-05
503.5215,-4.460207E-05
503.6215,-4.461243E-05
503.7215,-4.456252E-05
503.8215,-4.457664E-05
503.9215,-4.459642E-05
504.0215,-4.456534E-05
504.1216,-4.454274E-05
504.2216,-4.454651E-05
504.3216,-4.453238E-05
504.4216,-4.452391E-05
504.5216,-4.448341E-05
504.6216,-4.447588E-05
504.7216,-4.448718E-05
504.8216,-4.44853E-05
504.9216,-4.442597E-05
505.0216,-4.445987E-05
505.1216,-4.446457E-05
505.2216,-4.441561E-05
505.3216,-4.442409E-05
505.4216,-4.446364E-05
505.5216,-4.443444E-05
505.6216,-4.439395E-05
505.7216,-4.442597E-05
505.8217,-4.439772E-05
505.9217,-4.438265E-05
506.0217,-4.436569E-05
506.1217,-4.439678E-05
506.2217,-4.434874E-05
506.3217,-4.432803E-05
506.4217,-4.435628E-05
506.5217,-4.434027E-05
506.6217,-4.432237E-05
506.7217,-4.43026E-05
506.8217,-4.431861E-05
506.9217,-4.429601E-05
507.0217,-4.430731E-05
507.1217,-4.428471E-05
507.2217,-4.426493E-05
507.3217,-4.428754E-05
507.4218,-4.427341E-05
507.5218,-4.423197E-05
507.6218,-4.424421E-05
507.7218,-4.424233E-05
507.8218,-4.42395E-05
507.9218,-4.420278E-05
508.0218,-4.419054E-05
508.1218,-4.417641E-05
508.2218,-4.420466E-05
508.3218,-4.418394E-05
508.4218,-4.415286E-05
508.5218,-4.415663E-05
508.6218,-4.416228E-05
508.7218,-4.411896E-05
508.8218,-4.411143E-05
508.9218,-4.412932E-05
509.0219,-4.409259E-05
509.1219,-4.408129E-05
509.2219,-4.407753E-05
509.3219,-4.407376E-05
509.4219,-4.404833E-05
509.5219,-4.406999E-05
509.6219,-4.407282E-05
509.7219,-4.403892E-05
509.8219,-4.406623E-05
509.9219,-4.406058E-05
510.0219,-4.402761E-05
510.1219,-4.404268E-05
510.2219,-4.401537E-05
510.3219,-4.40003E-05
510.4219,-4.399089E-05
510.5219,-4.400407E-05
510.6219,-4.397393E-05
510.722,-4.399183E-05
510.822,-4.399936E-05
510.922,-4.397488E-05
511.022,-4.396828E-05
511.122,-4.397205E-05
511.222,-4.395039E-05
511.322,-4.391084E-05
511.422,-4.394851E-05
511.522,-4.394757E-05
511.622,-4.389295E-05
511.722,-4.39099E-05
511.822,-4.389483E-05
511.922,-4.383362E-05
512.022,-4.387317E-05
512.122,-4.386658E-05
512.222,-4.381196E-05
512.322,-4.383644E-05
512.4219,-4.385716E-05
512.5219,-4.376958E-05
512.6219,-4.381008E-05
512.7219,-4.384303E-05
512.8218,-4.377523E-05
512.9218,-4.375546E-05
513.0218,-4.380254E-05
513.1218,-4.37677E-05
513.2217,-4.373003E-05
513.3217,-4.377805E-05
513.4217,-4.374698E-05
513.5217,-4.36933E-05
513.6216,-4.372438E-05
513.7216,-4.373473E-05
513.8216,-4.3682E-05
513.9216,-4.36707E-05
514.0215,-4.368106E-05
514.1215,-4.367729E-05
514.2215,-4.366693E-05
514.3215,-4.363868E-05
514.4214,-4.366693E-05
514.5214,-4.363585E-05
514.6214,-4.361984E-05
514.7214,-4.361137E-05
514.8214,-4.360572E-05
514.9213,-4.361043E-05
515.0213,-4.358688E-05
515.1213,-4.356711E-05
515.2213,-4.358783E-05
515.3212,-4.358218E-05
515.4212,-4.356522E-05
515.5212,-4.356334E-05
515.6212,-4.351531E-05
515.7211,-4.351531E-05
515.8211,-4.353697E-05
515.9211,-4.351908E-05
516.0211,-4.348424E-05
516.121,-4.350872E-05
516.221,-4.35219E-05
516.321,-4.351437E-05
516.421,-4.351625E-05
516.5209,-4.352096E-05
516.6209,-4.351625E-05
516.7209,-4.350589E-05
516.8209,-4.352944E-05
516.9208,-4.354262E-05
517.0208,-4.351343E-05
517.1208,-4.350024E-05
517.2208,-4.349365E-05
517.3207,-4.346163E-05
517.4207,-4.342396E-05
517.5207,-4.34202E-05
517.6207,-4.34202E-05
517.7206,-4.339854E-05
517.8206,-4.335993E-05
517.9206,-4.335239E-05
518.0206,-4.339006E-05
518.1205,-4.336181E-05
518.2205,-4.330719E-05
518.3205,-4.331096E-05
518.4205,-4.331096E-05
518.5204,-4.330343E-05
518.6204,-4.329212E-05
518.7204,-4.329495E-05
518.8204,-4.32714E-05
518.9203,-4.32262E-05
519.0203,-4.325727E-05
519.1203,-4.326764E-05
519.2203,-4.325163E-05
519.3203,-4.323374E-05
519.4202,-4.32375E-05
519.5202,-4.320548E-05
519.6202,-4.320266E-05
519.7202,-4.321113E-05
519.8201,-4.317723E-05
519.9201,-4.318382E-05
520.0201,-4.319418E-05
520.1201,-4.317629E-05
520.22,-4.31697E-05
520.32,-4.315463E-05
520.42,-4.315086E-05
520.52,-4.315369E-05
520.6199,-4.315181E-05
520.7199,-4.31179E-05
520.8199,-4.310943E-05
520.9199,-4.313297E-05
521.0198,-4.311696E-05
521.1198,-4.307552E-05
521.2198,-4.310754E-05
521.3198,-4.309718E-05
521.4197,-4.304633E-05
521.5197,-4.306516E-05
521.6197,-4.307458E-05
521.7197,-4.304539E-05
521.8196,-4.305198E-05
521.9196,-4.303691E-05
522.0196,-4.304162E-05
522.1196,-4.301713E-05
522.2195,-4.300772E-05
522.3195,-4.298794E-05
522.4195,-4.300112E-05
522.5195,-4.299077E-05
522.6194,-4.298041E-05
522.7194,-4.296534E-05
522.8194,-4.30275E-05
522.9194,-4.300207E-05
523.0193,-4.296817E-05
523.1193,-4.302279E-05
523.2193,-4.297005E-05
523.3193,-4.297476E-05
523.4193,-4.297382E-05
523.5192,-4.296911E-05
523.6192,-4.295216E-05
523.7192,-4.294651E-05
523.8192,-4.295781E-05
523.9191,-4.298606E-05
524.0191,-4.29418E-05
524.1191,-4.294651E-05
524.2191,-4.292861E-05
524.319,-4.29079E-05
524.419,-4.289566E-05
524.519,-4.289471E-05
524.619,-4.288341E-05
524.7189,-4.287588E-05
524.8189,-4.284292E-05
524.9189,-4.283538E-05
525.0189,-4.284668E-05
525.1188,-4.280336E-05
525.2188,-4.280996E-05
525.3188,-4.282219E-05
525.4188,-4.284762E-05
525.5187,-4.279959E-05
525.6187,-4.278547E-05
525.7187,-4.284386E-05
525.8187,-4.277417E-05
525.9186,-4.273179E-05
526.0186,-4.277135E-05
526.1186,-4.277323E-05
526.2186,-4.271767E-05
526.3185,-4.273273E-05
526.4185,-4.27478E-05
526.5185,-4.268282E-05
526.6185,-4.270825E-05
526.7184,-4.271484E-05
526.8184,-4.268282E-05
526.9184,-4.263762E-05
527.0184,-4.269318E-05
527.1183,-4.268753E-05
527.2183,-4.266022E-05
527.3183,-4.269506E-05
527.4183,-4.269506E-05
527.5182,-4.265645E-05
527.6182,-4.270636E-05
527.7182,-4.268471E-05
527.8182,-4.267246E-05
527.9182,-4.268471E-05
528.0181,-4.269318E-05
528.1181,-4.26621E-05
528.2181,-4.264139E-05
528.3181,-4.264233E-05
528.418,-4.262443E-05
528.518,-4.260843E-05
528.618,-4.259242E-05
528.718,-4.260372E-05
528.8179,-4.25943E-05
528.9179,-4.259242E-05
529.0179,-4.260937E-05
529.1179,-4.258865E-05
529.2178,-4.254816E-05
529.3178,-4.253497E-05
529.4178,-4.253121E-05
529.5178,-4.252084E-05
529.6177,-4.251237E-05
529.7177,-4.249165E-05
529.8177,-4.249165E-05
529.9177,-4.248129E-05
530.0176,-4.246434E-05
530.1176,-4.243703E-05
530.2176,-4.247376E-05
530.3176,-4.244739E-05
530.4175,-4.242008E-05
530.5175,-4.241726E-05
530.6175,-4.244551E-05
530.7175,-4.239936E-05
530.8174,-4.239748E-05
530.9174,-4.240407E-05
531.0174,-4.238994E-05
531.1174,-4.239089E-05
531.2173,-4.236828E-05
531.3173,-4.237111E-05
531.4173,-4.236358E-05
531.5173,-4.236546E-05
531.6172,-4.23551E-05
531.7172,-4.235133E-05
531.8172,-4.237958E-05
531.9172,-4.236923E-05
532.0172,-4.233627E-05
532.1171,-4.238241E-05
532.2171,-4.233344E-05
532.3171,-4.229106E-05
532.4171,-4.231178E-05
532.517,-4.230142E-05
532.617,-4.228259E-05
532.717,-4.227506E-05
532.817,-4.229671E-05
532.9169,-4.224115E-05
533.0169,-4.223833E-05
533.1169,-4.226187E-05
533.2169,-4.225904E-05
533.3168,-4.220537E-05
533.4168,-4.22468E-05
533.5168,-4.225622E-05
533.6168,-4.221007E-05
533.7167,-4.221384E-05
533.8167,-4.223456E-05
533.9167,-4.219501E-05
534.0167,-4.217146E-05
534.1166,-4.219595E-05
534.2166,-4.217146E-05
534.3166,-4.214132E-05
534.4166,-4.218182E-05
534.5165,-4.21724E-05
534.6165,-4.216204E-05
534.7165,-4.215263E-05
534.8165,-4.212626E-05
534.9164,-4.214227E-05
535.0164,-4.213662E-05
535.1164,-4.212344E-05
535.2164,-4.208859E-05
535.3163,-4.214886E-05
535.4163,-4.209895E-05
535.5163,-4.205751E-05
535.6163,-4.211308E-05
535.7162,-4.209613E-05
535.8162,-4.205092E-05
535.9162,-4.206222E-05
536.0162,-4.207917E-05
536.1161,-4.203868E-05
536.2161,-4.200383E-05
536.3161,-4.203962E-05
536.4161,-4.202738E-05
536.5161,-4.201137E-05
536.616,-4.201137E-05
536.716,-4.202738E-05
536.816,-4.198594E-05
536.916,-4.199065E-05
537.0159,-4.200101E-05
537.1159,-4.200289E-05
537.2159,-4.202078E-05
537.3159,-4.200383E-05
537.4158,-4.19963E-05
537.5158,-4.201513E-05
537.6158,-4.198123E-05
537.7158,-4.196428E-05
537.8157,-4.199724E-05
537.9157,-4.193791E-05
538.0157,-4.193508E-05
538.1157,-4.194262E-05
538.2156,-4.192285E-05
538.3156,-4.189742E-05
538.4156,-4.188894E-05
538.5156,-4.192755E-05
538.6155,-4.190119E-05
538.7155,-4.185881E-05
538.8155,-4.19219E-05
538.9155,-4.189177E-05
539.0154,-4.184468E-05
539.1154,-4.187858E-05
539.2154,-4.187199E-05
539.3154,-4.18362E-05
539.4153,-4.183432E-05
539.5153,-4.184186E-05
539.6153,-4.18202E-05
539.7153,-4.178252E-05
539.8152,-4.179854E-05
539.9152,-4.181455E-05
540.0152,-4.177405E-05
540.1152,-4.177782E-05
540.2151,-4.176746E-05
540.3151,-4.177782E-05
540.4151,-4.176181E-05
540.5151,-4.177123E-05
540.6151,-4.178252E-05
540.715,-4.177311E-05
540.815,-4.172696E-05
540.915,-4.176181E-05
541.015,-4.176087E-05
541.1149,-4.171661E-05
541.2149,-4.174486E-05
541.3149,-4.175051E-05
541.4149,-4.173167E-05
541.5148,-4.170719E-05
541.6148,-4.173544E-05
541.7148,-4.174015E-05
541.8148,-4.168082E-05
541.9147,-4.168458E-05
542.0147,-4.173638E-05
542.1147,-4.168836E-05
542.2147,-4.164315E-05
542.3146,-4.165916E-05
542.4146,-4.167893E-05
542.5146,-4.162244E-05
542.6146,-4.162432E-05
542.7145,-4.164503E-05
542.8145,-4.162714E-05
542.9145,-4.162244E-05
543.0145,-4.160172E-05
543.1144,-4.162149E-05
543.2144,-4.158382E-05
543.3144,-4.158288E-05
543.4144,-4.156969E-05
543.5143,-4.156781E-05
543.6143,-4.158476E-05
543.7143,-4.156875E-05
543.8143,-4.157911E-05
543.9142,-4.161867E-05
544.0142,-4.158947E-05
544.1142,-4.156216E-05
544.2142,-4.160266E-05
544.3141,-4.157346E-05
544.4141,-4.15405E-05
544.5141,-4.155086E-05
544.6141,-4.155086E-05
544.7141,-4.153109E-05
544.814,-4.150848E-05
544.914,-4.150283E-05
545.014,-4.151978E-05
545.114,-4.1484E-05
545.2139,-4.147835E-05
545.3139,-4.150189E-05
545.4139,-4.148023E-05
545.5139,-4.144821E-05
545.6138,-4.146516E-05
545.7138,-4.143503E-05
545.8138,-4.145009E-05
545.9138,-4.142184E-05
546.0137,-4.142561E-05
546.1137,-4.142279E-05
546.2137,-4.14435E-05
546.3137,-4.141055E-05
546.4136,-4.141337E-05
546.5136,-4.143032E-05
546.6136,-4.137852E-05
546.7136,-4.138982E-05
546.8135,-4.143032E-05
546.9135,-4.141055E-05
547.0135,-4.136817E-05
547.1135,-4.143409E-05
547.2134,-4.140395E-05
547.3134,-4.133897E-05
547.4134,-4.140678E-05
547.5134,-4.137475E-05
547.6133,-4.134179E-05
547.7133,-4.133614E-05
547.8133,-4.137382E-05
547.9133,-4.131166E-05
548.0132,-4.131731E-05
548.1132,-4.135404E-05
548.2132,-4.129565E-05
548.3132,-4.126646E-05
548.4131,-4.130695E-05
548.5131,-4.130318E-05
548.6131,-4.126081E-05
548.7131,-4.127964E-05
548.813,-4.130318E-05
548.913,-4.126552E-05
549.013,-4.126175E-05
549.113,-4.127022E-05
549.213,-4.124856E-05
549.3129,-4.125045E-05
549.4129,-4.121655E-05
549.5129,-4.12156E-05
549.6129,-4.122125E-05
549.7128,-4.119865E-05
549.8128,-4.117417E-05
549.9128,-4.119489E-05
550.0128,-4.119583E-05
550.1127,-4.116758E-05
550.2127,-4.115439E-05
550.3127,-4.115628E-05
550.4127,-4.116569E-05
550.5126,-4.112049E-05
550.6126,-4.11478E-05
550.7126,-4.116852E-05
550.8126,-4.112991E-05
550.9125,-4.116946E-05
551.0125,-4.115721E-05
551.1125,-4.114498E-05
551.2125,-4.114498E-05
551.3124,-4.11591E-05
551.4124,-4.112614E-05
551.5124,-4.109977E-05
551.6124,-4.110825E-05
551.7123,-4.11026E-05
551.8123,-4.110071E-05
551.9123,-4.107435E-05
552.0123,-4.108659E-05
552.1122,-4.104327E-05
552.2122,-4.10687E-05
552.3122,-4.10734E-05
552.4122,-4.103668E-05
552.5121,-4.102914E-05
552.6121,-4.10621E-05
552.7121,-4.103856E-05
552.8121,-4.098488E-05
552.912,-4.100183E-05
553.012,-4.101878E-05
553.112,-4.100089E-05
553.212,-4.097829E-05
553.312,-4.098582E-05
553.4119,-4.099335E-05
553.5119,-4.096228E-05
553.6119,-4.096982E-05
553.7119,-4.096793E-05
553.8118,-4.096228E-05
553.9118,-4.093779E-05
554.0118,-4.091802E-05
554.1118,-4.092837E-05
554.2117,-4.093214E-05
554.3117,-4.089448E-05
554.4117,-4.090201E-05
554.5117,-4.090201E-05
554.6116,-4.085869E-05
554.7116,-4.090483E-05
554.8116,-4.087752E-05
554.9116,-4.087187E-05
555.0115,-4.088505E-05
555.1115,-4.086999E-05
555.2115,-4.086622E-05
555.3115,-4.087093E-05
555.4114,-4.085586E-05
555.5114,-4.086434E-05
555.6114,-4.08521E-05
555.7114,-4.083326E-05
555.8113,-4.082384E-05
555.9113,-4.083044E-05
556.0113,-4.083138E-05
556.1113,-4.080878E-05
556.2112,-4.080689E-05
556.3112,-4.083138E-05
556.4112,-4.078712E-05
556.5112,-4.076169E-05
556.6111,-4.080313E-05
556.7111,-4.078052E-05
556.8111,-4.074851E-05
556.9111,-4.075039E-05
557.011,-4.076828E-05
557.111,-4.074191E-05
557.211,-4.073438E-05
557.311,-4.072873E-05
557.4109,-4.072778E-05
557.5109,-4.072213E-05
557.6109,-4.069389E-05
557.7109,-4.068918E-05
557.8109,-4.072213E-05
557.9108,-4.072402E-05
558.0108,-4.067317E-05
558.1108,-4.068259E-05
558.2108,-4.070142E-05
558.3107,-4.067505E-05
558.4107,-4.065904E-05
558.5107,-4.0692E-05
558.6107,-4.069671E-05
558.7106,-4.063361E-05
558.8106,-4.068541E-05
558.9106,-4.067222E-05
559.0106,-4.062232E-05
559.1105,-4.063832E-05
559.2105,-4.064209E-05
559.3105,-4.061572E-05
559.4105,-4.058653E-05
559.5104,-4.061384E-05
559.6104,-4.061855E-05
559.7104,-4.057523E-05
559.8104,-4.058747E-05
559.9103,-4.061195E-05
560.0103,-4.057523E-05
560.1103,-4.056863E-05
560.2103,-4.055922E-05
560.3102,-4.056204E-05
560.4102,-4.055545E-05
560.5102,-4.053567E-05
560.6102,-4.053756E-05
560.7101,-4.056393E-05
560.8101,-4.052532E-05
560.9101,-4.052249E-05
561.0101,-4.05385E-05
561.11,-4.05159E-05
561.21,-4.050271E-05
561.31,-4.050366E-05
561.41,-4.049424E-05
561.5099,-4.046599E-05
561.6099,-4.048482E-05
561.7099,-4.048106E-05
561.8099,-4.045375E-05
561.9099,-4.044244E-05
562.0098,-4.047352E-05
562.1098,-4.045751E-05
562.2098,-4.043774E-05
562.3098,-4.044056E-05
562.4097,-4.047635E-05
562.5097,-4.043962E-05
562.6097,-4.046222E-05
562.7097,-4.044903E-05
562.8096,-4.042361E-05
562.9096,-4.041607E-05
563.0096,-4.039724E-05
563.1096,-4.039159E-05
563.2095,-4.041607E-05
563.3095,-4.038311E-05
563.4095,-4.035298E-05
563.5095,-4.037087E-05
563.6094,-4.037652E-05
563.7094,-4.035863E-05
563.8094,-4.03511E-05
563.9094,-4.038311E-05
564.0093,-4.032096E-05
564.1093,-4.033602E-05
564.2093,-4.03445E-05
564.3093,-4.032379E-05
564.4092,-4.028612E-05
564.5092,-4.031248E-05
564.6092,-4.032944E-05
564.7092,-4.029648E-05
564.8091,-4.030683E-05
564.9091,-4.032661E-05
565.0091,-4.029082E-05
565.1091,-4.030966E-05
565.209,-4.031719E-05
565.309,-4.029648E-05
565.409,-4.027576E-05
565.509,-4.026917E-05
565.6089,-4.026069E-05
565.7089,-4.024844E-05
565.8089,-4.023526E-05
565.9089,-4.026445E-05
566.0089,-4.023714E-05
566.1088,-4.022113E-05
566.2088,-4.022584E-05
566.3088,-4.021643E-05
566.4088,-4.02136E-05
566.5087,-4.020701E-05
566.6087,-4.020701E-05
566.7087,-4.021925E-05
566.8087,-4.02249E-05
566.9086,-4.020701E-05
567.0086,-4.019948E-05
567.1086,-4.017593E-05
567.2086,-4.01684E-05
567.3085,-4.017593E-05
567.4085,-4.016557E-05
567.5085,-4.018441E-05
567.6085,-4.016087E-05
567.7084,-4.021172E-05
567.8084,-4.016463E-05
567.9084,-4.014956E-05
568.0084,-4.019477E-05
568.1083,-4.013826E-05
568.2083,-4.011472E-05
568.3083,-4.013356E-05
568.4083,-4.011661E-05
568.5082,-4.008741E-05
568.6082,-4.006481E-05
568.7082,-4.009212E-05
568.8082,-4.005633E-05
568.9081,-4.004126E-05
569.0081,-4.00601E-05
569.1081,-4.002714E-05
569.2081,-4.002149E-05
569.308,-4.005351E-05
569.408,-4.003938E-05
569.508,-3.9997E-05
569.608,-4.001395E-05
569.7079,-4.003373E-05
569.8079,-3.998006E-05
569.9079,-3.997817E-05
570.0079,-4.000172E-05
570.1078,-3.998194E-05
570.2078,-3.995745E-05
570.3078,-3.997629E-05
570.4078,-3.998947E-05
570.5078,-3.996499E-05
570.6077,-3.995463E-05
570.7077,-3.997723E-05
570.8077,-3.993485E-05
570.9077,-3.993956E-05
571.0076,-3.996404E-05
571.1076,-3.991602E-05
571.2076,-3.99E-05
571.3076,-3.991602E-05
571.4075,-3.988965E-05
571.5075,-3.987081E-05
571.6075,-3.988682E-05
571.7075,-3.988682E-05
571.8074,-3.986893E-05
571.9074,-3.986987E-05
572.0074,-3.98614E-05
572.1074,-3.985668E-05
572.2073,-3.984162E-05
572.3073,-3.984068E-05
572.4073,-3.983597E-05
572.5073,-3.98435E-05
572.6072,-3.981713E-05
572.7072,-3.981619E-05
572.8072,-3.981431E-05
572.9072,-3.980678E-05
573.0071,-3.977758E-05
573.1071,-3.976534E-05
573.2071,-3.97644E-05
573.3071,-3.976157E-05
573.407,-3.978417E-05
573.507,-3.975686E-05
573.607,-3.973614E-05
573.707,-3.974462E-05
573.8069,-3.973144E-05
573.9069,-3.970506E-05
574.0069,-3.971825E-05
574.1069,-3.971072E-05
574.2068,-3.970036E-05
574.3068,-3.97126E-05
574.4068,-3.969565E-05
574.5068,-3.968153E-05
574.6068,-3.968341E-05
574.7067,-3.968341E-05
574.8067,-3.967116E-05
574.9067,-3.969941E-05
575.0067,-3.963349E-05
575.1066,-3.963821E-05
575.2066,-3.966363E-05
575.3066,-3.965704E-05
575.4066,-3.961278E-05
575.5065,-3.960524E-05
575.6065,-3.964856E-05
575.7065,-3.960995E-05
575.8065,-3.957699E-05
575.9064,-3.960995E-05
576.0064,-3.961655E-05
576.1064,-3.953744E-05
576.2064,-3.956946E-05
576.3063,-3.959583E-05
576.4063,-3.957322E-05
576.5063,-3.955345E-05
576.6063,-3.955533E-05
576.7062,-3.959112E-05
576.8062,-3.953744E-05
576.9062,-3.955533E-05
577.0062,-3.956664E-05
577.1061,-3.952426E-05
577.2061,-3.958829E-05
577.3061,-3.957417E-05
577.4061,-3.953085E-05
577.506,-3.958452E-05
577.606,-3.956946E-05
577.706,-3.955627E-05
577.806,-3.957605E-05
577.9059,-3.959489E-05
578.0059,-3.95591E-05
578.1059,-3.953838E-05
578.2059,-3.954874E-05
578.3058,-3.955816E-05
578.4058,-3.948659E-05
578.5058,-3.949129E-05
578.6058,-3.951672E-05
578.7057,-3.948282E-05
578.8057,-3.95026E-05
578.9057,-3.949412E-05
579.0057,-3.947905E-05
579.1057,-3.949695E-05
579.2056,-3.950353E-05
579.3056,-3.95073E-05
579.4056,-3.948376E-05
579.5056,-3.947999E-05
579.6055,-3.948188E-05
579.7055,-3.946493E-05
579.8055,-3.944421E-05
579.9055,-3.945739E-05
580.0054,-3.942537E-05
580.1054,-3.944703E-05
580.2054,-3.944138E-05
580.3054,-3.9399E-05
580.4053,-3.940089E-05
580.5053,-3.942914E-05
580.6053,-3.93764E-05
580.7053,-3.935757E-05
580.8052,-3.939147E-05
580.9052,-3.9383E-05
581.0052,-3.93538E-05
581.1052,-3.938488E-05
581.2051,-3.937546E-05
581.3051,-3.935757E-05
581.4051,-3.934345E-05
581.5051,-3.934345E-05
581.605,-3.935192E-05
581.705,-3.932461E-05
581.805,-3.931331E-05
581.905,-3.933591E-05
582.0049,-3.931142E-05
582.1049,-3.931142E-05
582.2049,-3.929071E-05
582.3049,-3.931425E-05
582.4048,-3.928788E-05
582.5048,-3.925775E-05
582.6048,-3.929918E-05
582.7048,-3.927846E-05
582.8047,-3.925869E-05
582.9047,-3.927093E-05
583.0047,-3.927188E-05
583.1047,-3.924833E-05
583.2047,-3.925021E-05
583.3046,-3.925492E-05
583.4046,-3.925115E-05
583.5046,-3.923138E-05
583.6046,-3.922478E-05
583.7045,-3.925021E-05
583.8045,-3.923326E-05
583.9045,-3.926622E-05
584.0045,-3.927846E-05
584.1044,-3.924173E-05
584.2044,-3.931236E-05
584.3044,-3.92747E-05
584.4044,-3.92634E-05
584.5043,-3.928506E-05
584.6043,-3.927846E-05
584.7043,-3.923797E-05
584.8043,-3.922667E-05
584.9042,-3.92521E-05
585.0042,-3.926057E-05
585.1042,-3.920689E-05
585.2042,-3.923797E-05
585.3041,-3.926245E-05
585.4041,-3.920877E-05
585.5041,-3.920689E-05
585.6041,-3.923138E-05
585.704,-3.91664E-05
585.804,-3.916828E-05
585.904,-3.917958E-05
586.004,-3.917016E-05
586.1039,-3.915887E-05
586.2039,-3.916075E-05
586.3039,-3.913721E-05
586.4039,-3.913909E-05
586.5038,-3.914662E-05
586.6038,-3.910801E-05
586.7038,-3.911837E-05
586.8038,-3.912967E-05
586.9037,-3.908164E-05
587.0037,-3.907128E-05
587.1037,-3.911366E-05
587.2037,-3.909294E-05
587.3036,-3.905999E-05
587.4036,-3.907411E-05
587.5036,-3.907505E-05
587.6036,-3.907505E-05
587.7036,-3.907222E-05
587.8035,-3.908352E-05
587.9035,-3.906657E-05
588.0035,-3.909012E-05
588.1035,-3.906187E-05
588.2034,-3.907222E-05
588.3034,-3.905621E-05
588.4034,-3.909294E-05
588.5034,-3.90807E-05
588.6033,-3.908918E-05
588.7033,-3.912967E-05
588.8033,-3.912402E-05
588.9033,-3.910989E-05
589.0032,-3.909483E-05
589.1032,-3.909294E-05
589.2032,-3.907882E-05
589.3032,-3.907599E-05
589.4031,-3.906281E-05
589.5031,-3.906752E-05
589.6031,-3.907034E-05
589.7031,-3.904491E-05
589.803,-3.906752E-05
589.903,-3.905715E-05
590.003,-3.902984E-05
590.103,-3.902796E-05
590.2029,-3.903832E-05
590.3029,-3.904114E-05
590.4029,-3.902796E-05
590.5029,-3.899123E-05
590.6028,-3.902796E-05
590.7028,-3.900819E-05
590.8028,-3.898276E-05
590.9028,-3.898088E-05
591.0027,-3.90063E-05
591.1027,-3.893096E-05
591.2027,-3.897711E-05
591.3027,-3.901478E-05
591.4026,-3.89319E-05
591.5026,-3.8898E-05
591.6026,-3.894792E-05
591.7026,-3.896204E-05
591.8026,-3.893756E-05
591.9025,-3.891966E-05
592.0025,-3.894415E-05
592.1025,-3.892908E-05
592.2025,-3.893567E-05
592.3024,-3.891496E-05
592.4024,-3.889047E-05
592.5024,-3.890459E-05
592.6024,-3.888388E-05
592.7023,-3.88754E-05
592.8023,-3.88933E-05
592.9023,-3.886881E-05
593.0023,-3.886033E-05
593.1022,-3.892343E-05
593.2022,-3.886975E-05
593.3022,-3.887069E-05
593.4022,-3.889706E-05
593.5021,-3.88933E-05
593.6021,-3.886787E-05
593.7021,-3.885374E-05
593.8021,-3.886787E-05
593.902,-3.884715E-05
594.002,-3.886881E-05
594.102,-3.88528E-05
594.202,-3.88349E-05
594.3019,-3.88349E-05
594.4019,-3.884244E-05
594.5019,-3.883868E-05
594.6019,-3.88189E-05
594.7018,-3.884244E-05
594.8018,-3.881325E-05
594.9018,-3.879912E-05
595.0018,-3.884527E-05
595.1017,-3.879442E-05
595.2017,-3.878405E-05
595.3017,-3.879536E-05
595.4017,-3.87897E-05
595.5016,-3.878123E-05
595.6016,-3.877652E-05
595.7016,-3.879347E-05
595.8016,-3.879536E-05
595.9016,-3.877087E-05
596.0015,-3.881795E-05
596.1015,-3.880006E-05
596.2015,-3.874733E-05
596.3015,-3.882078E-05
596.4014,-3.878876E-05
596.5014,-3.878311E-05
596.6014,-3.881607E-05
596.7014,-3.881607E-05
596.8013,-3.878594E-05
596.9013,-3.879252E-05
597.0013,-3.879442E-05
597.1013,-3.876899E-05
597.2012,-3.87511E-05
597.3012,-3.87784E-05
597.4012,-3.876239E-05
597.5012,-3.873226E-05
597.6011,-3.878876E-05
597.7011,-3.874733E-05
597.8011,-3.872284E-05
597.9011,-3.874356E-05
598.001,-3.876145E-05
598.101,-3.870401E-05
598.201,-3.871907E-05
598.301,-3.874168E-05
598.4009,-3.871436E-05
598.5009,-3.871154E-05
598.6009,-3.870401E-05
598.7009,-3.868046E-05
598.8008,-3.870118E-05
598.9008,-3.871342E-05
599.0008,-3.870212E-05
599.1008,-3.866634E-05
599.2007,-3.874638E-05
599.3007,-3.86993E-05
599.4007,-3.867481E-05
599.5007,-3.870777E-05
599.6006,-3.870118E-05
599.7006,-3.865315E-05
599.8006,-3.868141E-05
599.9006,-3.867858E-05
600.0005,-3.865127E-05
