EXPID. 0245
[电化学]: i-t : @ 0(V) X 600(sec)
起始电位 (V),0
静置时间 (秒),0
运行时间 (秒),600
记录间隔,0.1
电解液 信息:
HNO3,0.4
0.1,-0.001257159
0.2,-0.001215321
0.3,-0.001181668
0.4,-0.001153477
0.5,-0.001129014
0.6,-0.001107346
0.7,-0.001087924
0.8000001,-0.001070321
0.9000001,-0.001054224
1,-0.001039331
1.1,-0.001025398
1.2,-0.0010125
1.3,-0.001000429
1.4,-0.0009890625
1.5,-0.0009783843
1.6,-0.0009683144
1.7,-0.0009587096
1.8,-0.0009495729
1.9,-0.0009408629
2,-0.0009326115
2.1,-0.0009247565
2.2,-0.0009172179
2.3,-0.0009101022
2.4,-0.0009031832
2.5,-0.0008964913
2.6,-0.0008901789
2.7,-0.000884004
2.799999,-0.0008780061
2.899999,-0.0008722521
2.999999,-0.0008667223
3.099999,-0.0008613223
3.199999,-0.0008561805
3.299999,-0.0008512279
3.399999,-0.0008464251
3.499999,-0.0008417155
3.599999,-0.0008372065
3.699999,-0.0008327116
3.799999,-0.0008284135
3.899998,-0.0008242794
3.999998,-0.0008202431
4.099998,-0.000816252
4.199998,-0.000812503
4.299998,-0.0008087276
4.399998,-0.0008050652
4.499998,-0.0008015196
4.599998,-0.0007980663
4.699998,-0.0007945659
4.799998,-0.0007912255
4.899998,-0.0007880256
4.999998,-0.000784786
5.099998,-0.0007817018
5.199997,-0.0007787495
5.299997,-0.0007758094
5.399997,-0.0007728928
5.499997,-0.000770158
5.599997,-0.0007673611
5.699997,-0.0007646687
5.799997,-0.000761981
5.899997,-0.0007594035
5.999997,-0.0007568542
6.099997,-0.0007544274
6.199996,-0.0007519713
6.299996,-0.0007496283
6.399996,-0.0007471628
6.499996,-0.0007448829
6.599996,-0.000742523
6.699996,-0.000740292
6.799996,-0.0007380789
6.899996,-0.0007358395
6.999996,-0.0007338016
7.099996,-0.0007316798
7.199996,-0.0007295733
7.299995,-0.0007275908
7.399995,-0.0007255868
7.499995,-0.0007236102
7.599995,-0.0007216306
7.699995,-0.0007196483
7.799995,-0.0007177884
7.899995,-0.0007158277
7.999995,-0.0007139734
8.099995,-0.0007122284
8.199995,-0.0007104212
8.299995,-0.0007086394
8.399996,-0.0007069132
8.499996,-0.0007052869
8.599997,-0.0007035927
8.699997,-0.0007019145
8.799997,-0.0007003513
8.899998,-0.0006987758
8.999998,-0.0006970552
9.099998,-0.0006955268
9.199999,-0.0006940502
9.299999,-0.0006924699
9.4,-0.0006909547
9.5,-0.0006894234
9.6,-0.0006880381
9.700001,-0.000686441
9.800001,-0.0006850378
9.900002,-0.0006835291
10,-0.0006820845
10.1,-0.0006807293
10.2,-0.0006791971
10.3,-0.0006778382
10.4,-0.0006764868
10.5,-0.0006750206
10.6,-0.0006736815
10.7,-0.000672219
10.8,-0.0006709034
10.90001,-0.0006695284
11.00001,-0.0006680697
11.10001,-0.0006669349
11.20001,-0.0006656448
11.30001,-0.0006643235
11.40001,-0.0006630945
11.50001,-0.0006618787
11.60001,-0.0006606394
11.70001,-0.0006594039
11.80001,-0.0006581589
11.90001,-0.0006570684
12.00001,-0.0006559129
12.10001,-0.0006547347
12.20001,-0.0006535463
12.30001,-0.0006524633
12.40001,-0.0006514048
12.50001,-0.0006502295
12.60001,-0.0006491032
12.70001,-0.0006481088
12.80001,-0.0006469909
12.90001,-0.0006458043
13.00001,-0.0006447562
13.10001,-0.000643724
13.20001,-0.0006426269
13.30001,-0.0006415732
13.40001,-0.0006404374
13.50002,-0.0006394834
13.60002,-0.0006385209
13.70002,-0.0006373768
13.80002,-0.0006364727
13.90002,-0.0006353916
14.00002,-0.0006344263
14.10002,-0.0006334093
14.20002,-0.0006323922
14.30002,-0.000631474
14.40002,-0.0006304993
14.50002,-0.0006294766
14.60002,-0.0006285876
14.70002,-0.0006275884
14.80002,-0.0006266382
14.90002,-0.0006256522
15.00002,-0.0006247491
15.10002,-0.0006238883
15.20002,-0.0006228505
15.30002,-0.0006219333
15.40002,-0.0006209803
15.50002,-0.0006200686
15.60002,-0.000619174
15.70002,-0.0006183331
15.80002,-0.0006174243
15.90002,-0.000616524
16.00002,-0.0006156341
16.10003,-0.0006147649
16.20003,-0.0006137977
16.30003,-0.0006129558
16.40003,-0.0006120574
16.50003,-0.0006111288
16.60003,-0.0006103104
16.70003,-0.0006094507
16.80003,-0.0006085758
16.90003,-0.0006077772
17.00003,-0.0006069541
17.10003,-0.0006059973
17.20003,-0.0006052637
17.30003,-0.0006044953
17.40003,-0.0006036336
17.50003,-0.0006028387
17.60003,-0.0006021315
17.70003,-0.0006013499
17.80003,-0.0006005683
17.90003,-0.0005997
18.00003,-0.0005989918
18.10003,-0.0005982036
18.20003,-0.0005973748
18.30003,-0.0005965819
18.40003,-0.0005958681
18.50003,-0.0005950507
18.60003,-0.0005943161
18.70004,-0.0005935665
18.80004,-0.0005928536
18.90004,-0.0005920795
19.00004,-0.0005913732
19.10004,-0.0005905878
19.20004,-0.0005899012
19.30004,-0.0005891563
19.40004,-0.0005884049
19.50004,-0.0005876768
19.60004,-0.0005869
19.70004,-0.0005861145
19.80004,-0.0005854986
19.90004,-0.0005846859
20.00004,-0.0005838789
20.10004,-0.0005832103
20.20004,-0.000582503
20.30004,-0.0005816912
20.40004,-0.0005810396
20.50004,-0.0005802523
20.60004,-0.0005796534
20.70004,-0.0005789508
20.80004,-0.0005782256
20.90004,-0.0005775721
21.00004,-0.000576878
21.10004,-0.0005761671
21.20004,-0.0005754872
21.30005,-0.0005747346
21.40005,-0.0005740594
21.50005,-0.0005733117
21.60005,-0.0005726205
21.70005,-0.0005719622
21.80005,-0.0005712616
21.90005,-0.000570576
22.00005,-0.0005698819
22.10005,-0.0005692114
22.20005,-0.0005686313
22.30005,-0.0005678789
22.40005,-0.0005672112
22.50005,-0.0005665784
22.60005,-0.0005657891
22.70005,-0.0005652044
22.80005,-0.0005645216
22.90005,-0.0005638407
23.00005,-0.0005632681
23.10005,-0.00056251
23.20005,-0.0005618574
23.30005,-0.0005611944
23.40005,-0.0005605362
23.50005,-0.0005597932
23.60005,-0.0005590568
23.70005,-0.0005584493
23.80005,-0.0005578569
23.90005,-0.0005571478
24.00006,-0.0005565564
24.10006,-0.0005559104
24.20006,-0.0005552464
24.30006,-0.0005546344
24.40006,-0.0005539742
24.50006,-0.0005533404
24.60006,-0.0005526812
24.70006,-0.0005520775
24.80006,-0.0005513798
24.90006,-0.00055081
25.00006,-0.0005501715
25.10006,-0.0005495603
25.20006,-0.0005488889
25.30006,-0.000548354
25.40006,-0.0005476891
25.50006,-0.0005470835
25.60006,-0.0005465213
25.70006,-0.0005458631
25.80006,-0.0005452943
25.90006,-0.0005447933
26.00006,-0.0005441077
26.10006,-0.0005435276
26.20006,-0.0005429541
26.30006,-0.0005423636
26.40006,-0.0005416978
26.50006,-0.0005411017
26.60007,-0.0005405941
26.70007,-0.000539933
26.80007,-0.0005393632
26.90007,-0.0005389649
27.00007,-0.0005383019
27.10007,-0.0005377915
27.20007,-0.0005372217
27.30007,-0.0005365852
27.40007,-0.0005360483
27.50007,-0.0005353232
27.60007,-0.0005348015
27.70007,-0.0005341131
27.80007,-0.0005334963
27.90007,-0.0005329209
28.00007,-0.000532273
28.10007,-0.0005317155
28.20007,-0.0005311542
28.30007,-0.0005304987
28.40007,-0.0005299601
28.50007,-0.0005292961
28.60007,-0.000528764
28.70007,-0.0005281905
28.80007,-0.0005275332
28.90007,-0.0005270049
29.00007,-0.0005264916
29.10007,-0.0005258946
29.20008,-0.0005253089
29.30008,-0.0005247692
29.40008,-0.0005242089
29.50008,-0.0005236458
29.60008,-0.0005231202
29.70008,-0.0005225722
29.80008,-0.0005219873
29.90008,-0.0005214789
30.00008,-0.0005210033
30.10008,-0.0005204853
30.20008,-0.0005199136
30.30008,-0.0005193459
30.40008,-0.000518858
30.50008,-0.0005183325
30.60008,-0.0005177505
30.70008,-0.0005171996
30.80008,-0.0005167212
30.90008,-0.0005161806
31.00008,-0.0005156118
31.10008,-0.0005151834
31.20008,-0.0005146813
31.30008,-0.0005140711
31.40008,-0.0005135767
31.50008,-0.0005130739
31.60008,-0.000512522
31.70008,-0.0005120276
31.80009,-0.0005115059
31.90009,-0.0005109343
32.00008,-0.0005105086
32.10008,-0.0005099238
32.20008,-0.0005094614
32.30008,-0.0005088502
32.40008,-0.0005084245
32.50008,-0.0005078021
32.60007,-0.0005072832
32.70007,-0.0005068669
32.80007,-0.0005063753
32.90007,-0.0005057887
33.00007,-0.0005053338
33.10007,-0.000504781
33.20007,-0.0005042951
33.30006,-0.0005037366
33.40006,-0.0005031602
33.50006,-0.0005026677
33.60006,-0.0005020905
33.70006,-0.0005015951
33.80006,-0.0005011412
33.90005,-0.0005006355
34.00005,-0.0005001203
34.10005,-0.0004995845
34.20005,-0.0004990477
34.30005,-0.0004985919
34.40005,-0.0004979986
34.50005,-0.0004975278
34.60004,-0.0004970108
34.70004,-0.0004964938
34.80004,-0.000496037
34.90004,-0.0004955219
35.00004,-0.0004950407
35.10004,-0.0004945641
35.20004,-0.0004940396
35.30003,-0.0004935876
35.40003,-0.000493112
35.50003,-0.0004926562
35.60003,-0.0004921863
35.70003,-0.0004916156
35.80003,-0.0004911183
35.90002,-0.0004907652
36.00002,-0.0004902275
36.10002,-0.0004897519
36.20002,-0.0004892594
36.30002,-0.0004888281
36.40002,-0.0004882998
36.50002,-0.0004878213
36.60001,-0.0004874117
36.70001,-0.000486873
36.80001,-0.0004864153
36.90001,-0.0004859718
37.00001,-0.0004854246
37.10001,-0.0004849914
37.2,-0.0004844499
37.3,-0.0004839857
37.4,-0.000483447
37.5,-0.0004829272
37.6,-0.0004824883
37.7,-0.0004820495
37.8,-0.000481557
37.89999,-0.0004810691
37.99999,-0.0004806651
38.09999,-0.0004801839
38.19999,-0.0004797554
38.29999,-0.000479293
38.39999,-0.0004788307
38.49998,-0.0004783974
38.59998,-0.0004779379
38.69998,-0.0004774962
38.79998,-0.0004770376
38.89998,-0.0004765705
38.99998,-0.0004760582
39.09998,-0.0004756353
39.19997,-0.0004752238
39.29997,-0.0004747162
39.39997,-0.0004742793
39.49997,-0.0004738818
39.59997,-0.0004733959
39.69997,-0.0004728826
39.79996,-0.0004725078
39.89996,-0.0004719805
39.99996,-0.0004715624
40.09996,-0.0004710614
40.19996,-0.0004706809
40.29996,-0.0004701498
40.39996,-0.0004696685
40.49995,-0.0004692382
40.59995,-0.0004687607
40.69995,-0.0004682917
40.79995,-0.000467899
40.89995,-0.0004674121
40.99995,-0.0004669677
41.09995,-0.0004664827
41.19994,-0.0004660673
41.29994,-0.0004656841
41.39994,-0.0004651464
41.49994,-0.0004647376
41.59994,-0.0004642376
41.69994,-0.000463779
41.79993,-0.0004634249
41.89993,-0.0004628994
41.99993,-0.0004625057
42.09993,-0.0004621168
42.19993,-0.0004616714
42.29993,-0.000461225
42.39993,-0.0004607513
42.49992,-0.000460416
42.59992,-0.000459916
42.69992,-0.0004594244
42.79992,-0.0004590571
42.89992,-0.0004586192
42.99992,-0.0004581615
43.09991,-0.0004578262
43.19991,-0.0004573827
43.29991,-0.0004568921
43.39991,-0.0004565897
43.49991,-0.0004561255
43.59991,-0.0004557102
43.69991,-0.0004553354
43.7999,-0.0004549907
43.8999,-0.0004544341
43.9999,-0.0004539953
44.0999,-0.0004536365
44.1999,-0.0004531986
44.2999,-0.0004526995
44.39989,-0.0004523576
44.49989,-0.0004519273
44.59989,-0.0004514696
44.69989,-0.0004511146
44.79989,-0.0004506503
44.89989,-0.0004502811
44.99989,-0.0004498432
45.09988,-0.0004493394
45.19988,-0.0004489712
45.29988,-0.0004485832
45.39988,-0.0004482159
45.49988,-0.0004477271
45.59988,-0.0004473514
45.69987,-0.0004470152
45.79987,-0.0004465613
45.89987,-0.0004461309
45.99987,-0.0004457777
46.09987,-0.0004453643
46.19987,-0.0004449132
46.29987,-0.0004445205
46.39986,-0.0004441608
46.49986,-0.000443705
46.59986,-0.0004433208
46.69986,-0.0004429507
46.79986,-0.0004425109
46.89986,-0.0004421257
46.99986,-0.0004418648
47.09985,-0.0004414995
47.19985,-0.0004410842
47.29985,-0.000440747
47.39985,-0.0004403411
47.49985,-0.0004399051
47.59985,-0.0004396132
47.69984,-0.0004392176
47.79984,-0.000438776
47.89984,-0.0004384172
47.99984,-0.0004380141
48.09984,-0.0004375847
48.19984,-0.000437111
48.29984,-0.0004367626
48.39983,-0.0004363426
48.49983,-0.0004359329
48.59983,-0.0004355411
48.69983,-0.0004351606
48.79983,-0.0004347161
48.89983,-0.0004343856
48.99982,-0.000433975
49.09982,-0.0004335494
49.19982,-0.0004332188
49.29982,-0.0004328346
49.39982,-0.0004323901
49.49982,-0.0004320237
49.59982,-0.0004316443
49.69981,-0.0004312751
49.79981,-0.0004308551
49.89981,-0.0004304887
49.99981,-0.0004300414
50.09981,-0.0004296751
50.19981,-0.0004293869
50.2998,-0.0004289914
50.3998,-0.0004285836
50.4998,-0.0004282239
50.5998,-0.0004278011
50.6998,-0.0004274385
50.7998,-0.0004270241
50.8998,-0.0004266483
50.99979,-0.0004262698
51.09979,-0.0004258903
51.19979,-0.0004255183
51.29979,-0.0004251538
51.39979,-0.0004247527
51.49979,-0.0004244372
51.59978,-0.0004240595
51.69978,-0.0004236433
51.79978,-0.0004233429
51.89978,-0.0004229991
51.99978,-0.0004226404
52.09978,-0.0004222693
52.19978,-0.0004219077
52.29977,-0.0004216026
52.39977,-0.0004212626
52.49977,-0.0004208303
52.59977,-0.0004205394
52.69977,-0.0004201806
52.79977,-0.0004197737
52.89977,-0.000419478
52.99976,-0.0004191023
53.09976,-0.0004186691
53.19976,-0.0004183413
53.29976,-0.0004179703
53.39976,-0.0004176473
53.49976,-0.0004172725
53.59975,-0.0004169476
53.69975,-0.0004165888
53.79975,-0.0004162488
53.89975,-0.0004158891
53.99975,-0.0004155416
54.09975,-0.000415164
54.19975,-0.0004148663
54.29974,-0.0004145311
54.39974,-0.0004141563
54.49974,-0.000413806
54.59974,-0.0004134434
54.69974,-0.0004131439
54.79974,-0.0004126976
54.89973,-0.0004123943
54.99973,-0.0004121118
55.09973,-0.0004117408
55.19973,-0.0004113386
55.29973,-0.0004110684
55.39973,-0.000410751
55.49973,-0.0004103884
55.59972,-0.0004100371
55.69972,-0.0004097311
55.79972,-0.0004093987
55.89972,-0.0004090116
55.99972,-0.0004087018
56.09972,-0.0004083543
56.19971,-0.0004080614
56.29971,-0.000407697
56.39971,-0.0004072741
56.49971,-0.0004069408
56.59971,-0.0004066158
56.69971,-0.000406226
56.79971,-0.0004058145
56.8997,-0.0004055319
56.9997,-0.0004051411
57.0997,-0.0004047747
57.1997,-0.0004044941
57.2997,-0.0004041024
57.3997,-0.0004037464
57.49969,-0.000403381
57.59969,-0.0004030504
57.69969,-0.0004026784
57.79969,-0.0004023253
57.89969,-0.0004019967
57.99969,-0.0004016605
58.09969,-0.0004012828
58.19968,-0.0004009956
58.29968,-0.0004006161
58.39968,-0.0004002752
58.49968,-0.00039997
58.59968,-0.0003995774
58.69968,-0.0003992647
58.79967,-0.0003989991
58.89967,-0.0003986036
58.99967,-0.0003982881
59.09967,-0.0003979651
59.19967,-0.0003975781
59.29967,-0.0003972033
59.39967,-0.0003968793
59.49966,-0.0003966043
59.59966,-0.000396253
59.69966,-0.0003959442
59.79966,-0.0003956645
59.89966,-0.0003953198
59.99966,-0.0003949478
60.09966,-0.0003947086
60.19965,-0.0003943733
60.29965,-0.0003940362
60.39965,-0.0003937235
60.49965,-0.0003934024
60.59965,-0.0003931171
60.69965,-0.0003927724
60.79964,-0.0003924372
60.89964,-0.000392149
60.99964,-0.0003917996
61.09964,-0.0003914926
61.19964,-0.0003911818
61.29964,-0.0003908362
61.39964,-0.0003905386
61.49963,-0.0003902222
61.59963,-0.0003897899
61.69963,-0.0003894283
61.79963,-0.0003891232
61.89963,-0.0003887851
61.99963,-0.0003884913
62.09962,-0.0003881843
62.19962,-0.0003878434
62.29962,-0.0003874328
62.39962,-0.0003871069
62.49962,-0.0003868075
62.59962,-0.0003864355
62.69962,-0.0003861417
62.79961,-0.0003857885
62.89961,-0.0003854975
62.99961,-0.0003852273
63.09961,-0.0003848731
63.19961,-0.0003845737
63.29961,-0.0003842431
63.3996,-0.0003839474
63.4996,-0.0003835538
63.5996,-0.0003833118
63.6996,-0.0003830217
63.7996,-0.000382678
63.8996,-0.0003823917
63.9996,-0.0003820932
64.09959,-0.0003817325
64.19959,-0.0003814029
64.29959,-0.0003811401
64.39959,-0.000380771
64.49959,-0.0003804423
64.59959,-0.0003801918
64.69958,-0.0003798716
64.79958,-0.000379607
64.89958,-0.0003792153
64.99958,-0.0003789355
65.09958,-0.0003785899
65.19958,-0.0003782933
65.29958,-0.0003780145
65.39957,-0.0003776746
65.49957,-0.0003773365
65.59957,-0.0003771208
65.69957,-0.0003767291
65.79957,-0.0003764532
65.89957,-0.0003761066
65.99957,-0.000375841
66.09956,-0.0003754916
66.19956,-0.0003751705
66.29956,-0.0003748899
66.39956,-0.000374564
66.49956,-0.0003742806
66.59956,-0.0003740178
66.69955,-0.0003736845
66.79955,-0.0003733369
66.89955,-0.0003731768
66.99955,-0.0003728378
67.09955,-0.0003725393
67.19955,-0.0003723142
67.29955,-0.0003719997
67.39954,-0.0003716851
67.49954,-0.0003714365
67.59954,-0.0003711258
67.69954,-0.0003707735
67.79954,-0.0003704647
67.89954,-0.0003701567
67.99953,-0.0003698488
68.09953,-0.0003695126
68.19953,-0.0003693045
68.29953,-0.0003689814
68.39953,-0.0003686735
68.49953,-0.0003684352
68.59953,-0.0003681216
68.69952,-0.0003678259
68.79952,-0.0003675566
68.89952,-0.0003672148
68.99952,-0.0003669125
69.09952,-0.0003666535
69.19952,-0.0003663879
69.29951,-0.0003660884
69.39951,-0.000365772
69.49951,-0.0003655046
69.59951,-0.0003652503
69.69951,-0.000364915
69.79951,-0.0003646363
69.89951,-0.0003642954
69.9995,-0.0003640176
70.0995,-0.000363736
70.1995,-0.0003634167
70.2995,-0.0003631343
70.3995,-0.0003627754
70.4995,-0.000362491
70.59949,-0.0003622292
70.69949,-0.0003619373
70.79949,-0.0003616359
70.89949,-0.0003613139
70.99949,-0.0003610304
71.09949,-0.0003608063
71.19949,-0.0003605087
71.29948,-0.0003602271
71.39948,-0.0003599456
71.49948,-0.0003596385
71.59948,-0.0003593569
71.69948,-0.0003590706
71.79948,-0.0003588136
71.89948,-0.0003585216
71.99947,-0.0003582457
72.09947,-0.0003580103
72.19947,-0.0003577183
72.29947,-0.0003574414
72.39947,-0.0003572164
72.49947,-0.0003569291
72.59946,-0.0003566551
72.69946,-0.0003564432
72.79946,-0.0003561316
72.89946,-0.0003558387
72.99946,-0.0003555618
73.09946,-0.0003552661
73.19946,-0.0003549647
73.29945,-0.000354653
73.39945,-0.0003543978
73.49945,-0.0003541454
73.59945,-0.0003538459
73.69945,-0.0003535898
73.79945,-0.0003533073
73.89944,-0.0003530408
73.99944,-0.0003528016
74.09944,-0.0003524748
74.19944,-0.0003522233
74.29944,-0.0003519352
74.39944,-0.0003516432
74.49944,-0.0003513391
74.59943,-0.0003510867
74.69943,-0.0003507947
74.79943,-0.0003504971
74.89943,-0.0003502297
74.99943,-0.0003500065
75.09943,-0.0003497136
75.19942,-0.00034945
75.29942,-0.0003492126
75.39942,-0.000348931
75.49942,-0.0003486363
75.59942,-0.0003484479
75.69942,-0.0003481532
75.79942,-0.0003478763
75.89941,-0.0003476107
75.99941,-0.0003473273
76.09941,-0.0003470316
76.19941,-0.0003467641
76.29941,-0.0003465334
76.39941,-0.0003462801
76.4994,-0.0003460239
76.5994,-0.0003458083
76.6994,-0.0003455342
76.7994,-0.0003452479
76.8994,-0.000345069
76.9994,-0.0003447874
77.0994,-0.000344519
77.19939,-0.0003442827
77.29939,-0.0003439973
77.39939,-0.0003437515
77.49939,-0.0003435368
77.59939,-0.0003432524
77.69939,-0.000342985
77.79939,-0.0003426949
77.89938,-0.0003424952
77.99938,-0.0003422381
78.09938,-0.0003419274
78.19938,-0.0003417042
78.29938,-0.0003414047
78.39938,-0.0003411344
78.49937,-0.0003408293
78.59937,-0.0003406061
78.69937,-0.0003402878
78.79937,-0.0003399526
78.89937,-0.0003397115
78.99937,-0.0003394243
79.09937,-0.0003391521
79.19936,-0.0003389299
79.29936,-0.0003386144
79.39936,-0.0003383658
79.49936,-0.0003381378
79.59936,-0.000337828
79.69936,-0.0003375455
79.79935,-0.0003372884
79.89935,-0.0003370219
79.99935,-0.0003367545
80.09935,-0.0003365011
80.19935,-0.0003362638
80.29935,-0.000336002
80.39935,-0.0003357186
80.49934,-0.0003355189
80.59934,-0.0003352524
80.69934,-0.0003349755
80.79934,-0.0003347514
80.89934,-0.0003344773
80.99934,-0.0003342184
81.09933,-0.0003340197
81.19933,-0.0003337635
81.29933,-0.0003335149
81.39933,-0.000333271
81.49933,-0.0003330864
81.59933,-0.0003327916
81.69933,-0.0003325346
81.79932,-0.0003322417
81.89932,-0.0003319498
81.99932,-0.0003317002
82.09932,-0.0003314384
82.19932,-0.0003311907
82.29932,-0.0003309562
82.39931,-0.0003306756
82.49931,-0.0003304731
82.59931,-0.0003302301
82.69931,-0.0003299325
82.79931,-0.0003297291
82.89931,-0.0003294523
82.99931,-0.0003292215
83.0993,-0.0003290059
83.1993,-0.0003287036
83.2993,-0.0003284578
83.3993,-0.00032818
83.4993,-0.000327985
83.5993,-0.0003276856
83.6993,-0.0003273814
83.79929,-0.000327194
83.89929,-0.0003269774
83.99929,-0.0003267259
84.09929,-0.0003265084
84.19929,-0.0003262711
84.29929,-0.000326047
84.39928,-0.0003257889
84.49928,-0.0003255582
84.59928,-0.0003252493
84.69928,-0.0003250817
84.79928,-0.0003248067
84.89928,-0.0003245506
84.99928,-0.000324285
85.09927,-0.0003240769
85.19927,-0.0003237444
85.29927,-0.0003234864
85.39927,-0.0003232849
85.49927,-0.0003229939
85.59927,-0.0003227575
85.69926,-0.0003225371
85.79926,-0.0003222753
85.89926,-0.0003219834
85.99926,-0.0003217301
86.09926,-0.0003214937
86.19926,-0.000321231
86.29926,-0.0003209786
86.39925,-0.0003207412
86.49925,-0.0003205275
86.59925,-0.0003202892
86.69925,-0.0003200952
86.79925,-0.0003198325
86.89925,-0.0003196046
86.99924,-0.0003193842
87.09924,-0.0003191252
87.19924,-0.0003189105
87.29924,-0.000318709
87.39924,-0.0003184001
87.49924,-0.0003182221
87.59924,-0.0003180262
87.69923,-0.0003177965
87.79923,-0.000317562
87.89923,-0.0003173397
87.99923,-0.0003171712
88.09923,-0.0003169395
88.19923,-0.0003166607
88.29922,-0.0003164856
88.39922,-0.0003162172
88.49922,-0.0003159488
88.59922,-0.0003157576
88.69922,-0.0003155033
88.79922,-0.0003152707
88.89922,-0.0003150447
88.99921,-0.0003148215
89.09921,-0.0003145541
89.19921,-0.000314377
89.29921,-0.0003140983
89.39921,-0.0003138459
89.49921,-0.0003136067
89.59921,-0.0003134353
89.6992,-0.0003131933
89.7992,-0.0003129249
89.8992,-0.0003127459
89.9992,-0.0003125209
90.0992,-0.0003122657
90.1992,-0.0003120698
90.29919,-0.0003118711
90.39919,-0.0003116366
90.49919,-0.0003114483
90.59919,-0.000311226
90.69919,-0.0003110169
90.79919,-0.0003107853
90.89919,-0.000310579
90.99918,-0.0003103897
91.09918,-0.000310175
91.19918,-0.0003099245
91.29918,-0.000309723
91.39918,-0.0003095563
91.49918,-0.0003093209
91.59917,-0.0003090609
91.69917,-0.0003088905
91.79917,-0.0003086833
91.89917,-0.0003084347
91.99917,-0.0003081974
92.09917,-0.0003080307
92.19917,-0.0003078094
92.29916,-0.0003075259
92.39916,-0.0003072594
92.49916,-0.0003070664
92.59916,-0.0003068197
92.69916,-0.0003065814
92.79916,-0.0003064043
92.89915,-0.0003061944
92.99915,-0.0003059476
93.09915,-0.0003057583
93.19915,-0.0003055285
93.29915,-0.0003052837
93.39915,-0.0003051085
93.49915,-0.000304922
93.59914,-0.0003047139
93.69914,-0.0003044757
93.79914,-0.0003042186
93.89914,-0.0003040001
93.99914,-0.0003038052
94.09914,-0.0003035952
94.19913,-0.0003033437
94.29913,-0.0003031101
94.39913,-0.0003029407
94.49913,-0.0003027108
94.59913,-0.0003024943
94.69913,-0.0003023257
94.79913,-0.0003021034
94.89912,-0.0003018256
94.99912,-0.00030169
95.09912,-0.0003014838
95.19912,-0.0003012154
95.29912,-0.0003010167
95.39912,-0.0003008462
95.49911,-0.0003006532
95.59911,-0.0003003819
95.69911,-0.00030022
95.79911,-0.0003000344
95.89911,-0.0002997934
95.99911,-0.0002996201
96.09911,-0.0002994459
96.1991,-0.0002992208
96.2991,-0.0002990249
96.3991,-0.0002988413
96.4991,-0.0002986539
96.5991,-0.0002984863
96.6991,-0.0002982518
96.7991,-0.0002980418
96.89909,-0.0002978647
96.99909,-0.000297651
97.09909,-0.0002974466
97.19909,-0.0002972403
97.29909,-0.0002970492
97.39909,-0.0002968721
97.49908,-0.0002966555
97.59908,-0.0002964483
97.69908,-0.0002962807
97.79908,-0.0002960472
97.89908,-0.000295857
97.99908,-0.0002956931
98.09908,-0.000295501
98.19907,-0.0002952947
98.29907,-0.0002950875
98.39907,-0.0002948823
98.49907,-0.0002947194
98.59907,-0.0002945159
98.69907,-0.000294256
98.79906,-0.00029411
98.89906,-0.0002939349
98.99906,-0.0002936994
99.09906,-0.0002934668
99.19906,-0.0002933407
99.29906,-0.0002930902
99.39906,-0.0002928764
99.49905,-0.0002927313
99.59905,-0.0002925628
99.69905,-0.0002923104
99.79905,-0.0002921155
99.89905,-0.000291928
99.99905,-0.0002917199
100.099,-0.0002915401
100.199,-0.0002913018
100.299,-0.0002911012
100.399,-0.0002908451
100.499,-0.0002906369
100.599,-0.0002904043
100.699,-0.0002901736
100.799,-0.0002899918
100.899,-0.0002897696
100.999,-0.0002895521
101.099,-0.0002893534
101.199,-0.000289148
101.299,-0.0002889098
101.399,-0.0002887318
101.499,-0.0002885208
101.599,-0.0002882619
101.699,-0.0002880199
101.799,-0.0002878503
101.899,-0.0002876158
101.999,-0.0002873616
102.099,-0.0002872024
102.199,-0.000286983
102.299,-0.0002867701
102.399,-0.0002865376
102.499,-0.0002863784
102.599,-0.0002861223
102.699,-0.0002858991
102.799,-0.0002856815
102.899,-0.0002855083
102.999,-0.0002852822
103.099,-0.0002851495
103.199,-0.0002849423
103.299,-0.0002847794
103.399,-0.0002845957
103.499,-0.0002844225
103.599,-0.0002842426
103.699,-0.0002840684
103.799,-0.0002838772
103.899,-0.0002836832
103.999,-0.0002835363
104.099,-0.000283331
104.199,-0.0002831219
104.299,-0.0002829788
104.399,-0.0002827829
104.499,-0.0002825361
104.599,-0.0002823996
104.699,-0.0002822348
104.799,-0.0002820775
104.899,-0.0002818732
104.999,-0.0002816914
105.099,-0.0002815125
105.199,-0.0002812921
105.299,-0.0002810708
105.399,-0.0002809239
105.499,-0.0002807026
105.599,-0.0002805105
105.699,-0.0002803655
105.799,-0.0002801536
105.899,-0.0002799502
105.999,-0.0002798616
106.099,-0.0002796432
106.199,-0.0002794576
106.299,-0.0002792937
106.3989,-0.0002790922
106.4989,-0.0002788719
106.5989,-0.0002787099
106.6989,-0.0002784961
106.7989,-0.0002782729
106.8989,-0.000278111
106.9989,-0.0002779622
107.0989,-0.0002777541
107.1989,-0.0002775478
107.2989,-0.0002774159
107.3989,-0.0002772436
107.4989,-0.0002770506
107.5989,-0.000276882
107.6989,-0.000276688
107.7989,-0.0002765185
107.8989,-0.0002763217
107.9989,-0.000276138
108.0989,-0.0002759591
108.1989,-0.0002758329
108.2989,-0.000275604
108.3989,-0.0002753978
108.4989,-0.0002752669
108.5989,-0.0002751031
108.6989,-0.0002748723
108.7989,-0.0002747254
108.8989,-0.0002745785
108.9989,-0.0002743949
109.0989,-0.000274184
109.1989,-0.0002740267
109.2989,-0.0002738383
109.3989,-0.0002736302
109.4989,-0.000273439
109.5989,-0.0002732827
109.6989,-0.0002730887
109.7989,-0.0002728787
109.8989,-0.0002727167
109.9989,-0.0002725792
110.0989,-0.0002723457
110.1989,-0.000272195
110.2989,-0.0002720302
110.3989,-0.0002718315
110.4989,-0.0002716959
110.5989,-0.0002714802
110.6989,-0.0002712957
110.7989,-0.0002711572
110.8989,-0.0002709472
110.9989,-0.0002707447
111.0989,-0.0002706082
111.1989,-0.0002703756
111.2989,-0.0002702211
111.3989,-0.0002700319
111.4989,-0.0002698557
111.5989,-0.0002696721
111.6989,-0.0002694998
111.7989,-0.0002693557
111.8989,-0.0002691711
111.9989,-0.0002690138
112.0989,-0.0002688406
112.1989,-0.0002686776
112.2989,-0.0002684385
112.3989,-0.0002682642
112.4989,-0.0002680523
112.5989,-0.0002678847
112.6989,-0.0002676728
112.7989,-0.000267556
112.8988,-0.0002673479
112.9988,-0.0002671822
113.0988,-0.0002670324
113.1988,-0.0002668667
113.2988,-0.0002667009
113.3988,-0.0002665813
113.4988,-0.0002663779
113.5988,-0.0002661698
113.6988,-0.0002660379
113.7988,-0.0002658468
113.8988,-0.0002655953
113.9988,-0.0002653948
114.0988,-0.0002652639
114.1988,-0.0002650068
114.2988,-0.0002648203
114.3988,-0.0002646677
114.4988,-0.0002644756
114.5988,-0.0002642779
114.6988,-0.0002641225
114.7988,-0.0002639501
114.8988,-0.0002637675
114.9988,-0.0002636158
115.0988,-0.0002634256
115.1988,-0.0002632815
115.2988,-0.0002630583
115.3988,-0.0002629029
115.4988,-0.0002627372
115.5988,-0.0002625762
115.6988,-0.0002623859
115.7988,-0.0002622258
115.8988,-0.0002620535
115.9988,-0.0002619075
116.0988,-0.0002617003
116.1988,-0.0002615516
116.2988,-0.0002614141
116.3988,-0.0002612492
116.4988,-0.0002610854
116.5988,-0.0002609413
116.6988,-0.0002607859
116.7988,-0.0002606183
116.8988,-0.0002604657
116.9988,-0.0002603621
117.0988,-0.0002601568
117.1988,-0.0002599958
117.2988,-0.0002598253
117.3988,-0.0002596379
117.4988,-0.0002594524
117.5988,-0.0002593131
117.6988,-0.0002591511
117.7988,-0.0002589872
117.8988,-0.0002588102
117.9988,-0.000258684
118.0988,-0.0002585098
118.1988,-0.0002583544
118.2988,-0.0002582028
118.3988,-0.0002580549
118.4988,-0.0002579089
118.5988,-0.0002577771
118.6988,-0.0002575746
118.7988,-0.0002574051
118.8988,-0.0002572968
118.9988,-0.0002571236
119.0988,-0.0002569446
119.1988,-0.0002568194
119.2988,-0.0002566188
119.3988,-0.0002564332
119.4987,-0.0002563278
119.5987,-0.0002561686
119.6987,-0.0002559728
119.7987,-0.0002558381
119.8987,-0.000255677
119.9987,-0.000255531
120.0987,-0.0002553841
120.1987,-0.0002552326
120.2987,-0.0002550875
120.3987,-0.000254917
120.4987,-0.0002547748
120.5987,-0.0002545912
120.6987,-0.0002544208
120.7987,-0.0002542569
120.8987,-0.0002540328
120.9987,-0.0002538604
121.0987,-0.0002536956
121.1987,-0.0002535035
121.2987,-0.0002533368
121.3987,-0.0002531899
121.4987,-0.0002530694
121.5987,-0.0002528839
121.6987,-0.0002527426
121.7987,-0.0002526032
121.8987,-0.0002524121
121.9987,-0.0002522811
122.0987,-0.0002521154
122.1987,-0.0002519054
122.2987,-0.0002516982
122.3987,-0.0002515136
122.4987,-0.0002513696
122.5987,-0.0002511482
122.6987,-0.0002509637
122.7987,-0.0002507989
122.8987,-0.0002506793
122.9987,-0.0002504721
123.0987,-0.0002503647
123.1987,-0.0002502103
123.2987,-0.0002500521
123.3987,-0.0002499042
123.4987,-0.0002497686
123.5987,-0.0002496095
123.6987,-0.0002494249
123.7987,-0.0002492723
123.8987,-0.0002491631
123.9987,-0.0002489757
124.0987,-0.0002488203
124.1987,-0.0002486489
124.2987,-0.0002484134
124.3987,-0.0002482166
124.4987,-0.0002480537
124.5987,-0.0002478673
124.6987,-0.0002477232
124.7987,-0.0002475489
124.8987,-0.0002473851
124.9987,-0.0002472287
125.0987,-0.0002470753
125.1987,-0.0002468709
125.2987,-0.0002467089
125.3987,-0.000246563
125.4987,-0.000246369
125.5987,-0.0002461957
125.6987,-0.0002460751
125.7987,-0.0002458849
125.8987,-0.0002457361
125.9986,-0.0002455835
126.0986,-0.0002454272
126.1986,-0.0002452822
126.2986,-0.0002451004
126.3986,-0.0002449667
126.4986,-0.0002447991
126.5986,-0.0002446371
126.6986,-0.0002445232
126.7986,-0.00024438
126.8986,-0.0002441992
126.9986,-0.0002440608
127.0986,-0.0002439242
127.1986,-0.0002437566
127.2986,-0.0002436144
127.3986,-0.0002434826
127.4986,-0.0002433469
127.5986,-0.0002432104
127.6986,-0.0002430136
127.7986,-0.0002428845
127.8986,-0.0002427565
127.9986,-0.0002426152
128.0986,-0.0002424448
128.1986,-0.0002423383
128.2986,-0.0002421726
128.3986,-0.0002420502
128.4986,-0.0002418976
128.5986,-0.0002417742
128.6987,-0.0002416367
128.7987,-0.0002414945
128.8987,-0.0002413411
128.9987,-0.000241164
129.0987,-0.0002410114
129.1987,-0.000240857
129.2987,-0.0002406828
129.3987,-0.0002404982
129.4987,-0.0002403692
129.5987,-0.0002402129
129.6987,-0.0002400396
129.7987,-0.0002398757
129.8987,-0.0002397279
129.9987,-0.0002396083
130.0987,-0.0002394482
130.1987,-0.0002393116
130.2988,-0.0002391835
130.3988,-0.000239015
130.4988,-0.0002388586
130.5988,-0.0002387212
130.6988,-0.0002385658
130.7988,-0.0002384292
130.8988,-0.0002382833
130.9988,-0.0002381608
131.0988,-0.0002379913
131.1988,-0.0002378746
131.2988,-0.0002377559
131.3988,-0.0002375732
131.4988,-0.0002374423
131.5988,-0.0002373114
131.6988,-0.0002371306
131.7988,-0.0002370307
131.8988,-0.0002368678
131.9989,-0.0002367539
132.0989,-0.0002366173
132.1989,-0.0002364572
132.2989,-0.0002363084
132.3989,-0.0002361587
132.4989,-0.0002360372
132.5989,-0.0002358291
132.6989,-0.0002356709
132.7989,-0.0002355598
132.8989,-0.000235346
132.9989,-0.0002351944
133.0989,-0.0002350682
133.1989,-0.0002349166
133.2989,-0.0002347282
133.3989,-0.00023457
133.4989,-0.0002344193
133.599,-0.0002342592
133.699,-0.0002341029
133.799,-0.0002339711
133.899,-0.0002337903
133.999,-0.0002336471
134.099,-0.0002335397
134.199,-0.0002333778
134.299,-0.0002332233
134.399,-0.0002330849
134.499,-0.0002329361
134.599,-0.0002327817
134.699,-0.0002326112
134.799,-0.0002324841
134.899,-0.0002323372
134.999,-0.0002321573
135.099,-0.0002320085
135.1991,-0.0002318352
135.2991,-0.0002316968
135.3991,-0.0002315828
135.4991,-0.0002314378
135.5991,-0.0002312805
135.6991,-0.0002311656
135.7991,-0.0002310131
135.8991,-0.0002308907
135.9991,-0.0002307579
136.0991,-0.0002306129
136.1991,-0.0002304612
136.2991,-0.0002302851
136.3991,-0.0002301345
136.4991,-0.0002299678
136.5991,-0.000229818
136.6991,-0.0002296852
136.7991,-0.0002295449
136.8992,-0.0002293622
136.9992,-0.0002292398
137.0992,-0.0002290976
137.1992,-0.0002289479
137.2992,-0.0002288
137.3992,-0.0002286653
137.4992,-0.0002285015
137.5992,-0.0002283781
137.6992,-0.0002282331
137.7992,-0.000228089
137.8992,-0.0002279619
137.9992,-0.0002278225
138.0992,-0.0002276784
138.1992,-0.0002275475
138.2992,-0.0002274242
138.3992,-0.0002272819
138.4993,-0.0002271303
138.5993,-0.0002270456
138.6993,-0.0002269109
138.7993,-0.0002267762
138.8993,-0.0002266613
138.9993,-0.0002265352
139.0993,-0.0002264118
139.1993,-0.0002262658
139.2993,-0.0002261679
139.3993,-0.0002260398
139.4993,-0.0002258788
139.5993,-0.000225811
139.6993,-0.0002256772
139.7993,-0.0002255266
139.8993,-0.0002254475
139.9993,-0.0002253043
140.0993,-0.0002251725
140.1994,-0.000225083
140.2994,-0.0002249248
140.3994,-0.0002247986
140.4994,-0.0002246366
140.5994,-0.0002245406
140.6994,-0.0002243814
140.7994,-0.0002242552
140.8994,-0.000224162
140.9994,-0.0002239962
141.0994,-0.0002238625
141.1994,-0.00022371
141.2994,-0.0002236054
141.3994,-0.0002234114
141.4994,-0.0002232447
141.5994,-0.0002231025
141.6994,-0.0002229255
141.7995,-0.0002227532
141.8995,-0.0002226656
141.9995,-0.000222514
142.0995,-0.0002223397
142.1995,-0.0002222277
142.2995,-0.0002220987
142.3995,-0.0002219668
142.4995,-0.0002218218
142.5995,-0.0002216561
142.6995,-0.0002215468
142.7995,-0.0002213933
142.8995,-0.0002212464
142.9995,-0.0002210854
143.0995,-0.0002209497
143.1995,-0.0002208424
143.2995,-0.000220687
143.3996,-0.0002205486
143.4996,-0.0002204629
143.5996,-0.0002203244
143.6996,-0.0002201841
143.7996,-0.0002200815
143.8996,-0.0002199515
143.9996,-0.0002198084
144.0996,-0.0002196897
144.1996,-0.0002195852
144.2996,-0.0002194383
144.3996,-0.0002193224
144.4996,-0.0002191878
144.5996,-0.0002190267
144.6996,-0.0002188845
144.7996,-0.0002187536
144.8996,-0.0002185973
144.9996,-0.0002184589
145.0997,-0.0002183355
145.1997,-0.0002182036
145.2997,-0.0002180709
145.3997,-0.0002179419
145.4997,-0.0002178552
145.5997,-0.0002177497
145.6997,-0.0002176113
145.7997,-0.0002174889
145.8997,-0.00021739
145.9997,-0.0002172327
146.0997,-0.000217099
146.1997,-0.0002169794
146.2997,-0.0002168673
146.3997,-0.0002167327
146.4997,-0.0002166027
146.5997,-0.0002164897
146.6998,-0.0002163729
146.7998,-0.0002162458
146.8998,-0.0002161337
146.9998,-0.0002160075
147.0998,-0.0002158992
147.1998,-0.00021579
147.2998,-0.0002156261
147.3998,-0.0002155461
147.4998,-0.0002154199
147.5998,-0.0002152862
147.6998,-0.000215191
147.7998,-0.0002150705
147.8998,-0.0002149142
147.9998,-0.0002147965
148.0998,-0.0002147004
148.1998,-0.0002145215
148.2999,-0.0002143944
148.3999,-0.0002142427
148.4999,-0.0002140949
148.5999,-0.0002139084
148.6999,-0.0002138293
148.7999,-0.0002136881
148.8999,-0.0002135505
148.9999,-0.0002134234
149.0999,-0.0002132897
149.1999,-0.0002131259
149.2999,-0.000213027
149.3999,-0.0002128659
149.4999,-0.0002127435
149.5999,-0.0002126088
149.6999,-0.0002124968
149.7999,-0.0002123659
149.8999,-0.000212218
150,-0.0002121351
150.1,-0.0002119779
150.2,-0.0002118517
150.3,-0.0002117208
150.4,-0.0002116181
150.5,-0.000211443
150.6,-0.0002113205
150.7,-0.0002112075
150.8,-0.0002110842
150.9,-0.0002109288
151,-0.0002108497
151.1,-0.0002107216
151.2,-0.0002105775
151.3,-0.0002104588
151.4,-0.0002103534
151.5,-0.0002102291
151.6001,-0.0002100859
151.7001,-0.0002099513
151.8001,-0.000209826
151.9001,-0.0002097008
152.0001,-0.0002095802
152.1001,-0.0002094559
152.2001,-0.0002093184
152.3001,-0.0002092092
152.4001,-0.0002090849
152.5001,-0.0002089596
152.6001,-0.0002088429
152.7001,-0.0002087035
152.8001,-0.0002085697
152.9001,-0.0002084662
153.0001,-0.0002083098
153.1001,-0.0002081912
153.2001,-0.0002080603
153.3002,-0.0002079736
153.4002,-0.0002078437
153.5002,-0.0002076977
153.6002,-0.0002076233
153.7002,-0.0002074905
153.8002,-0.000207354
153.9002,-0.0002072673
154.0002,-0.0002071694
154.1002,-0.0002070225
154.2002,-0.0002069349
154.3002,-0.0002068059
154.4002,-0.0002067023
154.5002,-0.0002065572
154.6002,-0.0002064603
154.7002,-0.0002063614
154.8002,-0.0002062154
154.9003,-0.0002061269
155.0003,-0.0002059969
155.1003,-0.0002058868
155.2003,-0.0002057681
155.3003,-0.0002056504
155.4003,-0.0002055204
155.5003,-0.0002054545
155.6003,-0.0002053368
155.7003,-0.0002051861
155.8003,-0.0002051192
155.9003,-0.0002050222
156.0003,-0.0002048932
156.1003,-0.0002047699
156.2003,-0.0002046427
156.3003,-0.0002045382
156.4003,-0.0002044073
156.5004,-0.0002042999
156.6004,-0.0002041822
156.7004,-0.0002040777
156.8004,-0.0002039779
156.9004,-0.0002038498
157.0004,-0.000203717
157.1004,-0.0002036407
157.2004,-0.0002034995
157.3004,-0.0002033591
157.4004,-0.0002032753
157.5004,-0.0002031397
157.6004,-0.0002029938
157.7004,-0.0002028826
157.8004,-0.0002028035
157.9004,-0.0002026604
158.0004,-0.0002025493
158.1004,-0.0002024739
158.2005,-0.0002023242
158.3005,-0.000202197
158.4005,-0.0002021208
158.5005,-0.0002019738
158.6005,-0.0002018204
158.7005,-0.0002017714
158.8005,-0.0002016782
158.9005,-0.0002015247
159.0005,-0.0002014267
159.1005,-0.0002013438
159.2005,-0.000201228
159.3005,-0.0002011084
159.4005,-0.0002010189
159.5005,-0.0002009097
159.6005,-0.0002007506
159.7005,-0.0002006639
159.8006,-0.0002005537
159.9006,-0.0002004351
160.0006,-0.0002003136
160.1006,-0.0002002025
160.2006,-0.0002001187
160.3006,-0.0001999943
160.4006,-0.0001998757
160.5006,-0.0001997476
160.6006,-0.000199629
160.7006,-0.0001995103
160.8006,-0.0001993615
160.9006,-0.0001992183
161.0006,-0.0001991383
161.1006,-0.0001990149
161.2006,-0.0001989132
161.3006,-0.0001988134
161.4007,-0.000198691
161.5007,-0.0001985761
161.6007,-0.0001984989
161.7007,-0.0001983953
161.8007,-0.0001982728
161.9007,-0.0001981655
162.0007,-0.0001980845
162.1007,-0.0001979338
162.2007,-0.0001978142
162.3007,-0.0001977276
162.4007,-0.0001975939
162.5007,-0.0001974375
162.6007,-0.000197365
162.7007,-0.0001972558
162.8007,-0.0001971117
162.9007,-0.0001969883
163.0007,-0.0001969252
163.1008,-0.0001967642
163.2008,-0.0001966484
163.3008,-0.0001965871
163.4008,-0.0001964657
163.5008,-0.0001963159
163.6008,-0.0001962528
163.7008,-0.0001961577
163.8008,-0.0001960306
163.9008,-0.000195943
164.0008,-0.0001958328
164.1008,-0.0001957264
164.2008,-0.0001956294
164.3008,-0.0001955239
164.4008,-0.0001953977
164.5008,-0.0001952518
164.6008,-0.0001951802
164.7009,-0.0001950521
164.8009,-0.0001948986
164.9009,-0.0001947969
165.0009,-0.0001946717
165.1009,-0.0001945257
165.2009,-0.0001944306
165.3009,-0.0001943345
165.4009,-0.0001941763
165.5009,-0.0001940398
165.6009,-0.0001939277
165.7009,-0.0001938138
165.8009,-0.0001936951
165.9009,-0.0001935981
166.0009,-0.0001934945
166.1009,-0.0001933297
166.2009,-0.0001932412
166.3009,-0.0001931131
166.401,-0.0001930161
166.501,-0.0001929022
166.601,-0.0001927929
166.701,-0.0001926178
166.801,-0.0001925123
166.901,-0.0001923974
167.001,-0.0001922674
167.101,-0.0001921441
167.201,-0.0001920593
167.301,-0.0001919181
167.401,-0.0001918192
167.501,-0.0001917118
167.601,-0.0001916242
167.701,-0.0001914632
167.801,-0.0001913653
167.901,-0.0001912937
168.0011,-0.0001911421
168.1011,-0.00019103
168.2011,-0.000190933
168.3011,-0.0001908417
168.4011,-0.0001907032
168.5011,-0.0001906307
168.6011,-0.0001905215
168.7011,-0.0001903868
168.8011,-0.0001902964
168.9011,-0.000190221
169.0011,-0.0001900694
169.1011,-0.0001899395
169.2011,-0.0001898434
169.3011,-0.0001897417
169.4011,-0.0001895929
169.5011,-0.0001895016
169.6012,-0.0001894008
169.7012,-0.0001892482
169.8012,-0.0001891399
169.9012,-0.0001890656
170.0012,-0.0001889337
170.1012,-0.0001888235
170.2012,-0.0001887359
170.3012,-0.0001886399
170.4012,-0.0001885014
170.5012,-0.0001884647
170.6012,-0.0001883687
170.7012,-0.0001882425
170.8012,-0.0001881624
170.9012,-0.0001880617
171.0012,-0.000187944
171.1012,-0.0001878677
171.2012,-0.0001877509
171.3013,-0.000187604
171.4013,-0.0001874929
171.5013,-0.0001874269
171.6013,-0.0001872499
171.7013,-0.0001871388
171.8013,-0.0001870606
171.9013,-0.0001869523
172.0013,-0.000186828
172.1013,-0.0001867423
172.2013,-0.0001866528
172.3013,-0.0001865172
172.4013,-0.0001864127
172.5013,-0.0001863552
172.6013,-0.0001862121
172.7013,-0.0001861
172.8013,-0.0001860511
172.9014,-0.0001859277
173.0014,-0.0001858138
173.1014,-0.0001857299
173.2014,-0.0001856348
173.3014,-0.0001855284
173.4014,-0.0001854163
173.5014,-0.0001853212
173.6014,-0.0001852139
173.7014,-0.0001851056
173.8014,-0.0001850406
173.9014,-0.0001849483
174.0014,-0.0001848259
174.1014,-0.0001847581
174.2014,-0.0001846677
174.3014,-0.0001845377
174.4014,-0.0001844661
174.5014,-0.0001843785
174.6015,-0.0001842797
174.7015,-0.0001841836
174.8015,-0.0001840414
174.9015,-0.0001839369
175.0015,-0.0001838766
175.1015,-0.0001837852
175.2015,-0.0001836553
175.3015,-0.0001835818
175.4015,-0.0001835206
175.5015,-0.0001833558
175.6015,-0.0001832852
175.7015,-0.0001831816
175.8015,-0.0001830629
175.9015,-0.0001829631
176.0015,-0.000182868
176.1015,-0.0001827625
176.2016,-0.0001826524
176.3016,-0.0001825563
176.4016,-0.0001824537
176.5016,-0.0001823501
176.6016,-0.0001822691
176.7016,-0.0001821693
176.8016,-0.0001820619
176.9016,-0.0001819865
177.0016,-0.0001819263
177.1016,-0.0001817822
177.2016,-0.000181657
177.3016,-0.0001816042
177.4016,-0.0001815157
177.5016,-0.0001813867
177.6016,-0.0001813038
177.7016,-0.0001812153
177.8017,-0.0001811155
177.9017,-0.0001810147
178.0017,-0.0001809412
178.1017,-0.0001808433
178.2017,-0.000180718
178.3017,-0.0001806596
178.4017,-0.0001805325
178.5017,-0.0001804355
178.6017,-0.000180331
178.7017,-0.0001802208
178.8017,-0.0001800908
178.9017,-0.0001800042
179.0017,-0.0001799091
179.1017,-0.0001797716
179.2017,-0.000179653
179.3017,-0.0001795701
179.4017,-0.0001794401
179.5018,-0.0001792988
179.6018,-0.000179232
179.7018,-0.0001791378
179.8018,-0.0001789966
179.9018,-0.0001789222
180.0018,-0.0001788063
180.1018,-0.0001786811
180.2018,-0.0001785765
180.3018,-0.000178489
180.4018,-0.0001783788
180.5018,-0.000178262
180.6018,-0.0001781904
180.7018,-0.0001780868
180.8018,-0.0001779541
180.9018,-0.0001778872
181.0018,-0.000177809
181.1019,-0.0001776678
181.2019,-0.0001776009
181.3019,-0.0001774992
181.4019,-0.0001773777
181.5019,-0.0001772986
181.6019,-0.0001772044
181.7019,-0.0001771046
181.8019,-0.0001770264
181.9019,-0.000176953
182.0019,-0.0001768183
182.1019,-0.0001767477
182.2019,-0.0001766507
182.3019,-0.0001765556
182.4019,-0.0001764652
182.5019,-0.0001763955
182.6019,-0.0001762618
182.702,-0.000176144
182.802,-0.0001761045
182.902,-0.0001759934
183.002,-0.0001758823
183.102,-0.0001757862
183.202,-0.000175692
183.302,-0.0001755903
183.402,-0.0001754914
183.502,-0.0001753973
183.602,-0.0001753021
183.702,-0.0001752306
183.802,-0.0001751072
183.902,-0.0001750187
184.002,-0.0001749546
184.102,-0.0001748473
184.202,-0.0001747286
184.302,-0.0001746636
184.4021,-0.0001746015
184.5021,-0.0001745073
184.6021,-0.0001743774
184.7021,-0.0001743161
184.8021,-0.0001742418
184.9021,-0.0001741495
185.0021,-0.0001740572
185.1021,-0.0001739724
185.2021,-0.0001738792
185.3021,-0.0001738038
185.4021,-0.0001737247
185.5021,-0.0001736051
185.6021,-0.0001735345
185.7021,-0.0001734535
185.8021,-0.0001733584
185.9021,-0.0001732492
186.0022,-0.0001731908
186.1022,-0.0001730966
186.2022,-0.0001730382
186.3022,-0.0001729525
186.4022,-0.0001728216
186.5022,-0.0001726888
186.6022,-0.0001726352
186.7022,-0.0001725259
186.8022,-0.0001724412
186.9022,-0.0001723498
187.0022,-0.0001722076
187.1022,-0.0001720908
187.2022,-0.0001720061
187.3022,-0.0001718837
187.4022,-0.000171782
187.5022,-0.0001716774
187.6022,-0.0001715842
187.7023,-0.0001714693
187.8023,-0.0001713704
187.9023,-0.0001713035
188.0023,-0.0001711953
188.1023,-0.0001710841
188.2023,-0.0001710257
188.3023,-0.0001709043
188.4023,-0.0001707988
188.5023,-0.0001707583
188.6023,-0.0001706283
188.7023,-0.0001704739
188.8023,-0.0001703844
188.9023,-0.0001703176
189.0023,-0.000170197
189.1023,-0.0001700699
189.2023,-0.0001700322
189.3024,-0.0001699211
189.4024,-0.0001698119
189.5024,-0.0001697459
189.6024,-0.0001696715
189.7024,-0.0001695632
189.8024,-0.0001694775
189.9024,-0.0001693513
190.0024,-0.0001692543
190.1024,-0.0001691837
190.2024,-0.0001690764
190.3024,-0.000168952
190.4024,-0.0001688682
190.5024,-0.0001687825
190.6024,-0.0001686545
190.7024,-0.0001685452
190.8024,-0.0001685019
190.9025,-0.0001683851
191.0025,-0.0001682853
191.1025,-0.0001682269
191.2025,-0.0001681214
191.3025,-0.0001680065
191.4025,-0.0001678983
191.5025,-0.0001677909
191.6025,-0.0001676421
191.7025,-0.0001675187
191.8025,-0.0001674387
191.9025,-0.0001673389
192.0025,-0.0001672193
192.1025,-0.0001671204
192.2025,-0.0001670045
192.3025,-0.0001669066
192.4025,-0.0001668106
192.5025,-0.0001666843
192.6026,-0.0001665666
192.7026,-0.0001664913
192.8026,-0.0001664028
192.9026,-0.0001662578
193.0026,-0.0001661739
193.1026,-0.0001660995
193.2026,-0.0001659658
193.3026,-0.0001658839
193.4026,-0.0001658161
193.5026,-0.0001657021
193.6026,-0.0001655656
193.7026,-0.0001655185
193.8026,-0.0001653961
193.9026,-0.0001652934
194.0026,-0.000165235
194.1026,-0.0001651559
194.2027,-0.0001650316
194.3027,-0.0001649318
194.4027,-0.0001649026
194.5027,-0.000164784
194.6027,-0.0001647152
194.7027,-0.000164621
194.8027,-0.0001645212
194.9027,-0.0001643941
195.0027,-0.0001643517
195.1027,-0.0001642133
195.2027,-0.0001641332
195.3027,-0.0001640437
195.4027,-0.0001639844
195.5027,-0.0001638497
195.6027,-0.0001637942
195.7027,-0.0001637179
195.8027,-0.0001636049
195.9028,-0.0001635211
196.0028,-0.0001634674
196.1028,-0.000163377
196.2028,-0.0001632856
196.3028,-0.0001632056
196.4028,-0.0001631237
196.5028,-0.0001630304
196.6028,-0.0001629429
196.7028,-0.0001628656
196.8028,-0.0001627865
196.9028,-0.0001626914
197.0028,-0.0001626519
197.1028,-0.0001625454
197.2028,-0.00016244
197.3028,-0.0001623825
197.4028,-0.0001622912
197.5029,-0.0001622319
197.6029,-0.0001621452
197.7029,-0.000162068
197.8029,-0.0001619456
197.9029,-0.0001618844
198.0029,-0.0001617968
198.1029,-0.0001616838
198.2029,-0.0001616009
198.3029,-0.0001615538
198.4029,-0.0001614323
198.5029,-0.0001613287
198.6029,-0.0001612515
198.7029,-0.000161146
198.8029,-0.0001610528
198.9029,-0.0001609511
199.0029,-0.0001608569
199.103,-0.0001607938
199.203,-0.0001607081
199.303,-0.0001606243
199.403,-0.000160517
199.503,-0.0001604595
199.603,-0.0001603795
199.703,-0.0001602834
199.803,-0.0001601657
199.903,-0.0001601252
200.003,-0.0001600197
200.103,-0.0001599199
200.203,-0.0001598295
200.303,-0.0001597466
200.403,-0.0001596506
200.503,-0.0001595875
200.603,-0.0001595225
200.703,-0.0001594038
200.8031,-0.0001593257
200.9031,-0.000159272
201.0031,-0.0001591825
201.1031,-0.0001590865
201.2031,-0.0001590356
201.3031,-0.0001589772
201.4031,-0.0001588294
201.5031,-0.0001587277
201.6031,-0.000158658
201.7031,-0.0001585619
201.8031,-0.0001584696
201.9031,-0.0001584112
202.0031,-0.0001583124
202.1031,-0.0001582238
202.2031,-0.0001581551
202.3031,-0.0001580816
202.4032,-0.000157979
202.5032,-0.0001578848
202.6032,-0.0001578048
202.7032,-0.0001576871
202.8032,-0.0001576146
202.9032,-0.0001575486
203.0032,-0.0001574676
203.1032,-0.0001573565
203.2032,-0.0001573075
203.3032,-0.0001572265
203.4032,-0.0001571361
203.5032,-0.0001570862
203.6032,-0.0001569987
203.7032,-0.000156848
203.8032,-0.00015675
203.9032,-0.0001566794
204.0033,-0.0001565664
204.1033,-0.0001564986
204.2033,-0.0001563875
204.3033,-0.0001563027
204.4033,-0.000156249
204.5033,-0.0001561596
204.6033,-0.0001560522
204.7033,-0.0001559609
204.8033,-0.0001559128
204.9033,-0.0001558281
205.0033,-0.0001557047
205.1033,-0.0001556425
205.2033,-0.0001555785
205.3033,-0.0001554636
205.4033,-0.0001554034
205.5033,-0.0001553158
205.6033,-0.0001552094
205.7034,-0.0001551623
205.8034,-0.0001550728
205.9034,-0.0001549946
206.0034,-0.0001549382
206.1034,-0.0001548496
206.2034,-0.0001547338
206.3034,-0.0001546528
206.4034,-0.0001545916
206.5034,-0.0001544908
206.6034,-0.0001543646
206.7034,-0.0001543194
206.8034,-0.0001542196
206.9034,-0.0001540925
207.0034,-0.00015402
207.1034,-0.0001539493
207.2034,-0.0001538326
207.3035,-0.0001537346
207.4035,-0.0001536489
207.5035,-0.0001535915
207.6035,-0.0001534756
207.7035,-0.0001533636
207.8035,-0.0001533042
207.9035,-0.0001531912
208.0035,-0.0001531149
208.1035,-0.0001530358
208.2035,-0.0001529454
208.3035,-0.0001528748
208.4035,-0.0001527882
208.5035,-0.0001526931
208.6035,-0.0001526384
208.7035,-0.000152565
208.8035,-0.0001524849
208.9035,-0.0001523898
209.0036,-0.0001523427
209.1036,-0.0001522599
209.2036,-0.0001521374
209.3036,-0.0001520932
209.4036,-0.0001520028
209.5036,-0.000151885
209.6036,-0.0001517994
209.7036,-0.0001517193
209.8036,-0.0001516223
209.9036,-0.0001515281
210.0036,-0.0001514302
210.1036,-0.0001513398
210.2036,-0.0001512437
210.3036,-0.0001511411
210.4036,-0.0001510771
210.5036,-0.0001509744
210.6037,-0.0001508717
210.7037,-0.0001507719
210.8037,-0.0001506796
210.9037,-0.0001506137
211.0037,-0.0001505318
211.1037,-0.0001504404
211.2037,-0.0001503651
211.3037,-0.0001502907
211.4037,-0.0001502069
211.5037,-0.0001501475
211.6037,-0.0001500506
211.7037,-0.0001499799
211.8037,-0.0001499178
211.9037,-0.0001498669
212.0037,-0.0001497737
212.1037,-0.0001496861
212.2038,-0.0001496315
212.3038,-0.0001495712
212.4038,-0.0001494695
212.5038,-0.0001494337
212.6038,-0.0001493226
212.7038,-0.0001492623
212.8038,-0.0001492011
212.9038,-0.0001491267
213.0038,-0.0001490307
213.1038,-0.0001489808
213.2038,-0.0001488969
213.3038,-0.0001488461
213.4038,-0.0001487557
213.5038,-0.0001486756
213.6038,-0.0001486135
213.7038,-0.0001485306
213.8038,-0.0001484656
213.9039,-0.0001483837
214.0039,-0.00014833
214.1039,-0.0001482471
214.2039,-0.0001481549
214.3039,-0.0001480767
214.4039,-0.0001480447
214.5039,-0.000147958
214.6039,-0.0001478761
214.7039,-0.0001478347
214.8039,-0.0001477574
214.9039,-0.0001476585
215.0039,-0.0001475832
215.1039,-0.0001475522
215.2039,-0.0001474599
215.3039,-0.0001473563
215.4039,-0.0001473327
215.504,-0.0001472527
215.604,-0.0001471491
215.704,-0.0001471142
215.804,-0.0001470474
215.904,-0.0001469344
216.004,-0.0001468553
216.104,-0.0001467554
216.204,-0.0001466744
216.304,-0.0001466095
216.404,-0.0001465257
216.504,-0.0001464258
216.604,-0.0001463599
216.704,-0.000146294
216.804,-0.0001462007
216.904,-0.0001461104
217.004,-0.0001460567
217.104,-0.000145986
217.2041,-0.0001458975
217.3041,-0.0001458523
217.4041,-0.0001457534
217.5041,-0.0001456611
217.6041,-0.0001455943
217.7041,-0.0001455161
217.8041,-0.0001454474
217.9041,-0.0001453654
218.0041,-0.0001453005
218.1041,-0.0001452129
218.2041,-0.0001451422
218.3041,-0.0001450886
218.4041,-0.0001449643
218.5041,-0.0001448823
218.6041,-0.000144823
218.7041,-0.0001447486
218.8042,-0.0001446215
218.9042,-0.0001445339
219.0042,-0.0001444698
219.1042,-0.0001443512
219.2042,-0.0001442382
219.3042,-0.0001441732
219.4042,-0.0001440724
219.5042,-0.0001439425
219.6042,-0.0001438785
219.7042,-0.0001437833
219.8042,-0.0001436732
219.9042,-0.0001436006
220.0042,-0.0001435347
220.1042,-0.0001434066
220.2042,-0.0001433172
220.3042,-0.0001432494
220.4043,-0.0001431656
220.5043,-0.0001430488
220.6043,-0.0001429961
220.7043,-0.0001429235
220.8043,-0.0001428049
220.9043,-0.0001427437
221.0043,-0.0001426636
221.1043,-0.0001425742
221.2043,-0.0001425355
221.3043,-0.0001424423
221.4043,-0.0001423575
221.5043,-0.0001422568
221.6043,-0.0001422012
221.7043,-0.0001421268
221.8043,-0.0001420101
221.9043,-0.000141979
222.0043,-0.0001418914
222.1044,-0.0001417887
222.2044,-0.0001417209
222.3044,-0.0001416447
222.4044,-0.0001415759
222.5044,-0.0001414714
222.6044,-0.0001413781
222.7044,-0.0001412953
222.8044,-0.0001412181
222.9044,-0.0001411116
223.0044,-0.0001410335
223.1044,-0.0001409374
223.2044,-0.0001408743
223.3044,-0.0001408009
223.4044,-0.0001407029
223.5044,-0.0001406172
223.6044,-0.0001405447
223.7045,-0.0001404656
223.8045,-0.0001403743
223.9045,-0.0001403036
224.0045,-0.0001402443
224.1045,-0.0001401756
224.2045,-0.0001400889
224.3045,-0.0001400183
224.4045,-0.0001399448
224.5045,-0.0001398723
224.6045,-0.0001398064
224.7045,-0.0001397141
224.8045,-0.0001396604
224.9045,-0.000139619
225.0045,-0.0001395324
225.1045,-0.0001394306
225.2045,-0.0001393685
225.3046,-0.0001392979
225.4046,-0.0001392225
225.5046,-0.0001391604
225.6046,-0.0001390728
225.7046,-0.0001390078
225.8046,-0.0001389429
225.9046,-0.0001388637
226.0046,-0.0001387856
226.1046,-0.0001387366
226.2046,-0.00013865
226.3046,-0.0001385661
226.4046,-0.0001385115
226.5046,-0.0001384541
226.6046,-0.0001383298
226.7046,-0.0001382836
226.8046,-0.0001382074
226.9046,-0.0001381075
227.0047,-0.000138003
227.1047,-0.0001379634
227.2047,-0.0001378843
227.3047,-0.0001377864
227.4047,-0.0001377186
227.5047,-0.0001376527
227.6047,-0.000137567
227.7047,-0.0001374511
227.8047,-0.0001374012
227.9047,-0.0001373391
228.0047,-0.0001372327
228.1047,-0.0001371771
228.2047,-0.000137097
228.3047,-0.0001370189
228.4047,-0.0001369407
228.5047,-0.0001368578
228.6048,-0.0001368023
228.7048,-0.0001367232
228.8048,-0.0001366535
228.9048,-0.0001365744
229.0048,-0.0001365104
229.1048,-0.000136451
229.2048,-0.0001363851
229.3048,-0.0001362834
229.4048,-0.0001362297
229.5048,-0.0001361581
229.6048,-0.0001360819
229.7048,-0.000136015
229.8048,-0.0001359528
229.9048,-0.0001358718
230.0048,-0.0001358106
230.1048,-0.0001357221
230.2048,-0.0001356506
230.3049,-0.0001356016
230.4049,-0.0001355272
230.5049,-0.0001354274
230.6049,-0.0001353765
230.7049,-0.0001353313
230.8049,-0.0001352098
230.9049,-0.0001351439
231.0049,-0.00013511
231.1049,-0.0001349951
231.2049,-0.0001349264
231.3049,-0.0001349179
231.4049,-0.0001348199
231.5049,-0.0001347192
231.6049,-0.000134657
231.7049,-0.0001345986
231.8049,-0.000134495
231.905,-0.0001344103
232.005,-0.0001343425
232.105,-0.0001342455
232.205,-0.0001341617
232.305,-0.000134139
232.405,-0.0001340383
232.505,-0.0001339347
232.605,-0.0001338697
232.705,-0.0001338208
232.805,-0.0001337304
232.905,-0.0001336541
233.005,-0.0001335834
233.105,-0.0001335043
233.205,-0.0001334262
233.305,-0.0001333706
233.405,-0.0001332924
233.5051,-0.00013317
233.6051,-0.0001331437
233.7051,-0.0001330542
233.8051,-0.0001329685
233.9051,-0.0001328819
234.0051,-0.0001328282
234.1051,-0.0001327406
234.2051,-0.0001326549
234.3051,-0.0001325796
234.4051,-0.0001324967
234.5051,-0.0001324223
234.6051,-0.0001323686
234.7051,-0.0001322923
234.8051,-0.0001322161
234.9051,-0.0001321435
235.0051,-0.0001320936
235.1051,-0.0001320136
235.2052,-0.0001319429
235.3052,-0.0001318657
235.4052,-0.0001318007
235.5052,-0.0001317198
235.6052,-0.0001316642
235.7052,-0.0001315625
235.8052,-0.0001314645
235.9052,-0.0001314127
236.0052,-0.0001313459
236.1052,-0.0001312395
236.2052,-0.0001311801
236.3052,-0.0001310822
236.4052,-0.0001310163
236.5052,-0.0001309344
236.6052,-0.000130859
236.7052,-0.0001307968
236.8053,-0.0001307093
236.9053,-0.0001306471
237.0053,-0.0001305878
237.1053,-0.0001304993
237.2053,-0.0001304221
237.3053,-0.0001303382
237.4053,-0.0001302704
237.5053,-0.0001302186
237.6053,-0.000130132
237.7053,-0.000130052
237.8053,-0.0001299945
237.9053,-0.0001299305
238.0053,-0.000129857
238.1053,-0.0001297506
238.2053,-0.0001297157
238.3053,-0.0001296385
238.4053,-0.0001295594
238.5054,-0.0001295086
238.6054,-0.0001294389
238.7054,-0.0001293278
238.8054,-0.0001292618
238.9054,-0.0001292261
239.0054,-0.000129113
239.1054,-0.0001290396
239.2054,-0.0001289953
239.3054,-0.0001289106
239.4054,-0.0001288268
239.5054,-0.0001287863
239.6054,-0.0001287316
239.7054,-0.0001286111
239.8054,-0.0001285781
239.9054,-0.0001285584
240.0054,-0.0001284406
240.1055,-0.0001283823
240.2055,-0.0001283098
240.3055,-0.0001282071
240.4055,-0.0001281449
240.5055,-0.0001280658
240.6055,-0.0001280188
240.7055,-0.0001279124
240.8055,-0.0001278737
240.9055,-0.0001277908
241.0055,-0.0001277155
241.1055,-0.0001276854
241.2055,-0.0001276025
241.3055,-0.0001275281
241.4055,-0.0001275055
241.5055,-0.0001274208
241.6055,-0.0001273671
241.7056,-0.0001273332
241.8056,-0.0001272814
241.9056,-0.000127174
242.0056,-0.0001271543
242.1056,-0.0001270572
242.2056,-0.0001269461
242.3056,-0.0001268642
242.4056,-0.0001267644
242.5056,-0.0001266862
242.6056,-0.0001265817
242.7056,-0.0001264931
242.8056,-0.0001264272
242.9056,-0.0001263397
243.0056,-0.0001262615
243.1056,-0.0001262097
243.2056,-0.0001261127
243.3056,-0.0001260157
243.4057,-0.0001259686
243.5057,-0.0001258801
243.6057,-0.0001257708
243.7057,-0.0001257106
243.8057,-0.0001256569
243.9057,-0.0001255571
244.0057,-0.0001254714
244.1057,-0.0001254394
244.2057,-0.0001253489
244.3057,-0.0001252793
244.4057,-0.0001252293
244.5057,-0.0001251634
244.6057,-0.0001250664
244.7057,-0.0001250203
244.8057,-0.0001249515
244.9057,-0.0001248413
245.0058,-0.0001247886
245.1058,-0.0001247453
245.2058,-0.0001246671
245.3058,-0.0001245861
245.4058,-0.0001245522
245.5058,-0.000124475
245.6058,-0.0001243903
245.7058,-0.0001243338
245.8058,-0.0001243046
245.9058,-0.0001241982
246.0058,-0.0001241642
246.1058,-0.0001241529
246.2058,-0.0001240785
246.3058,-0.0001240136
246.4058,-0.0001240145
246.5058,-0.0001239458
246.6059,-0.0001238742
246.7059,-0.0001238497
246.8059,-0.0001237988
246.9059,-0.0001236849
247.0059,-0.0001236293
247.1059,-0.0001235823
247.2059,-0.0001235154
247.3059,-0.0001234175
247.4059,-0.0001233873
247.5059,-0.0001233148
247.6059,-0.0001232423
247.7059,-0.0001231698
247.8059,-0.0001231152
247.9059,-0.0001230765
248.0059,-0.0001230106
248.1059,-0.0001229475
248.2059,-0.0001228844
248.306,-0.0001228496
248.406,-0.000122763
248.506,-0.0001227008
248.606,-0.0001226603
248.706,-0.0001226217
248.806,-0.000122519
248.906,-0.0001224691
249.006,-0.000122439
249.106,-0.0001223608
249.206,-0.0001222845
249.306,-0.0001222695
249.406,-0.0001222064
249.506,-0.0001221037
249.606,-0.0001220632
249.706,-0.000122019
249.806,-0.0001219286
249.9061,-0.0001218664
250.0061,-0.0001217986
250.1061,-0.0001217336
250.2061,-0.0001216272
250.3061,-0.0001215867
250.4061,-0.0001215161
250.5061,-0.0001214266
250.6061,-0.0001213654
250.7061,-0.0001213174
250.8061,-0.0001212232
250.9061,-0.0001211385
251.0061,-0.0001210951
251.1061,-0.0001210367
251.2061,-0.0001209511
251.3061,-0.0001209143
251.4061,-0.0001208522
251.5061,-0.0001207618
251.6062,-0.0001207326
251.7062,-0.000120661
251.8062,-0.0001205763
251.9062,-0.0001205433
252.0062,-0.0001204934
252.1062,-0.0001204293
252.2062,-0.0001203766
252.3062,-0.0001202966
252.4062,-0.0001202222
252.5062,-0.0001201572
252.6062,-0.0001201223
252.7062,-0.0001200263
252.8062,-0.0001199585
252.9062,-0.000119918
253.0062,-0.0001198455
253.1062,-0.0001197343
253.2063,-0.0001196986
253.3063,-0.0001196072
253.4063,-0.0001195272
253.5063,-0.0001194462
253.6063,-0.0001193671
253.7063,-0.0001192936
253.8063,-0.0001192098
253.9063,-0.000119175
254.0063,-0.000119094
254.1063,-0.0001190073
254.2063,-0.00011898
254.3063,-0.0001188783
254.4063,-0.0001187926
254.5063,-0.0001187173
254.6063,-0.0001186674
254.7063,-0.0001185751
254.8064,-0.0001185157
254.9064,-0.0001184715
255.0064,-0.0001183896
255.1064,-0.000118301
255.2064,-0.0001182681
255.3064,-0.0001181692
255.4064,-0.0001181089
255.5064,-0.0001180449
255.6064,-0.0001180034
255.7064,-0.0001179149
255.8064,-0.0001178565
255.9064,-0.0001178386
256.0064,-0.0001177407
256.1064,-0.0001176767
256.2064,-0.0001176522
256.3064,-0.0001175957
256.4064,-0.000117494
256.5064,-0.0001174318
256.6064,-0.0001173706
256.7065,-0.0001172736
256.8065,-0.0001172199
256.9065,-0.0001171314
257.0065,-0.0001170513
257.1065,-0.0001169647
257.2065,-0.0001169299
257.3065,-0.0001168677
257.4065,-0.0001167679
257.5065,-0.0001167264
257.6065,-0.0001166624
257.7065,-0.0001165551
257.8065,-0.0001164929
257.9065,-0.0001164194
258.0065,-0.0001163498
258.1065,-0.0001162612
258.2065,-0.0001162254
258.3065,-0.0001161737
258.4066,-0.0001160767
258.5066,-0.000116006
258.6066,-0.000115974
258.7066,-0.0001158525
258.8066,-0.0001158083
258.9066,-0.0001157565
259.0066,-0.0001156811
259.1066,-0.000115602
259.2066,-0.0001155662
259.3066,-0.0001155107
259.4066,-0.0001154269
259.5066,-0.0001153722
259.6066,-0.0001153487
259.7066,-0.0001152479
259.8066,-0.0001151971
259.9066,-0.0001151255
260.0067,-0.0001150699
260.1067,-0.0001149852
260.2067,-0.0001149287
260.3067,-0.0001148533
260.4067,-0.0001147771
260.5067,-0.0001147215
260.6067,-0.0001146716
260.7067,-0.0001146
260.8067,-0.0001145567
260.9067,-0.0001144625
261.0067,-0.0001144107
261.1067,-0.0001143401
261.2067,-0.0001142629
261.3067,-0.0001142177
261.4067,-0.0001141376
261.5067,-0.0001140802
261.6068,-0.0001139879
261.7068,-0.0001139267
261.8068,-0.0001138928
261.9068,-0.0001138024
262.0068,-0.0001137374
262.1068,-0.0001137025
262.2068,-0.0001136131
262.3068,-0.0001135509
262.4068,-0.000113501
262.5068,-0.0001134379
262.6068,-0.0001133598
262.7068,-0.0001133051
262.8068,-0.0001132628
262.9068,-0.0001131921
263.0068,-0.0001130989
263.1068,-0.0001130612
263.2068,-0.000113001
263.3069,-0.000112919
263.4069,-0.0001128653
263.5069,-0.0001127938
263.6069,-0.0001127166
263.7069,-0.0001126516
263.8069,-0.0001125819
263.9069,-0.0001125254
264.0069,-0.0001124406
264.1069,-0.0001124048
264.2069,-0.000112322
264.3069,-0.0001122843
264.4069,-0.0001122222
264.5069,-0.0001121525
264.6069,-0.0001120715
264.7069,-0.0001120282
264.8069,-0.0001119396
264.907,-0.0001118605
265.007,-0.0001118191
265.107,-0.0001117532
265.207,-0.0001116684
265.307,-0.0001116091
265.407,-0.0001115658
265.507,-0.000111481
265.607,-0.0001114066
265.707,-0.0001113981
265.807,-0.0001113124
265.907,-0.0001112249
266.007,-0.0001111919
266.107,-0.0001111429
266.207,-0.0001110572
266.307,-0.0001110007
266.407,-0.0001109612
266.507,-0.0001109103
266.6071,-0.0001108256
266.7071,-0.0001107983
266.8071,-0.000110738
266.9071,-0.0001106589
267.0071,-0.0001106184
267.1071,-0.0001105817
267.2071,-0.0001105223
267.3071,-0.0001104489
267.4071,-0.0001104084
267.5071,-0.0001103669
267.6071,-0.000110301
267.7071,-0.0001102342
267.8071,-0.0001102097
267.9071,-0.0001101485
268.0071,-0.0001100901
268.1071,-0.000110026
268.2072,-0.0001099959
268.3072,-0.0001099432
268.4072,-0.0001098744
268.5072,-0.0001098104
268.6072,-0.0001097718
268.7072,-0.0001097209
268.8072,-0.0001096597
268.9072,-0.0001095994
269.0072,-0.000109541
269.1072,-0.0001094685
269.2072,-0.0001093988
269.3072,-0.0001093621
269.4072,-0.0001093122
269.5072,-0.0001092161
269.6072,-0.0001091982
269.7072,-0.0001091408
269.8073,-0.0001090598
269.9073,-0.0001090099
270.0073,-0.0001089628
270.1073,-0.0001088978
270.2073,-0.0001088366
270.3073,-0.0001087971
270.4073,-0.0001087443
270.5073,-0.000108652
270.6073,-0.0001086229
270.7073,-0.0001085626
270.8073,-0.0001084967
270.9073,-0.0001084599
271.0073,-0.0001083959
271.1073,-0.0001083206
271.2073,-0.0001082857
271.3073,-0.0001082302
271.4073,-0.0001081529
271.5074,-0.0001080832
271.6074,-0.0001080154
271.7074,-0.0001079844
271.8074,-0.0001078977
271.9074,-0.0001078374
272.0074,-0.0001078007
272.1074,-0.0001077301
272.2074,-0.0001076548
272.3074,-0.0001076227
272.4074,-0.0001075512
272.5074,-0.0001075003
272.6074,-0.0001074457
272.7074,-0.0001073817
272.8074,-0.0001073421
272.9074,-0.000107279
273.0074,-0.0001071952
273.1075,-0.0001071669
273.2075,-0.0001071104
273.3075,-0.0001070624
273.4075,-0.0001069927
273.5075,-0.0001069381
273.6075,-0.0001068901
273.7075,-0.0001068119
273.8075,-0.0001067639
273.9075,-0.0001066885
274.0075,-0.0001066245
274.1075,-0.0001065718
274.2075,-0.0001065181
274.3075,-0.0001064559
274.4075,-0.0001064004
274.5075,-0.0001063495
274.6075,-0.0001062629
274.7076,-0.0001062111
274.8076,-0.0001061621
274.9076,-0.0001060924
275.0076,-0.0001060256
275.1076,-0.0001059879
275.2076,-0.0001059436
275.3076,-0.0001058532
275.4076,-0.0001058231
275.5076,-0.0001057741
275.6076,-0.0001056894
275.7076,-0.0001056187
275.8076,-0.0001056018
275.9076,-0.0001055556
276.0076,-0.0001054812
276.1076,-0.0001054172
276.2076,-0.0001053532
276.3076,-0.0001052759
276.4077,-0.00010521
276.5077,-0.000105162
276.6077,-0.0001051055
276.7077,-0.0001050188
276.8077,-0.0001049784
276.9077,-0.0001048729
277.0077,-0.0001046553
277.1077,-0.0001045546
277.2077,-0.000104451
277.3077,-0.0001043756
277.4077,-0.000104322
277.5077,-0.0001042598
277.6077,-0.0001042268
277.7077,-0.0001041619
277.8077,-0.0001041138
277.9077,-0.0001040432
278.0078,-0.0001039858
278.1078,-0.000103949
278.2078,-0.0001038982
278.3078,-0.000103852
278.4078,-0.0001037993
278.5078,-0.0001037447
278.6078,-0.0001036891
278.7078,-0.0001036317
278.8078,-0.0001035855
278.9078,-0.0001035271
279.0078,-0.0001034499
279.1078,-0.0001034235
279.2078,-0.0001033642
279.3078,-0.0001032861
279.4078,-0.0001032427
279.5078,-0.0001032164
279.6078,-0.0001031297
279.7079,-0.0001030619
279.8079,-0.000103013
279.9079,-0.0001029612
280.0079,-0.0001028849
280.1079,-0.0001028416
280.2079,-0.0001028067
280.3079,-0.0001026928
280.4079,-0.0001026523
280.5079,-0.0001025835
280.6079,-0.0001025148
280.7079,-0.0001024649
280.8079,-0.0001024008
280.9079,-0.0001023613
281.0079,-0.0001022954
281.1079,-0.0001022276
281.2079,-0.0001021729
281.308,-0.000102139
281.408,-0.0001020712
281.508,-0.0001020128
281.608,-0.0001019733
281.708,-0.0001019215
281.808,-0.0001018433
281.908,-0.0001018113
282.008,-0.0001017736
282.108,-0.0001016795
282.208,-0.000101654
282.308,-0.0001016211
282.408,-0.0001015542
282.508,-0.0001014939
282.608,-0.000101444
282.708,-0.0001013819
282.808,-0.0001013263
282.9081,-0.0001012905
283.0081,-0.0001012095
283.1081,-0.0001011474
283.2081,-0.0001010975
283.3081,-0.0001010485
283.4081,-0.0001009911
283.5081,-0.0001008941
283.6081,-0.0001008799
283.7081,-0.0001008328
283.8081,-0.0001007481
283.9081,-0.0001006878
284.0081,-0.0001006586
284.1081,-0.0001005927
284.2081,-0.0001005174
284.3081,-0.0001004938
284.4081,-0.0001004204
284.5081,-0.0001003507
284.6082,-0.000100297
284.7082,-0.000100232
284.8082,-0.0001001557
284.9082,-0.0001000795
285.0082,-0.0001000701
285.1082,-9.999848E-05
285.2082,-9.993538E-05
285.3082,-9.987794E-05
285.4082,-9.983178E-05
285.5082,-9.976869E-05
285.6082,-9.974327E-05
285.7082,-9.967358E-05
285.8082,-9.960483E-05
285.9082,-9.958694E-05
286.0082,-9.951442E-05
286.1082,-9.945321E-05
286.2083,-9.941555E-05
286.3083,-9.936846E-05
286.4083,-9.930631E-05
286.5083,-9.925827E-05
286.6083,-9.921778E-05
286.7083,-9.915185E-05
286.8083,-9.908029E-05
286.9083,-9.904921E-05
287.0083,-9.902191E-05
287.1083,-9.891926E-05
287.2083,-9.890324E-05
287.3083,-9.885993E-05
287.4083,-9.878647E-05
287.5083,-9.875446E-05
287.6083,-9.871866E-05
287.7083,-9.86744E-05
287.8083,-9.859718E-05
287.9084,-9.85661E-05
288.0084,-9.853784E-05
288.1084,-9.843426E-05
288.2084,-9.839659E-05
288.3084,-9.837116E-05
288.4084,-9.827793E-05
288.5084,-9.822519E-05
288.6084,-9.817622E-05
288.7084,-9.810277E-05
288.8084,-9.80764E-05
288.9084,-9.800859E-05
289.0084,-9.792007E-05
289.1084,-9.792102E-05
289.2084,-9.787111E-05
289.3084,-9.777222E-05
289.4084,-9.772326E-05
289.5085,-9.771854E-05
289.6085,-9.762437E-05
289.7085,-9.755469E-05
289.8085,-9.751043E-05
289.9085,-9.746993E-05
290.0085,-9.740212E-05
290.1085,-9.737293E-05
290.2085,-9.731266E-05
290.3085,-9.725898E-05
290.4085,-9.719212E-05
290.5085,-9.715821E-05
290.6085,-9.710736E-05
290.7085,-9.704144E-05
290.8085,-9.698023E-05
290.9085,-9.695574E-05
291.0085,-9.68757E-05
291.1086,-9.681637E-05
291.2086,-9.679282E-05
291.3086,-9.673725E-05
291.4086,-9.668829E-05
291.5086,-9.664027E-05
291.6086,-9.656492E-05
291.7086,-9.653856E-05
291.8086,-9.647451E-05
291.9086,-9.63907E-05
292.0086,-9.633891E-05
292.1086,-9.62937E-05
292.2086,-9.623061E-05
292.3086,-9.617316E-05
292.4086,-9.613738E-05
292.5086,-9.607428E-05
292.6086,-9.601872E-05
292.7086,-9.598387E-05
292.8087,-9.590854E-05
292.9087,-9.583132E-05
293.0087,-9.580401E-05
293.1087,-9.573997E-05
293.2087,-9.566086E-05
293.3087,-9.561377E-05
293.4087,-9.558081E-05
293.5087,-9.552055E-05
293.6087,-9.546592E-05
293.7087,-9.543485E-05
293.8087,-9.538494E-05
293.9087,-9.531242E-05
294.0087,-9.527098E-05
294.1087,-9.523802E-05
294.2087,-9.518152E-05
294.3087,-9.51316E-05
294.4088,-9.506852E-05
294.5088,-9.506003E-05
294.6088,-9.497811E-05
294.7088,-9.493197E-05
294.8088,-9.487828E-05
294.9088,-9.483496E-05
295.0088,-9.479729E-05
295.1088,-9.47502E-05
295.2088,-9.467958E-05
295.3088,-9.466075E-05
295.4088,-9.460424E-05
295.5088,-9.455055E-05
295.6088,-9.451102E-05
295.7088,-9.444697E-05
295.8088,-9.438953E-05
295.9088,-9.438481E-05
296.0089,-9.433585E-05
296.1089,-9.425957E-05
296.2089,-9.423037E-05
296.3089,-9.421907E-05
296.4089,-9.410418E-05
296.5089,-9.409665E-05
296.6089,-9.406745E-05
296.7089,-9.396858E-05
296.8089,-9.393938E-05
296.9089,-9.388287E-05
297.0089,-9.380659E-05
297.1089,-9.378964E-05
297.2089,-9.373784E-05
297.3089,-9.366628E-05
297.4089,-9.359659E-05
297.5089,-9.358152E-05
297.6089,-9.354008E-05
297.709,-9.344402E-05
297.809,-9.341013E-05
297.909,-9.337151E-05
298.009,-9.330842E-05
298.109,-9.324156E-05
298.209,-9.32199E-05
298.309,-9.313985E-05
298.409,-9.307205E-05
298.509,-9.304756E-05
298.609,-9.297881E-05
298.709,-9.293173E-05
298.809,-9.288087E-05
298.909,-9.282531E-05
299.009,-9.277634E-05
299.109,-9.271795E-05
299.209,-9.266051E-05
299.3091,-9.260212E-05
299.4091,-9.254562E-05
299.5091,-9.250229E-05
299.6091,-9.24279E-05
299.7091,-9.237516E-05
299.8091,-9.231772E-05
299.9091,-9.228098E-05
300.0091,-9.222449E-05
300.1091,-9.216515E-05
300.2091,-9.210959E-05
300.3091,-9.20465E-05
300.4091,-9.198058E-05
300.5091,-9.194478E-05
300.6091,-9.190146E-05
300.7091,-9.182424E-05
300.8091,-9.178188E-05
300.9091,-9.173196E-05
301.0092,-9.167263E-05
301.1092,-9.160765E-05
301.2092,-9.155962E-05
301.3092,-9.150783E-05
301.4092,-9.145415E-05
301.5092,-9.140329E-05
301.6092,-9.135338E-05
301.7092,-9.12771E-05
301.8092,-9.124509E-05
301.9092,-9.117163E-05
302.0092,-9.111701E-05
302.1092,-9.105015E-05
302.2092,-9.099835E-05
302.3092,-9.093808E-05
302.4092,-9.089946E-05
302.5092,-9.084955E-05
302.6093,-9.081377E-05
302.7093,-9.072336E-05
302.8093,-9.068758E-05
302.9093,-9.062637E-05
303.0093,-9.057081E-05
303.1093,-9.052843E-05
303.2093,-9.047287E-05
303.3093,-9.040506E-05
303.4093,-9.033536E-05
303.5093,-9.032125E-05
303.6093,-9.027698E-05
303.7093,-9.018563E-05
303.8093,-9.016116E-05
303.9093,-9.013196E-05
304.0093,-9.005755E-05
304.1093,-8.999353E-05
304.2094,-8.996621E-05
304.3094,-8.991912E-05
304.4094,-8.984943E-05
304.5094,-8.982119E-05
304.6094,-8.976186E-05
304.7094,-8.968182E-05
304.8094,-8.965073E-05
304.9094,-8.959611E-05
305.0094,-8.954808E-05
305.1094,-8.946898E-05
305.2094,-8.944354E-05
305.3094,-8.938798E-05
305.4094,-8.933432E-05
305.5094,-8.928346E-05
305.6094,-8.922601E-05
305.7094,-8.914785E-05
305.8094,-8.911583E-05
305.9095,-8.908381E-05
306.0095,-8.90113E-05
306.1095,-8.89708E-05
306.2095,-8.892654E-05
306.3095,-8.883237E-05
306.4095,-8.879658E-05
306.5095,-8.873349E-05
306.6095,-8.866756E-05
306.7095,-8.859505E-05
306.8095,-8.856491E-05
306.9095,-8.848957E-05
307.0095,-8.841612E-05
307.1095,-8.838223E-05
307.2095,-8.835962E-05
307.3095,-8.828804E-05
307.4095,-8.822307E-05
307.5096,-8.816656E-05
307.6096,-8.814585E-05
307.7096,-8.806203E-05
307.8096,-8.803001E-05
307.9096,-8.79688E-05
308.0096,-8.791512E-05
308.1096,-8.787085E-05
308.2096,-8.781718E-05
308.3096,-8.776256E-05
308.4096,-8.771547E-05
308.5096,-8.766462E-05
308.6096,-8.76147E-05
308.7096,-8.757798E-05
308.8096,-8.75356E-05
308.9096,-8.748475E-05
309.0096,-8.743861E-05
309.1096,-8.73934E-05
309.2097,-8.732278E-05
309.3097,-8.728133E-05
309.4097,-8.725403E-05
309.5097,-8.716738E-05
309.6097,-8.713255E-05
309.7097,-8.711653E-05
309.8097,-8.70459E-05
309.9097,-8.69781E-05
310.0097,-8.697528E-05
310.1097,-8.691877E-05
310.2097,-8.684343E-05
310.3097,-8.680482E-05
310.4097,-8.678316E-05
310.5097,-8.670594E-05
310.6097,-8.665321E-05
310.7097,-8.666073E-05
310.8098,-8.656939E-05
310.9098,-8.653454E-05
311.0098,-8.652607E-05
311.1098,-8.648463E-05
311.2098,-8.640929E-05
311.3098,-8.638669E-05
311.4098,-8.632265E-05
311.5098,-8.623225E-05
311.6098,-8.618893E-05
311.7098,-8.613337E-05
311.8098,-8.608911E-05
311.9098,-8.604672E-05
312.0098,-8.600152E-05
312.1098,-8.594878E-05
312.2098,-8.588475E-05
312.3098,-8.586592E-05
312.4099,-8.578869E-05
312.5099,-8.574255E-05
312.6099,-8.57077E-05
312.7099,-8.56785E-05
312.8099,-8.561258E-05
312.9099,-8.555138E-05
313.0099,-8.553254E-05
313.1099,-8.547791E-05
313.2099,-8.543555E-05
313.3099,-8.538657E-05
313.4099,-8.534608E-05
313.5099,-8.5315E-05
313.6099,-8.525472E-05
313.7099,-8.520387E-05
313.8099,-8.515961E-05
313.9099,-8.510782E-05
314.0099,-8.505602E-05
314.11,-8.499952E-05
314.21,-8.49628E-05
314.31,-8.490629E-05
314.41,-8.486768E-05
314.51,-8.481589E-05
314.61,-8.478198E-05
314.71,-8.473019E-05
314.81,-8.465767E-05
314.91,-8.462189E-05
315.01,-8.457198E-05
315.11,-8.452112E-05
315.21,-8.447027E-05
315.31,-8.441188E-05
315.41,-8.439022E-05
315.51,-8.430358E-05
315.61,-8.425368E-05
315.7101,-8.423013E-05
315.8101,-8.418963E-05
315.9101,-8.412277E-05
316.0101,-8.405685E-05
316.1101,-8.404367E-05
316.2101,-8.40107E-05
316.3101,-8.394573E-05
316.4101,-8.394007E-05
316.5101,-8.388168E-05
316.6101,-8.386756E-05
316.7101,-8.37894E-05
316.8101,-8.377527E-05
316.9101,-8.37376E-05
317.0101,-8.368769E-05
317.1101,-8.365473E-05
317.2101,-8.363683E-05
317.3102,-8.360481E-05
317.4102,-8.353701E-05
317.5102,-8.347957E-05
317.6102,-8.345414E-05
317.7102,-8.339105E-05
317.8102,-8.334207E-05
317.9102,-8.331476E-05
318.0102,-8.327144E-05
318.1102,-8.321023E-05
318.2102,-8.320269E-05
318.3102,-8.313772E-05
318.4102,-8.307651E-05
318.5102,-8.304449E-05
318.6102,-8.301624E-05
318.7102,-8.293807E-05
318.8102,-8.290888E-05
318.9102,-8.288533E-05
319.0103,-8.283825E-05
319.1103,-8.27921E-05
319.2103,-8.278833E-05
319.3103,-8.272618E-05
319.4103,-8.264613E-05
319.5103,-8.264989E-05
319.6103,-8.260282E-05
319.7103,-8.25482E-05
319.8103,-8.250111E-05
319.9103,-8.248886E-05
320.0103,-8.24333E-05
320.1103,-8.235985E-05
320.2103,-8.237209E-05
320.3103,-8.231747E-05
320.4103,-8.22506E-05
320.5103,-8.221576E-05
320.6104,-8.218563E-05
320.7104,-8.212629E-05
320.8104,-8.206697E-05
320.9104,-8.203307E-05
321.0104,-8.19954E-05
321.1104,-8.19502E-05
321.2104,-8.1921E-05
321.3104,-8.186355E-05
321.4104,-8.179857E-05
321.5104,-8.179292E-05
321.6104,-8.174677E-05
321.7104,-8.168745E-05
321.8104,-8.166768E-05
321.9104,-8.160458E-05
322.0104,-8.154431E-05
322.1104,-8.151417E-05
322.2104,-8.149062E-05
322.3105,-8.141436E-05
322.4105,-8.135974E-05
322.5105,-8.134654E-05
322.6105,-8.127779E-05
322.7105,-8.12034E-05
322.8105,-8.119587E-05
322.9105,-8.112995E-05
323.0105,-8.105367E-05
323.1105,-8.102542E-05
323.2105,-8.098774E-05
323.3105,-8.090675E-05
323.4105,-8.087285E-05
323.5105,-8.084554E-05
323.6105,-8.077492E-05
323.7105,-8.074006E-05
323.8105,-8.073253E-05
323.9106,-8.065342E-05
324.0106,-8.059975E-05
324.1106,-8.056114E-05
324.2106,-8.051971E-05
324.3106,-8.044719E-05
324.4106,-8.040482E-05
324.5106,-8.036432E-05
324.6106,-8.027579E-05
324.7106,-8.026639E-05
324.8106,-8.024002E-05
324.9106,-8.02014E-05
325.0106,-8.013077E-05
325.1106,-8.011287E-05
325.2106,-8.00413E-05
325.3106,-7.997068E-05
325.4106,-7.993866E-05
325.5107,-7.991229E-05
325.6107,-7.983601E-05
325.7107,-7.982754E-05
325.8107,-7.979928E-05
325.9107,-7.974278E-05
326.0107,-7.967497E-05
326.1107,-7.968439E-05
326.2107,-7.960435E-05
326.3107,-7.954878E-05
326.4107,-7.952147E-05
326.5107,-7.950451E-05
326.6107,-7.942542E-05
326.7107,-7.937833E-05
326.8107,-7.934819E-05
326.9107,-7.931523E-05
327.0107,-7.92493E-05
327.1107,-7.92041E-05
327.2108,-7.919092E-05
327.3108,-7.913064E-05
327.4108,-7.908545E-05
327.5108,-7.90393E-05
327.6108,-7.899221E-05
327.7108,-7.898845E-05
327.8108,-7.893195E-05
327.9108,-7.886979E-05
328.0108,-7.884153E-05
328.1108,-7.880292E-05
328.2108,-7.875679E-05
328.3108,-7.873983E-05
328.4108,-7.869275E-05
328.5108,-7.864284E-05
328.6108,-7.858068E-05
328.7108,-7.854677E-05
328.8109,-7.851664E-05
328.9109,-7.846484E-05
329.0109,-7.843471E-05
329.1109,-7.840175E-05
329.2109,-7.834619E-05
329.3109,-7.830758E-05
329.4109,-7.827838E-05
329.5109,-7.820586E-05
329.6109,-7.817009E-05
329.7109,-7.811358E-05
329.8109,-7.807874E-05
329.9109,-7.802318E-05
330.0109,-7.79695E-05
330.1109,-7.794501E-05
330.2109,-7.786779E-05
330.3109,-7.786308E-05
330.4109,-7.779904E-05
330.511,-7.774348E-05
330.611,-7.771805E-05
330.711,-7.768792E-05
330.811,-7.762294E-05
330.911,-7.756643E-05
331.011,-7.754102E-05
331.111,-7.747603E-05
331.211,-7.74346E-05
331.311,-7.743365E-05
331.411,-7.739786E-05
331.511,-7.731216E-05
331.611,-7.728769E-05
331.711,-7.724718E-05
331.811,-7.717468E-05
331.911,-7.712947E-05
332.011,-7.710122E-05
332.1111,-7.704565E-05
332.2111,-7.69948E-05
332.3111,-7.697032E-05
332.4111,-7.6927E-05
332.5111,-7.686673E-05
332.6111,-7.680646E-05
332.7111,-7.676125E-05
332.8111,-7.670475E-05
332.9111,-7.665578E-05
333.0111,-7.662847E-05
333.1111,-7.65795E-05
333.2111,-7.652582E-05
333.3111,-7.650605E-05
333.4111,-7.64599E-05
333.5111,-7.641187E-05
333.6111,-7.637702E-05
333.7112,-7.633654E-05
333.8112,-7.632335E-05
333.9112,-7.62499E-05
334.0112,-7.621222E-05
334.1112,-7.618868E-05
334.2112,-7.615949E-05
334.3112,-7.60964E-05
334.4112,-7.607473E-05
334.5112,-7.601823E-05
334.6112,-7.597868E-05
334.7112,-7.5925E-05
334.8112,-7.589204E-05
334.9112,-7.585436E-05
335.0112,-7.582235E-05
335.1112,-7.574701E-05
335.2112,-7.57423E-05
335.3112,-7.569051E-05
335.4113,-7.563495E-05
335.5113,-7.560952E-05
335.6113,-7.558597E-05
335.7113,-7.550969E-05
335.8113,-7.549275E-05
335.9113,-7.546826E-05
336.0113,-7.543906E-05
336.1113,-7.535619E-05
336.2113,-7.535431E-05
336.3113,-7.531758E-05
336.4113,-7.525449E-05
336.5113,-7.520929E-05
336.6113,-7.520081E-05
336.7113,-7.515938E-05
336.8113,-7.509628E-05
336.9113,-7.506991E-05
337.0114,-7.504354E-05
337.1114,-7.496349E-05
337.2114,-7.492676E-05
337.3114,-7.490605E-05
337.4114,-7.484389E-05
337.5114,-7.482035E-05
337.6114,-7.475631E-05
337.7114,-7.474406E-05
337.8114,-7.470169E-05
337.9114,-7.463294E-05
338.0114,-7.461976E-05
338.1114,-7.46028E-05
338.2114,-7.455101E-05
338.3114,-7.449545E-05
338.4114,-7.445402E-05
338.5114,-7.442105E-05
338.6115,-7.437585E-05
338.7115,-7.43184E-05
338.8115,-7.428356E-05
338.9115,-7.424213E-05
339.0115,-7.420163E-05
339.1115,-7.416678E-05
339.2115,-7.409804E-05
339.3115,-7.406414E-05
339.4115,-7.402458E-05
339.5115,-7.397091E-05
339.6115,-7.394265E-05
339.7115,-7.38918E-05
339.8115,-7.385224E-05
339.9115,-7.380988E-05
340.0115,-7.378162E-05
340.1115,-7.371476E-05
340.2115,-7.368744E-05
340.3116,-7.364507E-05
340.4116,-7.360269E-05
340.5116,-7.356502E-05
340.6116,-7.35264E-05
340.7116,-7.348686E-05
340.8116,-7.345107E-05
340.9116,-7.341246E-05
341.0116,-7.337196E-05
341.1116,-7.334089E-05
341.2116,-7.329003E-05
341.3116,-7.323823E-05
341.4116,-7.324389E-05
341.5116,-7.318643E-05
341.6116,-7.314312E-05
341.7116,-7.311393E-05
341.8116,-7.309509E-05
341.9117,-7.3032E-05
342.0117,-7.298491E-05
342.1117,-7.295948E-05
342.2117,-7.293312E-05
342.3117,-7.285872E-05
342.4117,-7.283517E-05
342.5117,-7.280034E-05
342.6117,-7.273818E-05
342.7117,-7.272311E-05
342.8117,-7.267979E-05
342.9117,-7.262328E-05
343.0117,-7.259787E-05
343.1117,-7.253382E-05
343.2117,-7.24839E-05
343.3117,-7.244154E-05
343.4117,-7.241798E-05
343.5117,-7.236619E-05
343.6118,-7.231627E-05
343.7118,-7.233135E-05
343.8118,-7.226544E-05
343.9118,-7.219103E-05
344.0118,-7.221552E-05
344.1118,-7.215148E-05
344.2118,-7.208744E-05
344.3118,-7.208838E-05
344.4118,-7.206955E-05
344.5118,-7.200551E-05
344.6118,-7.19669E-05
344.7118,-7.195184E-05
344.8118,-7.191605E-05
344.9118,-7.186425E-05
345.0118,-7.184072E-05
345.1118,-7.181906E-05
345.2119,-7.178137E-05
345.3119,-7.174559E-05
345.4119,-7.170415E-05
345.5119,-7.167403E-05
345.6119,-7.161847E-05
345.7119,-7.158738E-05
345.8119,-7.155536E-05
345.9119,-7.150074E-05
346.0119,-7.148003E-05
346.1119,-7.143953E-05
346.2119,-7.140375E-05
346.3119,-7.133877E-05
346.4119,-7.13124E-05
346.5119,-7.12785E-05
346.6119,-7.122293E-05
346.7119,-7.12154E-05
346.812,-7.116454E-05
346.912,-7.111275E-05
347.012,-7.109109E-05
347.112,-7.106472E-05
347.212,-7.100446E-05
347.312,-7.096113E-05
347.412,-7.094324E-05
347.512,-7.09018E-05
347.612,-7.086319E-05
347.712,-7.081987E-05
347.812,-7.07775E-05
347.912,-7.075395E-05
348.012,-7.07144E-05
348.112,-7.065601E-05
348.212,-7.062305E-05
348.312,-7.060516E-05
348.412,-7.055242E-05
348.5121,-7.050909E-05
348.6121,-7.051192E-05
348.7121,-7.047896E-05
348.8121,-7.040362E-05
348.9121,-7.041116E-05
349.0121,-7.036031E-05
349.1121,-7.029627E-05
349.2121,-7.025672E-05
349.3121,-7.021528E-05
349.4121,-7.017385E-05
349.5121,-7.012865E-05
349.6121,-7.012299E-05
349.7121,-7.006366E-05
349.8121,-7.000245E-05
349.9121,-6.998739E-05
350.0121,-6.993182E-05
350.1122,-6.98659E-05
350.2122,-6.985648E-05
350.3122,-6.979809E-05
350.4122,-6.974253E-05
350.5122,-6.971334E-05
350.6122,-6.969451E-05
350.7122,-6.966342E-05
350.8122,-6.959091E-05
350.9122,-6.959562E-05
351.0122,-6.95523E-05
351.1122,-6.949485E-05
351.2122,-6.946378E-05
351.3122,-6.941669E-05
351.4122,-6.93649E-05
351.5122,-6.931781E-05
351.6122,-6.931592E-05
351.7122,-6.926319E-05
351.8123,-6.921045E-05
351.9123,-6.921328E-05
352.0123,-6.916431E-05
352.1123,-6.910498E-05
352.2123,-6.909273E-05
352.3123,-6.90805E-05
352.4123,-6.897691E-05
352.5123,-6.897502E-05
352.6123,-6.896184E-05
352.7123,-6.889497E-05
352.8123,-6.885636E-05
352.9123,-6.885165E-05
353.0123,-6.880928E-05
353.1123,-6.875749E-05
353.2123,-6.876313E-05
353.3123,-6.869155E-05
353.4124,-6.867178E-05
353.5124,-6.86473E-05
353.6124,-6.861811E-05
353.7124,-6.855407E-05
353.8124,-6.852299E-05
353.9124,-6.849757E-05
354.0124,-6.845895E-05
354.1124,-6.840903E-05
354.2124,-6.840244E-05
354.3124,-6.835065E-05
354.4124,-6.831581E-05
354.5124,-6.830168E-05
354.6124,-6.823011E-05
354.7124,-6.818208E-05
354.8124,-6.817454E-05
354.9124,-6.813782E-05
355.0125,-6.807002E-05
355.1125,-6.804082E-05
355.2125,-6.803423E-05
355.3125,-6.795042E-05
355.4125,-6.792687E-05
355.5125,-6.791558E-05
355.6125,-6.784871E-05
355.7125,-6.779974E-05
355.8125,-6.778278E-05
355.9125,-6.77423E-05
356.0125,-6.771122E-05
356.1125,-6.768201E-05
356.2125,-6.762175E-05
356.3125,-6.756619E-05
356.4125,-6.756995E-05
356.5125,-6.753699E-05
356.6125,-6.748049E-05
356.7126,-6.743247E-05
356.8126,-6.741175E-05
356.9126,-6.736654E-05
357.0126,-6.730721E-05
357.1126,-6.730721E-05
357.2126,-6.726766E-05
357.3126,-6.719232E-05
357.4126,-6.715277E-05
357.5126,-6.716972E-05
357.6126,-6.709815E-05
357.7126,-6.704729E-05
357.8126,-6.705012E-05
357.9126,-6.702846E-05
358.0126,-6.695878E-05
358.1126,-6.693523E-05
358.2126,-6.691545E-05
358.3127,-6.683917E-05
358.4127,-6.681375E-05
358.5127,-6.679209E-05
358.6127,-6.675347E-05
358.7127,-6.667249E-05
358.8127,-6.66706E-05
358.9127,-6.664424E-05
359.0127,-6.658302E-05
359.1127,-6.654818E-05
359.2127,-6.652463E-05
359.3127,-6.646624E-05
359.4127,-6.643235E-05
359.5127,-6.640032E-05
359.6127,-6.640221E-05
359.7127,-6.633158E-05
359.8127,-6.63184E-05
359.9128,-6.626848E-05
360.0128,-6.624682E-05
360.1128,-6.622233E-05
360.2128,-6.615642E-05
360.3128,-6.612346E-05
360.4128,-6.612628E-05
360.5128,-6.608579E-05
360.6128,-6.60274E-05
360.7128,-6.599915E-05
360.8128,-6.596337E-05
360.9128,-6.59078E-05
361.0128,-6.587766E-05
361.1128,-6.584188E-05
361.2128,-6.580704E-05
361.3128,-6.57543E-05
361.4128,-6.574677E-05
361.5128,-6.567425E-05
361.6129,-6.5646E-05
361.7129,-6.563377E-05
361.8129,-6.556501E-05
361.9129,-6.551416E-05
362.0129,-6.548308E-05
362.1129,-6.546613E-05
362.2129,-6.540115E-05
362.3129,-6.536536E-05
362.4129,-6.534558E-05
362.5129,-6.529757E-05
362.6129,-6.525612E-05
362.7129,-6.525612E-05
362.8129,-6.52015E-05
362.9129,-6.513935E-05
363.0129,-6.512427E-05
363.1129,-6.510921E-05
363.213,-6.501975E-05
363.313,-6.500468E-05
363.413,-6.49849E-05
363.513,-6.49463E-05
363.613,-6.489261E-05
363.713,-6.489168E-05
363.813,-6.486436E-05
363.913,-6.480221E-05
364.013,-6.478997E-05
364.113,-6.476831E-05
364.213,-6.469108E-05
364.313,-6.468261E-05
364.413,-6.463364E-05
364.513,-6.457996E-05
364.613,-6.453382E-05
364.713,-6.452722E-05
364.813,-6.447543E-05
364.9131,-6.441704E-05
365.0131,-6.441515E-05
365.1131,-6.435677E-05
365.2131,-6.430309E-05
365.3131,-6.429462E-05
365.4131,-6.423717E-05
365.5131,-6.421551E-05
365.6131,-6.4159E-05
365.7131,-6.413358E-05
365.8131,-6.409214E-05
365.9131,-6.403658E-05
366.0131,-6.402151E-05
366.1131,-6.397348E-05
366.2131,-6.394995E-05
366.3131,-6.392829E-05
366.4131,-6.385671E-05
366.5132,-6.383034E-05
366.6132,-6.37889E-05
366.7132,-6.374182E-05
366.8132,-6.370415E-05
366.9132,-6.368155E-05
367.0132,-6.364106E-05
367.1132,-6.35902E-05
367.2132,-6.356477E-05
367.3132,-6.354877E-05
367.4132,-6.349132E-05
367.5132,-6.346777E-05
367.6132,-6.3448E-05
367.7132,-6.339997E-05
367.8132,-6.336419E-05
367.9132,-6.334441E-05
368.0132,-6.329543E-05
368.1133,-6.325683E-05
368.2133,-6.322669E-05
368.3133,-6.321538E-05
368.4133,-6.315888E-05
368.5133,-6.313441E-05
368.6133,-6.312027E-05
368.7133,-6.308261E-05
368.8133,-6.303175E-05
368.9133,-6.301104E-05
369.0133,-6.298843E-05
369.1133,-6.293287E-05
369.2133,-6.28952E-05
369.3133,-6.290838E-05
369.4133,-6.284434E-05
369.5133,-6.278502E-05
369.6133,-6.278031E-05
369.7133,-6.274453E-05
369.8134,-6.269556E-05
369.9134,-6.262304E-05
370.0134,-6.26334E-05
370.1134,-6.257973E-05
370.2134,-6.252793E-05
370.3134,-6.25317E-05
370.4134,-6.246859E-05
370.5134,-6.243846E-05
370.6134,-6.241963E-05
370.7134,-6.237442E-05
370.8134,-6.235654E-05
370.9134,-6.230945E-05
371.0134,-6.227742E-05
371.1134,-6.222093E-05
371.2134,-6.224541E-05
371.3134,-6.218514E-05
371.4135,-6.213617E-05
371.5135,-6.212675E-05
371.6135,-6.211451E-05
371.7135,-6.206648E-05
371.8135,-6.200997E-05
371.9135,-6.201751E-05
372.0135,-6.198925E-05
372.1135,-6.191392E-05
372.2135,-6.192146E-05
372.3135,-6.189886E-05
372.4135,-6.184423E-05
372.5135,-6.184329E-05
372.6135,-6.179808E-05
372.7135,-6.176324E-05
372.8135,-6.174817E-05
372.9135,-6.171898E-05
373.0135,-6.165683E-05
373.1136,-6.162198E-05
373.2136,-6.159938E-05
373.3136,-6.157395E-05
373.4136,-6.15005E-05
373.5136,-6.151933E-05
373.6136,-6.14892E-05
373.7136,-6.141009E-05
373.8136,-6.139691E-05
373.9136,-6.136771E-05
374.0136,-6.131027E-05
374.1136,-6.126695E-05
374.2136,-6.126789E-05
374.3136,-6.124058E-05
374.4136,-6.11709E-05
374.5136,-6.118502E-05
374.6136,-6.11417E-05
374.7137,-6.106448E-05
374.8137,-6.105506E-05
374.9137,-6.103057E-05
375.0137,-6.096183E-05
375.1137,-6.092793E-05
375.2137,-6.092981E-05
375.3137,-6.089026E-05
375.4137,-6.082434E-05
375.5137,-6.082904E-05
375.6137,-6.078007E-05
375.7137,-6.074241E-05
375.8137,-6.073864E-05
375.9137,-6.069626E-05
376.0137,-6.063128E-05
376.1137,-6.061715E-05
376.2137,-6.061339E-05
376.3138,-6.051356E-05
376.4138,-6.052204E-05
376.5138,-6.050885E-05
376.6138,-6.043069E-05
376.7138,-6.040432E-05
376.8138,-6.041185E-05
376.9138,-6.03497E-05
377.0138,-6.030921E-05
377.1138,-6.028284E-05
377.2138,-6.028661E-05
377.3138,-6.022539E-05
377.4138,-6.019054E-05
377.5138,-6.015665E-05
377.6138,-6.013781E-05
377.7138,-6.010485E-05
377.8138,-6.007283E-05
377.9138,-6.001915E-05
378.0139,-5.999655E-05
378.1139,-5.999278E-05
378.2139,-5.995606E-05
378.3139,-5.992216E-05
378.4139,-5.99118E-05
378.5139,-5.984117E-05
378.6139,-5.98148E-05
378.7139,-5.980538E-05
378.8139,-5.972533E-05
378.9139,-5.969897E-05
379.0139,-5.968578E-05
379.1139,-5.965094E-05
379.2139,-5.959538E-05
379.3139,-5.958408E-05
379.4139,-5.9553E-05
379.5139,-5.951344E-05
379.614,-5.948425E-05
379.714,-5.948237E-05
379.814,-5.940138E-05
379.914,-5.940891E-05
380.014,-5.937407E-05
380.114,-5.93364E-05
380.214,-5.927707E-05
380.314,-5.926765E-05
380.414,-5.929025E-05
380.514,-5.921774E-05
380.614,-5.91763E-05
380.714,-5.917066E-05
380.814,-5.909437E-05
380.914,-5.906424E-05
381.014,-5.9068E-05
381.114,-5.901339E-05
381.2141,-5.897101E-05
381.3141,-5.894841E-05
381.4141,-5.891073E-05
381.5141,-5.888531E-05
381.6141,-5.885423E-05
381.7141,-5.881751E-05
381.8141,-5.88015E-05
381.9141,-5.877513E-05
382.0141,-5.874311E-05
382.1141,-5.872804E-05
382.2141,-5.868849E-05
382.3141,-5.863292E-05
382.4141,-5.863387E-05
382.5141,-5.861032E-05
382.6141,-5.85444E-05
382.7141,-5.853593E-05
382.8141,-5.853122E-05
382.9142,-5.845682E-05
383.0142,-5.846812E-05
383.1142,-5.842763E-05
383.2142,-5.837207E-05
383.3142,-5.834758E-05
383.4142,-5.831462E-05
383.5142,-5.828825E-05
383.6142,-5.823269E-05
383.7142,-5.820915E-05
383.8142,-5.819031E-05
383.9142,-5.814982E-05
384.0142,-5.81112E-05
384.1142,-5.809237E-05
384.2142,-5.805847E-05
384.3142,-5.802928E-05
384.4142,-5.802928E-05
384.5143,-5.797654E-05
384.6143,-5.79351E-05
384.7143,-5.792757E-05
384.8143,-5.790685E-05
384.9143,-5.787201E-05
385.0143,-5.779573E-05
385.1143,-5.779479E-05
385.2143,-5.774958E-05
385.3143,-5.772227E-05
385.4143,-5.769685E-05
385.5143,-5.764129E-05
385.6143,-5.763469E-05
385.7143,-5.75942E-05
385.8143,-5.754429E-05
385.9143,-5.75424E-05
386.0143,-5.751038E-05
386.1143,-5.747366E-05
386.2144,-5.745765E-05
386.3144,-5.740962E-05
386.4144,-5.738042E-05
386.5144,-5.733616E-05
386.6144,-5.730414E-05
386.7144,-5.726082E-05
386.8144,-5.722221E-05
386.9144,-5.719678E-05
387.0144,-5.717136E-05
387.1144,-5.710732E-05
387.2144,-5.711862E-05
387.3144,-5.70527E-05
387.4144,-5.70188E-05
387.5144,-5.698678E-05
387.6144,-5.696512E-05
387.7144,-5.691991E-05
387.8145,-5.687754E-05
387.9145,-5.686812E-05
388.0145,-5.683139E-05
388.1145,-5.676641E-05
388.2145,-5.67457E-05
388.3145,-5.66195E-05
388.4145,-5.651874E-05
388.5145,-5.650932E-05
388.6145,-5.64726E-05
388.7145,-5.641797E-05
388.8145,-5.640291E-05
388.9145,-5.636618E-05
389.0145,-5.634169E-05
389.1145,-5.63351E-05
389.2145,-5.631815E-05
389.3145,-5.626541E-05
389.4146,-5.626259E-05
389.5146,-5.624658E-05
389.6146,-5.618913E-05
389.7146,-5.617594E-05
389.8146,-5.617312E-05
389.9146,-5.613828E-05
390.0146,-5.608554E-05
390.1146,-5.607142E-05
390.2146,-5.604222E-05
390.3146,-5.600926E-05
390.4146,-5.599326E-05
390.5146,-5.596218E-05
390.6146,-5.592827E-05
390.7146,-5.590755E-05
390.8146,-5.589814E-05
390.9146,-5.587836E-05
391.0146,-5.58454E-05
391.1147,-5.581998E-05
391.2147,-5.581527E-05
391.3147,-5.575123E-05
391.4147,-5.574464E-05
391.5147,-5.570226E-05
391.6147,-5.568813E-05
391.7147,-5.565234E-05
391.8147,-5.564764E-05
391.9147,-5.562221E-05
392.0147,-5.559678E-05
392.1147,-5.553934E-05
392.2147,-5.554122E-05
392.3147,-5.551109E-05
392.4147,-5.546965E-05
392.5147,-5.545082E-05
392.6147,-5.540656E-05
392.7148,-5.539337E-05
392.8148,-5.534628E-05
392.9148,-5.531992E-05
393.0148,-5.531238E-05
393.1148,-5.529826E-05
393.2148,-5.524929E-05
393.3148,-5.522574E-05
393.4148,-5.520691E-05
393.5148,-5.518054E-05
393.6148,-5.513063E-05
393.7148,-5.512215E-05
393.8148,-5.508825E-05
393.9148,-5.505152E-05
394.0148,-5.505341E-05
394.1148,-5.502798E-05
394.2148,-5.498089E-05
394.3148,-5.496111E-05
394.4149,-5.491403E-05
394.5149,-5.48773E-05
394.6149,-5.484528E-05
394.7149,-5.481138E-05
394.8149,-5.479631E-05
394.9149,-5.476147E-05
395.0149,-5.471721E-05
395.1149,-5.471061E-05
395.2149,-5.467672E-05
395.3149,-5.464564E-05
395.4149,-5.459196E-05
395.5149,-5.457124E-05
395.6149,-5.455429E-05
395.7149,-5.449308E-05
395.8149,-5.447236E-05
395.9149,-5.443092E-05
396.015,-5.441679E-05
396.115,-5.43763E-05
396.215,-5.435464E-05
396.315,-5.433863E-05
396.415,-5.428872E-05
396.515,-5.426235E-05
396.615,-5.423033E-05
396.715,-5.417665E-05
396.815,-5.4171E-05
396.915,-5.41371E-05
397.015,-5.408719E-05
397.115,-5.407306E-05
397.215,-5.402786E-05
397.315,-5.401185E-05
397.415,-5.397324E-05
397.515,-5.392145E-05
397.6151,-5.393369E-05
397.7151,-5.389413E-05
397.8151,-5.384611E-05
397.9151,-5.384422E-05
398.0151,-5.383481E-05
398.1151,-5.376606E-05
398.2151,-5.373687E-05
398.3151,-5.373121E-05
398.4151,-5.366812E-05
398.5151,-5.36361E-05
398.6151,-5.365211E-05
398.7151,-5.362668E-05
398.8151,-5.357583E-05
398.9151,-5.358054E-05
399.0151,-5.35504E-05
399.1151,-5.348542E-05
399.2151,-5.34939E-05
399.3152,-5.346942E-05
399.4152,-5.339219E-05
399.5152,-5.336488E-05
399.6152,-5.337524E-05
399.7152,-5.334322E-05
399.8152,-5.327542E-05
399.9152,-5.329237E-05
400.0152,-5.325187E-05
400.1152,-5.319349E-05
400.2152,-5.319725E-05
400.3152,-5.316711E-05
400.4152,-5.310497E-05
400.5152,-5.307577E-05
400.6152,-5.308048E-05
400.7152,-5.303433E-05
400.8152,-5.299008E-05
400.9153,-5.30042E-05
401.0153,-5.296182E-05
401.1153,-5.289684E-05
401.2153,-5.291285E-05
401.3153,-5.28667E-05
401.4153,-5.281114E-05
401.5153,-5.282527E-05
401.6153,-5.281303E-05
401.7153,-5.274993E-05
401.8153,-5.272545E-05
401.9153,-5.269813E-05
402.0153,-5.264634E-05
402.1153,-5.260961E-05
402.2153,-5.26162E-05
402.3153,-5.260396E-05
402.4153,-5.254934E-05
402.5154,-5.252957E-05
402.6154,-5.25079E-05
402.7154,-5.246835E-05
402.8154,-5.24288E-05
402.9154,-5.240149E-05
403.0154,-5.238548E-05
403.1154,-5.23318E-05
403.2154,-5.233275E-05
403.3154,-5.231203E-05
403.4154,-5.226965E-05
403.5154,-5.221974E-05
403.6154,-5.222162E-05
403.7154,-5.217265E-05
403.8154,-5.213498E-05
403.9154,-5.211614E-05
404.0154,-5.210202E-05
404.1154,-5.205305E-05
404.2155,-5.204834E-05
404.3155,-5.20135E-05
404.4155,-5.197866E-05
404.5155,-5.197771E-05
404.6155,-5.19504E-05
404.7155,-5.19052E-05
404.8155,-5.188636E-05
404.9155,-5.186376E-05
405.0155,-5.183551E-05
405.1155,-5.183363E-05
405.2155,-5.179784E-05
405.3155,-5.17677E-05
405.4155,-5.17451E-05
405.5155,-5.170084E-05
405.6155,-5.169519E-05
405.7155,-5.165093E-05
405.8156,-5.16368E-05
405.9156,-5.159914E-05
406.0156,-5.158312E-05
406.1156,-5.157842E-05
406.2156,-5.153228E-05
406.3156,-5.148895E-05
406.4156,-5.148801E-05
406.5156,-5.142492E-05
406.6156,-5.140231E-05
406.7156,-5.138913E-05
406.8156,-5.134675E-05
406.9156,-5.13072E-05
407.0156,-5.130249E-05
407.1156,-5.127706E-05
407.2156,-5.124693E-05
407.3156,-5.117253E-05
407.4156,-5.119231E-05
407.5157,-5.117818E-05
407.6157,-5.111697E-05
407.7157,-5.110661E-05
407.8157,-5.111132E-05
407.9157,-5.106047E-05
408.0157,-5.101714E-05
408.1157,-5.101338E-05
408.2157,-5.097665E-05
408.3157,-5.094181E-05
408.4157,-5.092486E-05
408.5157,-5.090978E-05
408.6157,-5.086836E-05
408.7157,-5.086929E-05
408.8157,-5.08288E-05
408.9157,-5.079867E-05
409.0157,-5.07996E-05
409.1158,-5.076194E-05
409.2158,-5.072521E-05
409.3158,-5.070637E-05
409.4158,-5.065458E-05
409.5158,-5.06574E-05
409.6158,-5.063009E-05
409.7158,-5.05896E-05
409.8158,-5.056794E-05
409.9158,-5.054534E-05
410.0158,-5.051614E-05
410.1158,-5.048883E-05
410.2158,-5.046906E-05
410.3158,-5.044175E-05
410.4158,-5.037865E-05
410.5158,-5.036452E-05
410.6158,-5.03617E-05
410.7159,-5.03278E-05
410.8159,-5.026659E-05
410.9159,-5.02826E-05
411.0159,-5.027506E-05
411.1159,-5.019313E-05
411.2159,-5.020254E-05
411.3159,-5.019972E-05
411.4159,-5.014793E-05
411.5159,-5.010837E-05
411.6159,-5.013568E-05
411.7159,-5.009519E-05
411.8159,-5.004433E-05
411.9159,-5.002079E-05
412.0159,-5.001043E-05
412.1159,-4.996711E-05
412.2159,-4.994074E-05
412.3159,-4.993133E-05
412.416,-4.988424E-05
412.516,-4.986352E-05
412.616,-4.984186E-05
412.716,-4.983339E-05
412.816,-4.979101E-05
412.916,-4.974392E-05
413.016,-4.973922E-05
413.116,-4.969684E-05
413.216,-4.968083E-05
413.316,-4.964504E-05
413.416,-4.960078E-05
413.516,-4.961114E-05
413.616,-4.957629E-05
413.716,-4.952356E-05
413.816,-4.953392E-05
413.916,-4.950284E-05
414.0161,-4.946517E-05
414.1161,-4.942091E-05
414.2161,-4.943032E-05
414.3161,-4.936158E-05
414.4161,-4.935781E-05
414.5161,-4.937759E-05
414.6161,-4.931732E-05
414.7161,-4.926364E-05
414.8161,-4.931355E-05
414.9161,-4.924857E-05
415.0161,-4.91996E-05
415.1161,-4.920055E-05
415.2161,-4.917229E-05
415.3161,-4.911861E-05
415.4161,-4.910543E-05
415.5161,-4.908094E-05
415.6161,-4.905552E-05
415.7162,-4.900843E-05
415.8162,-4.90122E-05
415.9162,-4.899336E-05
416.0162,-4.894157E-05
416.1162,-4.891614E-05
416.2162,-4.89039E-05
416.3162,-4.886623E-05
416.4162,-4.884174E-05
416.5162,-4.880784E-05
416.6162,-4.880502E-05
416.7162,-4.877959E-05
416.8162,-4.876641E-05
416.9162,-4.871744E-05
417.0162,-4.869107E-05
417.1162,-4.870331E-05
417.2162,-4.864398E-05
417.3163,-4.860914E-05
417.4163,-4.861667E-05
417.5163,-4.859972E-05
417.6163,-4.855452E-05
417.7163,-4.854698E-05
417.8163,-4.852815E-05
417.9163,-4.850272E-05
418.0163,-4.847071E-05
418.1163,-4.843491E-05
418.2163,-4.842173E-05
418.3163,-4.839725E-05
418.4163,-4.837276E-05
418.5163,-4.834734E-05
418.6163,-4.833038E-05
418.7163,-4.831155E-05
418.8163,-4.827953E-05
418.9164,-4.822867E-05
419.0164,-4.819854E-05
419.1164,-4.817029E-05
419.2164,-4.812415E-05
419.3164,-4.808271E-05
419.4164,-4.808459E-05
419.5164,-4.80554E-05
419.6164,-4.802244E-05
419.7164,-4.800455E-05
419.8164,-4.79989E-05
419.9164,-4.793297E-05
420.0164,-4.79358E-05
420.1164,-4.78953E-05
420.2164,-4.785858E-05
420.3164,-4.78501E-05
420.4164,-4.781902E-05
420.5164,-4.779077E-05
420.6165,-4.775122E-05
420.7165,-4.773992E-05
420.8165,-4.769095E-05
420.9165,-4.766176E-05
421.0165,-4.765045E-05
421.1165,-4.761091E-05
421.2165,-4.759678E-05
421.3165,-4.757794E-05
421.4165,-4.753651E-05
421.5165,-4.749506E-05
421.6165,-4.747718E-05
421.7165,-4.746211E-05
421.8165,-4.744045E-05
421.9165,-4.737924E-05
422.0165,-4.737076E-05
422.1165,-4.735004E-05
422.2166,-4.731237E-05
422.3166,-4.730107E-05
422.4166,-4.727659E-05
422.5166,-4.725964E-05
422.6166,-4.723044E-05
422.7166,-4.720878E-05
422.8166,-4.718147E-05
422.9166,-4.716546E-05
423.0166,-4.713533E-05
423.1166,-4.710614E-05
423.2166,-4.706753E-05
423.3166,-4.705528E-05
423.4166,-4.702703E-05
423.5166,-4.700443E-05
423.6166,-4.701667E-05
423.7166,-4.697241E-05
423.8167,-4.690743E-05
423.9167,-4.690837E-05
424.0167,-4.688295E-05
424.1167,-4.68255E-05
424.2167,-4.681138E-05
424.3167,-4.677747E-05
424.4167,-4.675299E-05
424.5167,-4.672191E-05
424.6167,-4.672002E-05
424.7167,-4.668141E-05
424.8167,-4.665693E-05
424.9167,-4.665881E-05
425.0167,-4.660042E-05
425.1167,-4.656558E-05
425.2167,-4.655899E-05
425.3167,-4.652132E-05
425.4167,-4.650154E-05
425.5168,-4.64893E-05
425.6168,-4.647424E-05
425.7168,-4.641679E-05
425.8168,-4.640643E-05
425.9168,-4.637535E-05
426.0168,-4.633392E-05
426.1168,-4.631131E-05
426.2168,-4.631037E-05
426.3168,-4.626893E-05
426.4168,-4.625387E-05
426.5168,-4.623315E-05
426.6168,-4.621714E-05
426.7168,-4.618136E-05
426.8168,-4.615216E-05
426.9168,-4.613709E-05
427.0168,-4.612108E-05
427.1169,-4.608907E-05
427.2169,-4.604574E-05
427.3169,-4.604763E-05
427.4169,-4.602126E-05
427.5169,-4.596758E-05
427.6169,-4.598077E-05
427.7169,-4.59544E-05
427.8169,-4.590449E-05
427.9169,-4.590449E-05
428.0169,-4.589036E-05
428.1169,-4.584422E-05
428.2169,-4.580843E-05
428.3169,-4.578959E-05
428.4169,-4.578017E-05
428.5169,-4.573403E-05
428.6169,-4.574062E-05
428.7169,-4.572556E-05
428.817,-4.564645E-05
428.917,-4.565492E-05
429.017,-4.563421E-05
429.117,-4.560219E-05
429.217,-4.556358E-05
429.317,-4.555981E-05
429.417,-4.554569E-05
429.517,-4.548918E-05
429.617,-4.549295E-05
429.717,-4.549577E-05
429.817,-4.541196E-05
429.917,-4.540066E-05
430.017,-4.540914E-05
430.117,-4.535357E-05
430.217,-4.53498E-05
430.317,-4.533568E-05
430.4171,-4.529236E-05
430.5171,-4.530931E-05
430.6171,-4.528388E-05
430.7171,-4.522926E-05
430.8171,-4.517747E-05
430.9171,-4.515298E-05
431.0171,-4.51511E-05
431.1171,-4.509177E-05
431.2171,-4.509648E-05
431.3171,-4.506823E-05
431.4171,-4.502208E-05
431.5171,-4.501549E-05
431.6171,-4.499665E-05
431.7171,-4.495522E-05
431.8171,-4.492696E-05
431.9171,-4.490343E-05
432.0172,-4.490154E-05
432.1172,-4.485069E-05
432.2172,-4.48714E-05
432.3172,-4.482714E-05
432.4172,-4.478194E-05
432.5172,-4.478476E-05
432.6172,-4.477252E-05
432.7172,-4.473768E-05
432.8172,-4.469813E-05
432.9172,-4.470095E-05
433.0172,-4.467364E-05
433.1172,-4.464821E-05
433.2172,-4.460584E-05
433.3172,-4.460961E-05
433.4172,-4.457664E-05
433.5172,-4.456063E-05
433.6172,-4.453709E-05
433.7173,-4.451073E-05
433.8173,-4.451261E-05
433.9173,-4.446929E-05
434.0173,-4.444197E-05
434.1173,-4.444574E-05
434.2173,-4.444009E-05
434.3173,-4.439018E-05
434.4173,-4.437982E-05
434.5173,-4.439583E-05
434.6173,-4.432615E-05
434.7173,-4.431673E-05
434.8173,-4.432991E-05
434.9173,-4.427717E-05
435.0173,-4.423573E-05
435.1173,-4.426399E-05
435.2173,-4.422915E-05
435.3174,-4.416887E-05
435.4174,-4.418206E-05
435.5174,-4.418677E-05
435.6174,-4.41039E-05
435.7174,-4.40973E-05
435.8174,-4.408883E-05
435.9174,-4.40521E-05
436.0174,-4.400972E-05
436.1174,-4.400972E-05
436.2174,-4.401537E-05
436.3174,-4.397582E-05
436.4174,-4.394568E-05
436.5174,-4.392214E-05
436.6174,-4.38986E-05
436.7174,-4.389106E-05
436.8174,-4.384492E-05
436.9174,-4.379972E-05
437.0175,-4.381761E-05
437.1175,-4.377429E-05
437.2175,-4.373379E-05
437.3175,-4.374415E-05
437.4175,-4.371213E-05
437.5175,-4.371213E-05
437.6175,-4.367729E-05
437.7175,-4.36707E-05
437.8175,-4.363679E-05
437.9175,-4.362362E-05
438.0175,-4.361419E-05
438.1175,-4.355769E-05
438.2175,-4.355298E-05
438.3175,-4.355581E-05
438.4175,-4.354921E-05
438.5175,-4.348894E-05
438.6176,-4.352379E-05
438.7176,-4.346351E-05
438.8176,-4.345127E-05
438.9176,-4.342585E-05
439.0176,-4.340042E-05
439.1176,-4.337876E-05
439.2176,-4.334109E-05
439.3176,-4.335993E-05
439.4176,-4.33345E-05
439.5176,-4.325917E-05
439.6176,-4.327329E-05
439.7176,-4.324315E-05
439.8176,-4.321867E-05
439.9176,-4.31857E-05
440.0176,-4.316593E-05
440.1176,-4.313485E-05
440.2177,-4.310378E-05
440.3177,-4.307269E-05
440.4177,-4.306987E-05
440.5177,-4.302561E-05
440.6177,-4.303032E-05
440.7177,-4.302843E-05
440.8177,-4.297476E-05
440.9177,-4.294462E-05
441.0177,-4.292955E-05
441.1177,-4.29126E-05
441.2177,-4.28561E-05
441.3177,-4.286269E-05
441.4177,-4.283444E-05
441.5177,-4.278924E-05
441.6177,-4.278736E-05
441.7177,-4.277323E-05
441.8177,-4.272991E-05
441.9178,-4.267811E-05
442.0178,-4.269224E-05
442.1178,-4.268377E-05
442.2178,-4.262443E-05
442.3178,-4.260278E-05
442.4178,-4.261408E-05
442.5178,-4.25651E-05
442.6178,-4.255757E-05
442.7178,-4.254439E-05
442.8178,-4.250107E-05
442.9178,-4.247847E-05
443.0178,-4.247376E-05
443.1178,-4.243515E-05
443.2178,-4.240689E-05
443.3178,-4.240124E-05
443.4178,-4.238335E-05
443.5179,-4.234192E-05
443.6179,-4.232497E-05
443.7179,-4.232779E-05
443.8179,-4.228541E-05
443.9179,-4.226846E-05
444.0179,-4.226375E-05
444.1179,-4.223833E-05
444.2179,-4.22289E-05
444.3179,-4.220537E-05
444.4179,-4.218653E-05
444.5179,-4.214697E-05
444.6179,-4.213567E-05
444.7179,-4.21159E-05
444.8179,-4.207635E-05
444.9179,-4.202644E-05
445.0179,-4.202267E-05
445.118,-4.197464E-05
445.218,-4.195863E-05
445.318,-4.194733E-05
445.418,-4.190683E-05
445.518,-4.186069E-05
445.618,-4.187105E-05
445.718,-4.186163E-05
445.818,-4.179759E-05
445.918,-4.18089E-05
446.018,-4.179854E-05
446.118,-4.175427E-05
446.218,-4.17458E-05
446.318,-4.174486E-05
446.418,-4.170436E-05
446.518,-4.167423E-05
446.618,-4.168082E-05
446.718,-4.165727E-05
446.8181,-4.160172E-05
446.9181,-4.160736E-05
447.0181,-4.160642E-05
447.1181,-4.154238E-05
447.2181,-4.156498E-05
447.3181,-4.154238E-05
447.4181,-4.149906E-05
447.5181,-4.150095E-05
447.6181,-4.147741E-05
447.7181,-4.142938E-05
447.8181,-4.138982E-05
447.9181,-4.138323E-05
448.0181,-4.13644E-05
448.1181,-4.133332E-05
448.2181,-4.132013E-05
448.3181,-4.129283E-05
448.4182,-4.124668E-05
448.5182,-4.125328E-05
448.6182,-4.122973E-05
448.7182,-4.119583E-05
448.8182,-4.117605E-05
448.9182,-4.117511E-05
449.0182,-4.116475E-05
449.1182,-4.113273E-05
449.2182,-4.113367E-05
449.3182,-4.110636E-05
449.4182,-4.107811E-05
449.5182,-4.107058E-05
449.6182,-4.104609E-05
449.7182,-4.099241E-05
449.8182,-4.097735E-05
449.9182,-4.098394E-05
450.0182,-4.095474E-05
450.1183,-4.092273E-05
450.2183,-4.090483E-05
450.3183,-4.088223E-05
450.4183,-4.08568E-05
450.5183,-4.084174E-05
450.6183,-4.082761E-05
450.7183,-4.076734E-05
450.8183,-4.0789E-05
450.9183,-4.076734E-05
451.0183,-4.072873E-05
451.1183,-4.070519E-05
451.2183,-4.071083E-05
451.3183,-4.067222E-05
451.4183,-4.064962E-05
451.5183,-4.064868E-05
451.6183,-4.061855E-05
451.7184,-4.058558E-05
451.8184,-4.05837E-05
451.9184,-4.057523E-05
452.0184,-4.054321E-05
452.1184,-4.052814E-05
452.2184,-4.050554E-05
452.3184,-4.04754E-05
452.4184,-4.045375E-05
452.5184,-4.043585E-05
452.6184,-4.041419E-05
452.7184,-4.038123E-05
452.8184,-4.038029E-05
452.9184,-4.035392E-05
453.0184,-4.031154E-05
453.1184,-4.030683E-05
453.2184,-4.029082E-05
453.3185,-4.027105E-05
453.4185,-4.025598E-05
453.5185,-4.023714E-05
453.6185,-4.01976E-05
453.7185,-4.018158E-05
453.8185,-4.017875E-05
453.9185,-4.016369E-05
454.0185,-4.01458E-05
454.1185,-4.01345E-05
454.2185,-4.011001E-05
454.3185,-4.008082E-05
454.4185,-4.005916E-05
454.5185,-4.005163E-05
454.6185,-4.00149E-05
454.7185,-3.999229E-05
454.8185,-3.996687E-05
454.9185,-3.994898E-05
455.0186,-3.991884E-05
455.1186,-3.991037E-05
455.2186,-3.990095E-05
455.3186,-3.986987E-05
455.4186,-3.985104E-05
455.5186,-3.985009E-05
455.6186,-3.980018E-05
455.7186,-3.978982E-05
455.8186,-3.978417E-05
455.9186,-3.973332E-05
456.0186,-3.971731E-05
456.1186,-3.972014E-05
456.2186,-3.967964E-05
456.3186,-3.964668E-05
456.4186,-3.96561E-05
456.5186,-3.959865E-05
456.6187,-3.949789E-05
456.7187,-3.946493E-05
456.8187,-3.945739E-05
456.9187,-3.943196E-05
457.0187,-3.941502E-05
457.1187,-3.941502E-05
457.2187,-3.938205E-05
457.3187,-3.934156E-05
457.4187,-3.925398E-05
457.5187,-3.909106E-05
457.6187,-3.899406E-05
457.7187,-3.8979E-05
457.8187,-3.897052E-05
457.9187,-3.895827E-05
458.0187,-3.897617E-05
458.1187,-3.901195E-05
458.2188,-3.8995E-05
458.3188,-3.900442E-05
458.4188,-3.906469E-05
458.5188,-3.905057E-05
458.6188,-3.904868E-05
458.7188,-3.904491E-05
458.8188,-3.906564E-05
458.9188,-3.904209E-05
459.0188,-3.906281E-05
459.1188,-3.907222E-05
459.2188,-3.903644E-05
459.3188,-3.905245E-05
459.4188,-3.903267E-05
459.5188,-3.904303E-05
459.6188,-3.903549E-05
459.7188,-3.902608E-05
459.8188,-3.903738E-05
459.9189,-3.902796E-05
460.0189,-3.902043E-05
460.1189,-3.903267E-05
460.2189,-3.902984E-05
460.3189,-3.903926E-05
460.4189,-3.900819E-05
460.5189,-3.901007E-05
460.6189,-3.900348E-05
460.7189,-3.900348E-05
460.8189,-3.900253E-05
460.9189,-3.899688E-05
461.0189,-3.898935E-05
461.1189,-3.896863E-05
461.2189,-3.897522E-05
461.3189,-3.898088E-05
461.4189,-3.895639E-05
461.519,-3.896863E-05
461.619,-3.896675E-05
461.719,-3.895168E-05
461.819,-3.895168E-05
461.919,-3.895451E-05
462.019,-3.896298E-05
462.119,-3.895451E-05
462.219,-3.896298E-05
462.319,-3.897334E-05
462.419,-3.895168E-05
462.519,-3.893096E-05
462.619,-3.896581E-05
462.719,-3.895262E-05
462.819,-3.891684E-05
462.919,-3.892625E-05
463.019,-3.896957E-05
463.119,-3.889141E-05
463.2191,-3.893944E-05
463.3191,-3.895733E-05
463.4191,-3.88933E-05
463.5191,-3.892908E-05
463.6191,-3.892437E-05
463.7191,-3.889047E-05
463.8191,-3.886787E-05
463.9191,-3.888011E-05
464.0191,-3.881795E-05
464.1191,-3.880571E-05
464.2191,-3.879818E-05
464.3191,-3.878029E-05
464.4191,-3.875486E-05
464.5191,-3.875486E-05
464.6191,-3.874733E-05
464.7191,-3.870872E-05
464.8192,-3.869647E-05
464.9192,-3.871342E-05
465.0192,-3.86654E-05
465.1192,-3.863903E-05
465.2192,-3.866257E-05
465.3192,-3.864374E-05
465.4192,-3.858818E-05
465.5192,-3.859006E-05
465.6192,-3.858064E-05
465.7192,-3.852885E-05
465.8192,-3.852885E-05
465.9192,-3.853826E-05
466.0192,-3.848929E-05
466.1192,-3.844221E-05
466.2192,-3.846386E-05
466.3192,-3.843091E-05
466.4193,-3.839512E-05
466.5193,-3.838665E-05
466.6193,-3.837157E-05
466.7193,-3.833673E-05
466.8193,-3.831225E-05
466.9193,-3.829435E-05
467.0193,-3.82661E-05
467.1193,-3.825104E-05
467.2193,-3.823408E-05
467.3193,-3.823597E-05
467.4193,-3.820395E-05
467.5193,-3.817758E-05
467.6193,-3.815592E-05
467.7193,-3.813049E-05
467.8193,-3.808999E-05
467.9193,-3.807399E-05
468.0193,-3.805986E-05
468.1194,-3.803538E-05
468.2194,-3.801089E-05
468.3194,-3.799206E-05
468.4194,-3.796663E-05
468.5194,-3.79252E-05
468.6194,-3.792614E-05
468.7194,-3.790165E-05
468.8194,-3.785362E-05
468.9194,-3.782914E-05
469.0194,-3.780936E-05
469.1194,-3.776887E-05
469.2194,-3.774815E-05
469.3194,-3.773591E-05
469.4194,-3.771425E-05
469.5194,-3.767187E-05
469.6194,-3.768223E-05
469.7195,-3.764644E-05
469.8195,-3.762007E-05
469.9195,-3.761725E-05
470.0195,-3.759182E-05
470.1195,-3.757205E-05
470.2195,-3.756922E-05
470.3195,-3.754191E-05
470.4195,-3.748918E-05
470.5195,-3.750047E-05
470.6195,-3.746845E-05
470.7195,-3.743738E-05
470.8195,-3.743549E-05
470.9195,-3.740442E-05
471.0195,-3.737616E-05
471.1195,-3.735733E-05
471.2195,-3.734697E-05
471.3195,-3.732437E-05
471.4196,-3.728576E-05
471.5196,-3.730365E-05
471.6196,-3.727917E-05
471.7196,-3.723585E-05
471.8196,-3.723491E-05
471.9196,-3.722266E-05
472.0196,-3.717746E-05
472.1196,-3.715769E-05
472.2196,-3.713603E-05
472.3196,-3.710212E-05
472.4196,-3.706822E-05
472.5196,-3.708423E-05
472.6196,-3.70701E-05
472.7196,-3.701266E-05
472.8196,-3.706539E-05
472.9196,-3.699382E-05
473.0197,-3.695804E-05
473.1197,-3.695804E-05
473.2197,-3.695145E-05
473.3197,-3.688364E-05
473.4197,-3.687799E-05
473.5197,-3.687422E-05
473.6197,-3.683561E-05
473.7197,-3.68083E-05
473.8197,-3.681866E-05
473.9197,-3.677158E-05
474.0197,-3.674144E-05
474.1197,-3.676027E-05
474.2197,-3.671413E-05
474.3197,-3.670471E-05
474.4197,-3.66774E-05
474.5197,-3.665857E-05
474.6198,-3.662561E-05
474.7198,-3.660583E-05
474.8198,-3.661336E-05
474.9198,-3.658134E-05
475.0198,-3.653237E-05
475.1198,-3.653614E-05
475.2198,-3.653897E-05
475.3198,-3.649847E-05
475.4198,-3.648811E-05
475.5198,-3.645892E-05
475.6198,-3.644008E-05
475.7198,-3.643538E-05
475.8198,-3.639865E-05
475.9198,-3.638641E-05
476.0198,-3.638641E-05
476.1198,-3.636663E-05
476.2198,-3.63073E-05
476.3199,-3.632143E-05
476.4199,-3.633555E-05
476.5199,-3.631672E-05
476.6199,-3.626021E-05
476.7199,-3.628564E-05
476.8199,-3.624327E-05
476.9199,-3.620748E-05
477.0199,-3.619994E-05
477.1199,-3.620277E-05
477.2199,-3.615662E-05
477.3199,-3.612837E-05
477.4199,-3.613873E-05
477.5199,-3.610671E-05
477.6199,-3.607092E-05
477.7199,-3.611707E-05
477.8199,-3.605774E-05
477.92,-3.600218E-05
478.02,-3.603608E-05
478.12,-3.600312E-05
478.22,-3.596827E-05
478.32,-3.595415E-05
478.42,-3.595415E-05
478.52,-3.590142E-05
478.62,-3.590048E-05
478.72,-3.587222E-05
478.82,-3.585998E-05
478.92,-3.585056E-05
479.02,-3.583079E-05
479.12,-3.581007E-05
479.22,-3.578746E-05
479.32,-3.577051E-05
479.42,-3.577146E-05
479.5201,-3.571495E-05
479.6201,-3.570554E-05
479.7201,-3.571777E-05
479.8201,-3.568387E-05
479.9201,-3.565374E-05
480.0201,-3.566033E-05
480.1201,-3.563867E-05
480.2201,-3.560571E-05
480.3201,-3.561419E-05
480.4201,-3.56123E-05
480.5201,-3.555957E-05
480.6201,-3.555862E-05
480.7201,-3.55445E-05
480.8201,-3.553414E-05
480.9201,-3.549176E-05
481.0201,-3.549741E-05
481.1201,-3.549459E-05
481.2202,-3.543337E-05
481.3202,-3.546916E-05
481.4202,-3.54475E-05
481.5202,-3.537593E-05
481.6202,-3.541831E-05
481.7202,-3.538158E-05
481.8202,-3.534485E-05
481.9202,-3.534014E-05
482.0202,-3.532036E-05
482.1202,-3.528552E-05
482.2202,-3.524126E-05
482.3202,-3.525068E-05
482.4202,-3.524785E-05
482.5202,-3.518758E-05
482.6202,-3.519888E-05
482.7202,-3.519229E-05
482.8203,-3.513955E-05
482.9203,-3.514332E-05
483.0203,-3.514332E-05
483.1203,-3.510471E-05
483.2203,-3.50774E-05
483.3203,-3.506045E-05
483.4203,-3.506704E-05
483.5203,-3.502937E-05
483.6203,-3.501054E-05
483.7203,-3.501242E-05
483.8203,-3.499264E-05
483.9203,-3.498888E-05
484.0203,-3.49578E-05
484.1203,-3.494273E-05
484.2203,-3.493331E-05
484.3203,-3.4906E-05
484.4203,-3.489282E-05
484.5204,-3.48947E-05
484.6204,-3.484951E-05
484.7204,-3.48382E-05
484.8204,-3.48269E-05
484.9204,-3.480147E-05
485.0204,-3.4793E-05
485.1204,-3.475156E-05
485.2204,-3.477039E-05
485.3204,-3.473178E-05
485.4204,-3.470071E-05
485.5204,-3.472519E-05
485.6204,-3.471954E-05
485.7204,-3.465268E-05
485.8204,-3.467716E-05
485.9204,-3.46329E-05
486.0204,-3.464985E-05
486.1205,-3.46282E-05
486.2205,-3.459429E-05
486.3205,-3.458299E-05
486.4205,-3.457263E-05
486.5205,-3.456321E-05
486.6205,-3.453402E-05
486.7205,-3.453025E-05
486.8205,-3.450859E-05
486.9205,-3.450388E-05
487.0205,-3.448882E-05
487.1205,-3.444362E-05
487.2205,-3.445209E-05
487.3205,-3.441159E-05
487.4205,-3.441254E-05
487.5205,-3.441254E-05
487.6205,-3.437205E-05
487.7206,-3.436168E-05
487.8206,-3.435698E-05
487.9206,-3.432589E-05
488.0206,-3.431366E-05
488.1206,-3.429953E-05
488.2206,-3.427975E-05
488.3206,-3.426563E-05
488.4206,-3.42628E-05
488.5206,-3.426375E-05
488.6206,-3.422419E-05
488.7206,-3.420724E-05
488.8206,-3.422701E-05
488.9206,-3.417805E-05
489.0206,-3.416016E-05
489.1206,-3.414697E-05
489.2206,-3.414132E-05
489.3206,-3.409612E-05
489.4207,-3.408858E-05
489.5207,-3.409612E-05
489.6207,-3.407728E-05
489.7207,-3.402831E-05
489.8207,-3.405468E-05
489.9207,-3.403113E-05
490.0207,-3.398405E-05
490.1207,-3.398687E-05
490.2207,-3.397651E-05
490.3207,-3.394826E-05
490.4207,-3.390777E-05
490.5207,-3.393413E-05
490.6207,-3.392566E-05
490.7207,-3.387386E-05
490.8207,-3.392566E-05
490.9207,-3.387104E-05
491.0208,-3.382584E-05
491.1208,-3.385221E-05
491.2208,-3.383997E-05
491.3208,-3.37957E-05
491.4208,-3.377404E-05
491.5208,-3.379099E-05
491.6208,-3.375992E-05
491.7208,-3.374579E-05
491.8208,-3.374767E-05
491.9208,-3.371189E-05
492.0208,-3.368175E-05
492.1208,-3.369682E-05
492.2208,-3.368364E-05
492.3208,-3.36535E-05
492.4208,-3.363749E-05
492.5208,-3.364032E-05
492.6208,-3.361112E-05
492.7209,-3.359793E-05
492.8209,-3.359793E-05
492.9209,-3.357345E-05
493.0209,-3.355368E-05
493.1209,-3.355368E-05
493.2209,-3.354991E-05
493.3209,-3.351977E-05
493.4209,-3.349906E-05
493.5209,-3.350188E-05
493.6209,-3.347551E-05
493.7209,-3.346704E-05
493.8209,-3.343878E-05
493.9209,-3.343031E-05
494.0209,-3.343878E-05
494.1209,-3.34322E-05
494.2209,-3.341242E-05
494.321,-3.338416E-05
494.421,-3.338228E-05
494.521,-3.336345E-05
494.621,-3.332766E-05
494.721,-3.333143E-05
494.821,-3.33399E-05
494.921,-3.328623E-05
495.021,-3.329753E-05
495.121,-3.327869E-05
495.221,-3.324667E-05
495.321,-3.320618E-05
495.421,-3.322125E-05
495.521,-3.318263E-05
495.621,-3.316757E-05
495.721,-3.318923E-05
495.821,-3.316757E-05
495.9211,-3.310636E-05
496.0211,-3.312896E-05
496.1211,-3.311389E-05
496.2211,-3.306586E-05
496.3211,-3.304232E-05
496.4211,-3.306586E-05
496.5211,-3.303478E-05
496.6211,-3.301218E-05
496.7211,-3.302443E-05
496.8211,-3.299712E-05
496.9211,-3.297639E-05
497.0211,-3.296039E-05
497.1211,-3.295191E-05
497.2211,-3.292837E-05
497.3211,-3.292648E-05
497.4211,-3.291048E-05
497.5211,-3.288882E-05
497.6212,-3.288222E-05
497.7212,-3.28681E-05
497.8212,-3.284832E-05
497.9212,-3.281913E-05
498.0212,-3.282572E-05
498.1212,-3.282383E-05
498.2212,-3.279276E-05
498.3212,-3.281065E-05
498.4212,-3.281254E-05
498.5212,-3.274285E-05
498.6212,-3.274379E-05
498.7212,-3.273625E-05
498.8212,-3.269294E-05
498.9212,-3.265056E-05
499.0212,-3.267033E-05
499.1212,-3.266563E-05
499.2213,-3.261854E-05
499.3213,-3.266845E-05
499.4213,-3.26402E-05
499.5213,-3.257899E-05
499.6213,-3.261854E-05
499.7213,-3.258652E-05
499.8213,-3.253001E-05
499.9213,-3.253473E-05
500.0213,-3.252625E-05
500.1213,-3.248858E-05
500.2213,-3.246221E-05
500.3213,-3.24754E-05
500.4213,-3.246598E-05
500.5213,-3.24349E-05
500.6213,-3.244714E-05
500.7213,-3.240853E-05
500.8214,-3.237746E-05
500.9214,-3.2401E-05
501.0214,-3.238028E-05
501.1214,-3.233225E-05
501.2214,-3.233508E-05
501.3214,-3.233037E-05
501.4214,-3.228517E-05
501.5214,-3.227858E-05
501.6214,-3.227386E-05
501.7214,-3.225126E-05
501.8214,-3.222395E-05
501.9214,-3.221454E-05
502.0214,-3.220229E-05
502.1214,-3.218911E-05
502.2214,-3.218346E-05
502.3214,-3.216556E-05
502.4214,-3.213731E-05
502.5215,-3.212978E-05
502.6215,-3.21505E-05
502.7215,-3.211001E-05
502.8215,-3.208175E-05
502.9215,-3.210247E-05
503.0215,-3.206668E-05
503.1215,-3.203372E-05
503.2215,-3.206103E-05
503.3215,-3.203749E-05
503.4215,-3.199605E-05
503.5215,-3.200641E-05
503.6215,-3.201489E-05
503.7215,-3.195933E-05
503.8215,-3.195273E-05
503.9215,-3.196498E-05
504.0215,-3.195462E-05
504.1216,-3.190565E-05
504.2216,-3.196403E-05
504.3216,-3.19226E-05
504.4216,-3.188682E-05
504.5216,-3.189341E-05
504.6216,-3.189152E-05
504.7216,-3.185009E-05
504.8216,-3.181995E-05
504.9216,-3.184161E-05
505.0216,-3.182654E-05
505.1216,-3.177192E-05
505.2216,-3.181525E-05
505.3216,-3.179358E-05
505.4216,-3.174179E-05
505.5216,-3.173614E-05
505.6216,-3.173331E-05
505.7216,-3.16947E-05
505.8217,-3.166645E-05
505.9217,-3.168057E-05
506.0217,-3.166739E-05
506.1217,-3.162219E-05
506.2217,-3.166739E-05
506.3217,-3.162407E-05
506.4217,-3.158546E-05
506.5217,-3.158922E-05
506.6217,-3.158734E-05
506.7217,-3.154779E-05
506.8217,-3.152707E-05
506.9217,-3.154308E-05
507.0217,-3.150541E-05
507.1217,-3.150447E-05
507.2217,-3.149317E-05
507.3217,-3.146868E-05
507.4218,-3.145079E-05
507.5218,-3.14329E-05
507.6218,-3.143855E-05
507.7218,-3.14216E-05
507.8218,-3.142819E-05
507.9218,-3.141407E-05
508.0218,-3.136886E-05
508.1218,-3.139711E-05
508.2218,-3.136321E-05
508.3218,-3.13359E-05
508.4218,-3.133496E-05
508.5218,-3.130953E-05
508.6218,-3.129541E-05
508.7218,-3.12794E-05
508.8218,-3.127186E-05
508.9218,-3.127375E-05
509.0219,-3.125868E-05
509.1219,-3.124361E-05
509.2219,-3.123325E-05
509.3219,-3.122666E-05
509.4219,-3.120312E-05
509.5219,-3.118617E-05
509.6219,-3.118617E-05
509.7219,-3.116639E-05
509.8219,-3.11485E-05
509.9219,-3.113531E-05
510.0219,-3.111271E-05
510.1219,-3.111553E-05
510.2219,-3.109953E-05
510.3219,-3.10741E-05
510.4219,-3.107033E-05
510.5219,-3.106563E-05
510.6219,-3.100629E-05
510.722,-3.100818E-05
510.822,-3.102701E-05
510.922,-3.099217E-05
511.022,-3.096486E-05
511.122,-3.099122E-05
511.222,-3.097898E-05
511.322,-3.095261E-05
511.422,-3.094132E-05
511.522,-3.093755E-05
511.622,-3.090553E-05
511.722,-3.090741E-05
511.822,-3.089046E-05
511.922,-3.086975E-05
512.022,-3.086409E-05
512.122,-3.084149E-05
512.222,-3.081041E-05
512.322,-3.082077E-05
512.4219,-3.081795E-05
512.5219,-3.075862E-05
512.6219,-3.075768E-05
512.7219,-3.078405E-05
512.8218,-3.07784E-05
512.9218,-3.075203E-05
513.0218,-3.075203E-05
513.1218,-3.073225E-05
513.2217,-3.072378E-05
513.3217,-3.068705E-05
513.4217,-3.068517E-05
513.5217,-3.067857E-05
513.6216,-3.064749E-05
513.7216,-3.065126E-05
513.8216,-3.062207E-05
513.9216,-3.060888E-05
514.0215,-3.059947E-05
514.1215,-3.058628E-05
514.2215,-3.056086E-05
514.3215,-3.053731E-05
514.4214,-3.05505E-05
514.5214,-3.050812E-05
514.6214,-3.049399E-05
514.7214,-3.050341E-05
514.8214,-3.046574E-05
514.9213,-3.04309E-05
515.0213,-3.043749E-05
515.1213,-3.04243E-05
515.2213,-3.03904E-05
515.3212,-3.038946E-05
515.4212,-3.041959E-05
515.5212,-3.036027E-05
515.6212,-3.033578E-05
515.7211,-3.036498E-05
515.8211,-3.035556E-05
515.9211,-3.030659E-05
516.0211,-3.035273E-05
516.121,-3.03339E-05
516.221,-3.029246E-05
516.321,-3.029717E-05
516.421,-3.028022E-05
516.5209,-3.02482E-05
516.6209,-3.023784E-05
516.7209,-3.023219E-05
516.8209,-3.023973E-05
516.9208,-3.020394E-05
517.0208,-3.022371E-05
517.1208,-3.01917E-05
517.2208,-3.015874E-05
517.3207,-3.019358E-05
517.4207,-3.017663E-05
517.5207,-3.012013E-05
517.6207,-3.015497E-05
517.7206,-3.014744E-05
517.8206,-3.010882E-05
517.9206,-3.008057E-05
518.0206,-3.010412E-05
518.1205,-3.008717E-05
518.2205,-3.005703E-05
518.3205,-3.008057E-05
518.4205,-3.00721E-05
518.5204,-3.002689E-05
518.6204,-3.004385E-05
518.7204,-3.003066E-05
518.8204,-3.000994E-05
518.9203,-2.998357E-05
519.0203,-2.999958E-05
519.1203,-2.999299E-05
519.2203,-2.99459E-05
519.3203,-2.997698E-05
519.4202,-2.996097E-05
519.5202,-2.990823E-05
519.6202,-2.989694E-05
519.7202,-2.99233E-05
519.8201,-2.98781E-05
519.9201,-2.985738E-05
520.0201,-2.987151E-05
520.1201,-2.987622E-05
520.22,-2.983101E-05
520.32,-2.985173E-05
520.42,-2.984137E-05
520.52,-2.97924E-05
520.6199,-2.980465E-05
520.7199,-2.980653E-05
520.8199,-2.976133E-05
520.9199,-2.976509E-05
521.0198,-2.977357E-05
521.1198,-2.972366E-05
521.2198,-2.970765E-05
521.3198,-2.973119E-05
521.4197,-2.970388E-05
521.5197,-2.965868E-05
521.6197,-2.968787E-05
521.7197,-2.968316E-05
521.8196,-2.96502E-05
521.9196,-2.964738E-05
522.0196,-2.965585E-05
522.1196,-2.962666E-05
522.2195,-2.9605E-05
522.3195,-2.960311E-05
522.4195,-2.960123E-05
522.5195,-2.956168E-05
522.6194,-2.959935E-05
522.7194,-2.957392E-05
522.8194,-2.953531E-05
522.9194,-2.956262E-05
523.0193,-2.953719E-05
523.1193,-2.950517E-05
523.2193,-2.949105E-05
523.3193,-2.950141E-05
523.4193,-2.94741E-05
523.5192,-2.945432E-05
523.6192,-2.946468E-05
523.7192,-2.943454E-05
523.8192,-2.941759E-05
523.9191,-2.942513E-05
524.0191,-2.943266E-05
524.1191,-2.939499E-05
524.2191,-2.940912E-05
524.319,-2.939782E-05
524.419,-2.936674E-05
524.519,-2.936768E-05
524.619,-2.935827E-05
524.7189,-2.933566E-05
524.8189,-2.93366E-05
524.9189,-2.934225E-05
525.0189,-2.930459E-05
525.1188,-2.930741E-05
525.2188,-2.930741E-05
525.3188,-2.930459E-05
525.4188,-2.926221E-05
525.5187,-2.930647E-05
525.6187,-2.927822E-05
525.7187,-2.924997E-05
525.8187,-2.925091E-05
525.9186,-2.922266E-05
526.0186,-2.920194E-05
526.1186,-2.918122E-05
526.2186,-2.919158E-05
526.3185,-2.919723E-05
526.4185,-2.914826E-05
526.5185,-2.915297E-05
526.6185,-2.914073E-05
526.7184,-2.90927E-05
526.8184,-2.909835E-05
526.9184,-2.908704E-05
527.0184,-2.908422E-05
527.1183,-2.903619E-05
527.2183,-2.90748E-05
527.3183,-2.904561E-05
527.4183,-2.902489E-05
527.5182,-2.904184E-05
527.6182,-2.902489E-05
527.7182,-2.898628E-05
527.8182,-2.898816E-05
527.9182,-2.898251E-05
528.0181,-2.89552E-05
528.1181,-2.892789E-05
528.2181,-2.893449E-05
528.3181,-2.893637E-05
528.418,-2.890435E-05
528.518,-2.890718E-05
528.618,-2.888175E-05
528.718,-2.888175E-05
528.8179,-2.889305E-05
528.9179,-2.885538E-05
529.0179,-2.884031E-05
529.1179,-2.887421E-05
529.2178,-2.887327E-05
529.3178,-2.882336E-05
529.4178,-2.882619E-05
529.5178,-2.881677E-05
529.6177,-2.879793E-05
529.7177,-2.879417E-05
529.8177,-2.878381E-05
529.9177,-2.87904E-05
530.0176,-2.878381E-05
530.1176,-2.877816E-05
530.2176,-2.875838E-05
530.3176,-2.87273E-05
530.4175,-2.874614E-05
530.5175,-2.870282E-05
530.6175,-2.868398E-05
530.7175,-2.867928E-05
530.8174,-2.867174E-05
530.9174,-2.866515E-05
531.0174,-2.866138E-05
531.1174,-2.864349E-05
531.2173,-2.862277E-05
531.3173,-2.860676E-05
531.4173,-2.859546E-05
531.5173,-2.858133E-05
531.6172,-2.855873E-05
531.7172,-2.857098E-05
531.8172,-2.855873E-05
531.9172,-2.855308E-05
532.0172,-2.85286E-05
532.1171,-2.851636E-05
532.2171,-2.851541E-05
532.3171,-2.850788E-05
532.4171,-2.84947E-05
532.517,-2.850129E-05
532.617,-2.845891E-05
532.717,-2.847586E-05
532.817,-2.84721E-05
532.9169,-2.843725E-05
533.0169,-2.843254E-05
533.1169,-2.844384E-05
533.2169,-2.83864E-05
533.3168,-2.840523E-05
533.4168,-2.841842E-05
533.5168,-2.838169E-05
533.6168,-2.837039E-05
533.7167,-2.838922E-05
533.8167,-2.836003E-05
533.9167,-2.833084E-05
534.0167,-2.836003E-05
534.1166,-2.83525E-05
534.2166,-2.829222E-05
534.3166,-2.829599E-05
534.4166,-2.830258E-05
534.5165,-2.82668E-05
534.6165,-2.82442E-05
534.7165,-2.825738E-05
534.8165,-2.826115E-05
534.9164,-2.824137E-05
535.0164,-2.82376E-05
535.1164,-2.822442E-05
535.2164,-2.820935E-05
535.3163,-2.821406E-05
535.4163,-2.819899E-05
535.5163,-2.817262E-05
535.6163,-2.814155E-05
535.7162,-2.816415E-05
535.8162,-2.816415E-05
535.9162,-2.813119E-05
536.0162,-2.815285E-05
536.1161,-2.813401E-05
536.2161,-2.80907E-05
536.3161,-2.811989E-05
536.4161,-2.81067E-05
536.5161,-2.805679E-05
536.616,-2.806715E-05
536.716,-2.807186E-05
536.816,-2.802572E-05
536.916,-2.801347E-05
537.0159,-2.802006E-05
537.1159,-2.800594E-05
537.2159,-2.797769E-05
537.3159,-2.796733E-05
537.4158,-2.794473E-05
537.5158,-2.79419E-05
537.6158,-2.795414E-05
537.7158,-2.793908E-05
537.8157,-2.791271E-05
537.9157,-2.789199E-05
538.0157,-2.789952E-05
538.1157,-2.787786E-05
538.2156,-2.785526E-05
538.3156,-2.786185E-05
538.4156,-2.786939E-05
538.5156,-2.782513E-05
538.6155,-2.782889E-05
538.7155,-2.782136E-05
538.8155,-2.778934E-05
538.9155,-2.776674E-05
539.0154,-2.776862E-05
539.1154,-2.77658E-05
539.2154,-2.772813E-05
539.3154,-2.774414E-05
539.4153,-2.77253E-05
539.5153,-2.770082E-05
539.6153,-2.769328E-05
539.7153,-2.771589E-05
539.8152,-2.765844E-05
539.9152,-2.765938E-05
540.0152,-2.76349E-05
540.1152,-2.761606E-05
540.2151,-2.763678E-05
540.3151,-2.763584E-05
540.4151,-2.759629E-05
540.5151,-2.758969E-05
540.6151,-2.758781E-05
540.715,-2.758028E-05
540.815,-2.755014E-05
540.915,-2.756427E-05
541.015,-2.753225E-05
541.1149,-2.751341E-05
541.2149,-2.753131E-05
541.3149,-2.748893E-05
541.4149,-2.74635E-05
541.5148,-2.745879E-05
541.6148,-2.746162E-05
541.7148,-2.743807E-05
541.8148,-2.742583E-05
541.9147,-2.742489E-05
542.0147,-2.7407E-05
542.1147,-2.735614E-05
542.2147,-2.741642E-05
542.3146,-2.73665E-05
542.4146,-2.731094E-05
542.5146,-2.735332E-05
542.6146,-2.734673E-05
542.7145,-2.729776E-05
542.8145,-2.728175E-05
542.9145,-2.728928E-05
543.0145,-2.729211E-05
543.1144,-2.724784E-05
543.2144,-2.727515E-05
543.3144,-2.72808E-05
543.4144,-2.7213E-05
543.5143,-2.725255E-05
543.6143,-2.723655E-05
543.7143,-2.721582E-05
543.8143,-2.719605E-05
543.9142,-2.717533E-05
544.0142,-2.71791E-05
544.1142,-2.713389E-05
544.2142,-2.713578E-05
544.3141,-2.712919E-05
544.4141,-2.710753E-05
544.5141,-2.712542E-05
544.6141,-2.708681E-05
544.7141,-2.70708E-05
544.814,-2.705856E-05
544.914,-2.703878E-05
545.014,-2.703313E-05
545.114,-2.702936E-05
545.2139,-2.701241E-05
545.3139,-2.699075E-05
545.4139,-2.699923E-05
545.5139,-2.700394E-05
545.6138,-2.697945E-05
545.7138,-2.695497E-05
545.8138,-2.698416E-05
545.9138,-2.693519E-05
546.0137,-2.69173E-05
546.1137,-2.691259E-05
546.2137,-2.690976E-05
546.3137,-2.68655E-05
546.4136,-2.687115E-05
546.5136,-2.687115E-05
546.6136,-2.683819E-05
546.7136,-2.684007E-05
546.8135,-2.685514E-05
546.9135,-2.680146E-05
547.0135,-2.678828E-05
547.1135,-2.680994E-05
547.2134,-2.680241E-05
547.3134,-2.675061E-05
547.4134,-2.673083E-05
547.5134,-2.676474E-05
547.6133,-2.672518E-05
547.7133,-2.66894E-05
547.8133,-2.669316E-05
547.9133,-2.669316E-05
548.0132,-2.667904E-05
548.1132,-2.670635E-05
548.2132,-2.669599E-05
548.3132,-2.665455E-05
548.4131,-2.666774E-05
548.5131,-2.664514E-05
548.6131,-2.662159E-05
548.7131,-2.661783E-05
548.813,-2.660087E-05
548.913,-2.659052E-05
549.013,-2.657168E-05
549.113,-2.657639E-05
549.213,-2.657827E-05
549.3129,-2.653966E-05
549.4129,-2.655944E-05
549.5129,-2.653401E-05
549.6129,-2.652459E-05
549.7128,-2.650576E-05
549.8128,-2.649917E-05
549.9128,-2.646527E-05
550.0128,-2.645773E-05
550.1127,-2.647186E-05
550.2127,-2.645585E-05
550.3127,-2.641065E-05
550.4127,-2.643701E-05
550.5126,-2.640688E-05
550.6126,-2.638804E-05
550.7126,-2.637957E-05
550.8126,-2.638428E-05
550.9125,-2.636544E-05
551.0125,-2.634378E-05
551.1125,-2.635602E-05
551.2125,-2.63419E-05
551.3124,-2.629199E-05
551.4124,-2.632118E-05
551.5124,-2.630894E-05
551.6124,-2.625997E-05
551.7123,-2.627504E-05
551.8123,-2.625714E-05
551.9123,-2.622418E-05
552.0123,-2.620252E-05
552.1122,-2.622607E-05
552.2122,-2.621853E-05
552.3122,-2.617615E-05
552.4122,-2.622324E-05
552.5121,-2.620817E-05
552.6121,-2.614131E-05
552.7121,-2.614696E-05
552.8121,-2.615732E-05
552.912,-2.613001E-05
553.012,-2.610458E-05
553.112,-2.609893E-05
553.212,-2.610835E-05
553.312,-2.608386E-05
553.4119,-2.606032E-05
553.5119,-2.605373E-05
553.6119,-2.60575E-05
553.7119,-2.606691E-05
553.8118,-2.602454E-05
553.9118,-2.600947E-05
554.0118,-2.604714E-05
554.1118,-2.600382E-05
554.2117,-2.598498E-05
554.3117,-2.601229E-05
554.4117,-2.599252E-05
554.5117,-2.596427E-05
554.6116,-2.596991E-05
554.7116,-2.596238E-05
554.8116,-2.592E-05
554.9116,-2.592942E-05
555.0115,-2.592E-05
555.1115,-2.588516E-05
555.2115,-2.588987E-05
555.3115,-2.590211E-05
555.4114,-2.589929E-05
555.5114,-2.588233E-05
555.6114,-2.587103E-05
555.7114,-2.585314E-05
555.8113,-2.58183E-05
555.9113,-2.583242E-05
556.0113,-2.582865E-05
556.1113,-2.581924E-05
556.2112,-2.577309E-05
556.3112,-2.5807E-05
556.4112,-2.577027E-05
556.5112,-2.574861E-05
556.6111,-2.575426E-05
556.7111,-2.574767E-05
556.8111,-2.572224E-05
556.9111,-2.571471E-05
557.011,-2.571188E-05
557.111,-2.570058E-05
557.211,-2.569116E-05
557.311,-2.572883E-05
557.4109,-2.566291E-05
557.5109,-2.565632E-05
557.6109,-2.567233E-05
557.7109,-2.566479E-05
557.8109,-2.561017E-05
557.9108,-2.561206E-05
558.0108,-2.560641E-05
558.1108,-2.55904E-05
558.2108,-2.558004E-05
558.3107,-2.556874E-05
558.4107,-2.555179E-05
558.5107,-2.553672E-05
558.6107,-2.556215E-05
558.7106,-2.553013E-05
558.8106,-2.553766E-05
558.9106,-2.5516E-05
559.0106,-2.550564E-05
559.1105,-2.549434E-05
559.2105,-2.548587E-05
559.3105,-2.548681E-05
559.4105,-2.549528E-05
559.5104,-2.545008E-05
559.6104,-2.546986E-05
559.7104,-2.543313E-05
559.8104,-2.543313E-05
559.9103,-2.540676E-05
560.0103,-2.53738E-05
560.1103,-2.538887E-05
560.2103,-2.539357E-05
560.3102,-2.537568E-05
560.4102,-2.535873E-05
560.5102,-2.533707E-05
560.6102,-2.533331E-05
560.7101,-2.533048E-05
560.8101,-2.529469E-05
560.9101,-2.531165E-05
561.0101,-2.532483E-05
561.11,-2.528245E-05
561.21,-2.529469E-05
561.31,-2.529281E-05
561.41,-2.524478E-05
561.5099,-2.524761E-05
561.6099,-2.526833E-05
561.7099,-2.523913E-05
561.8099,-2.522218E-05
561.9099,-2.524478E-05
562.0098,-2.521465E-05
562.1098,-2.518263E-05
562.2098,-2.521653E-05
562.3098,-2.519769E-05
562.4097,-2.515532E-05
562.5097,-2.514684E-05
562.6097,-2.517227E-05
562.7097,-2.512047E-05
562.8096,-2.511577E-05
562.9096,-2.514778E-05
563.0096,-2.509881E-05
563.1096,-2.509222E-05
563.2095,-2.509599E-05
563.3095,-2.50941E-05
563.4095,-2.507339E-05
563.5095,-2.504796E-05
563.6094,-2.505644E-05
563.7094,-2.505079E-05
563.8094,-2.501877E-05
563.9094,-2.506962E-05
564.0093,-2.505361E-05
564.1093,-2.499616E-05
564.2093,-2.504984E-05
564.3093,-2.501406E-05
564.4092,-2.498204E-05
564.5092,-2.498957E-05
564.6092,-2.497921E-05
564.7092,-2.49519E-05
564.8091,-2.494908E-05
564.9091,-2.493683E-05
565.0091,-2.493589E-05
565.1091,-2.490576E-05
565.209,-2.4918E-05
565.309,-2.488222E-05
565.409,-2.487468E-05
565.509,-2.487374E-05
565.6089,-2.486338E-05
565.7089,-2.483136E-05
565.8089,-2.483419E-05
565.9089,-2.483136E-05
566.0089,-2.483042E-05
566.1088,-2.480217E-05
566.2088,-2.483795E-05
566.3088,-2.47984E-05
566.4088,-2.479934E-05
566.5087,-2.479275E-05
566.6087,-2.476073E-05
566.7087,-2.475603E-05
566.8087,-2.475697E-05
566.9086,-2.473342E-05
567.0086,-2.471835E-05
567.1086,-2.472024E-05
567.2086,-2.46901E-05
567.3085,-2.469293E-05
567.4085,-2.467974E-05
567.5085,-2.467221E-05
567.6085,-2.466185E-05
567.7084,-2.465149E-05
567.8084,-2.467974E-05
567.9084,-2.465902E-05
568.0084,-2.463266E-05
568.1083,-2.463548E-05
568.2083,-2.462041E-05
568.3083,-2.459593E-05
568.4083,-2.45884E-05
568.5082,-2.460346E-05
568.6082,-2.456674E-05
568.7082,-2.457521E-05
568.8082,-2.456203E-05
568.9081,-2.455355E-05
569.0081,-2.454319E-05
569.1081,-2.452812E-05
569.2081,-2.453566E-05
569.308,-2.452812E-05
569.408,-2.449611E-05
569.508,-2.455355E-05
569.608,-2.450081E-05
569.7079,-2.446315E-05
569.8079,-2.450175E-05
569.9079,-2.448669E-05
570.0079,-2.444431E-05
570.1078,-2.4417E-05
570.2078,-2.44396E-05
570.3078,-2.442453E-05
570.4078,-2.441041E-05
570.5078,-2.440099E-05
570.6077,-2.439346E-05
570.7077,-2.43831E-05
570.8077,-2.438592E-05
570.9077,-2.439911E-05
571.0076,-2.436991E-05
571.1076,-2.433036E-05
571.2076,-2.432659E-05
571.3076,-2.433036E-05
571.4075,-2.429552E-05
571.5075,-2.431812E-05
571.6075,-2.431623E-05
571.7075,-2.427857E-05
571.8074,-2.428139E-05
571.9074,-2.42974E-05
572.0074,-2.427291E-05
572.1074,-2.424372E-05
572.2073,-2.426067E-05
572.3073,-2.426067E-05
572.4073,-2.420982E-05
572.5073,-2.421359E-05
572.6072,-2.423148E-05
572.7072,-2.418062E-05
572.8072,-2.418816E-05
572.9072,-2.420699E-05
573.0071,-2.416556E-05
573.1071,-2.415143E-05
573.2071,-2.418439E-05
573.3071,-2.414955E-05
573.407,-2.411753E-05
573.507,-2.413825E-05
573.607,-2.413636E-05
573.707,-2.409493E-05
573.8069,-2.412036E-05
573.9069,-2.411659E-05
574.0069,-2.408457E-05
574.1069,-2.408363E-05
574.2068,-2.407044E-05
574.3068,-2.406668E-05
574.4068,-2.404972E-05
574.5068,-2.405161E-05
574.6068,-2.403372E-05
574.7067,-2.403466E-05
574.8067,-2.404972E-05
574.9067,-2.401488E-05
575.0067,-2.400075E-05
575.1066,-2.399981E-05
575.2066,-2.40017E-05
575.3066,-2.397627E-05
575.4066,-2.397344E-05
575.5065,-2.39725E-05
575.6065,-2.395273E-05
575.7065,-2.392071E-05
575.8065,-2.393954E-05
575.9064,-2.394708E-05
576.0064,-2.391035E-05
576.1064,-2.391223E-05
576.2064,-2.391035E-05
576.3063,-2.390752E-05
576.4063,-2.38708E-05
576.5063,-2.388116E-05
576.6063,-2.38642E-05
576.7062,-2.38529E-05
576.8062,-2.385855E-05
576.9062,-2.385102E-05
577.0062,-2.382183E-05
577.1061,-2.382465E-05
577.2061,-2.382371E-05
577.3061,-2.38303E-05
577.4061,-2.380393E-05
577.506,-2.379828E-05
577.606,-2.378604E-05
577.706,-2.379734E-05
577.806,-2.377003E-05
577.9059,-2.374837E-05
578.0059,-2.373895E-05
578.1059,-2.375025E-05
578.2059,-2.374272E-05
578.3058,-2.371824E-05
578.4058,-2.375967E-05
578.5058,-2.372294E-05
578.6058,-2.370599E-05
578.7057,-2.370505E-05
578.8057,-2.36768E-05
578.9057,-2.367115E-05
579.0057,-2.367021E-05
579.1057,-2.366173E-05
579.2056,-2.36542E-05
579.3056,-2.36363E-05
579.4056,-2.36429E-05
579.5056,-2.36363E-05
579.6055,-2.364666E-05
579.7055,-2.364572E-05
579.8055,-2.361276E-05
579.9055,-2.360523E-05
580.0054,-2.362124E-05
580.1054,-2.359675E-05
580.2054,-2.356097E-05
580.3054,-2.356756E-05
580.4053,-2.355249E-05
580.5053,-2.353177E-05
580.6053,-2.35346E-05
580.7053,-2.352801E-05
580.8052,-2.35233E-05
580.9052,-2.35233E-05
581.0052,-2.350446E-05
581.1052,-2.348657E-05
581.2051,-2.34828E-05
581.3051,-2.34828E-05
581.4051,-2.346774E-05
581.5051,-2.34602E-05
581.605,-2.343477E-05
581.705,-2.344419E-05
581.805,-2.344137E-05
581.905,-2.3415E-05
582.0049,-2.34037E-05
582.1049,-2.342065E-05
582.2049,-2.338675E-05
582.3049,-2.33971E-05
582.4048,-2.340558E-05
582.5048,-2.336791E-05
582.6048,-2.33745E-05
582.7048,-2.33858E-05
582.8047,-2.334437E-05
582.9047,-2.334814E-05
583.0047,-2.333589E-05
583.1047,-2.332742E-05
583.2047,-2.330387E-05
583.3046,-2.330199E-05
583.4046,-2.330293E-05
583.5046,-2.325585E-05
583.6046,-2.328316E-05
583.7045,-2.328033E-05
583.8045,-2.32323E-05
583.9045,-2.323795E-05
584.0045,-2.326055E-05
584.1044,-2.321818E-05
584.2044,-2.321629E-05
584.3044,-2.322853E-05
584.4044,-2.322571E-05
584.5043,-2.318333E-05
584.6043,-2.319652E-05
584.7043,-2.320311E-05
584.8043,-2.315979E-05
584.9042,-2.31532E-05
585.0042,-2.319369E-05
585.1042,-2.314472E-05
585.2042,-2.313248E-05
585.3041,-2.315226E-05
585.4041,-2.312683E-05
585.5041,-2.310328E-05
585.6041,-2.310328E-05
585.704,-2.310328E-05
585.804,-2.309104E-05
585.904,-2.307974E-05
586.004,-2.310328E-05
586.1039,-2.308068E-05
586.2039,-2.305431E-05
586.3039,-2.305902E-05
586.4039,-2.306091E-05
586.5038,-2.30336E-05
586.6038,-2.304584E-05
586.7038,-2.304678E-05
586.8038,-2.301853E-05
586.9037,-2.302324E-05
587.0037,-2.301194E-05
587.1037,-2.298274E-05
587.2037,-2.299687E-05
587.3036,-2.299499E-05
587.4036,-2.296768E-05
587.5036,-2.295261E-05
587.6036,-2.299687E-05
587.7036,-2.296862E-05
587.8035,-2.294319E-05
587.9035,-2.293848E-05
588.0035,-2.294319E-05
588.1035,-2.292436E-05
588.2034,-2.291494E-05
588.3034,-2.289611E-05
588.4034,-2.291023E-05
588.5034,-2.289516E-05
588.6033,-2.289705E-05
588.7033,-2.288104E-05
588.8033,-2.287162E-05
588.9033,-2.287915E-05
589.0032,-2.285655E-05
589.1032,-2.28283E-05
589.2032,-2.284054E-05
589.3032,-2.286032E-05
589.4031,-2.282171E-05
589.5031,-2.28283E-05
589.6031,-2.283772E-05
589.7031,-2.284148E-05
589.803,-2.280287E-05
589.903,-2.279251E-05
590.003,-2.281135E-05
590.103,-2.277933E-05
590.2029,-2.27831E-05
590.3029,-2.279534E-05
590.4029,-2.274354E-05
590.5029,-2.278027E-05
590.6028,-2.275955E-05
590.7028,-2.273413E-05
590.8028,-2.275014E-05
590.9028,-2.274449E-05
591.0027,-2.273695E-05
591.1027,-2.272282E-05
591.2027,-2.272188E-05
591.3027,-2.271717E-05
591.4026,-2.268045E-05
591.5026,-2.269269E-05
591.6026,-2.270305E-05
591.7026,-2.265973E-05
591.8026,-2.266632E-05
591.9025,-2.266538E-05
592.0025,-2.263148E-05
592.1025,-2.26343E-05
592.2025,-2.263619E-05
592.3024,-2.262112E-05
592.4024,-2.259381E-05
592.5024,-2.260511E-05
592.6024,-2.262206E-05
592.7023,-2.256367E-05
592.8023,-2.259757E-05
592.9023,-2.259192E-05
593.0023,-2.256273E-05
593.1022,-2.255802E-05
593.2022,-2.256179E-05
593.3022,-2.252789E-05
593.4022,-2.251188E-05
593.5021,-2.2526E-05
593.6021,-2.250811E-05
593.7021,-2.251094E-05
593.8021,-2.250434E-05
593.902,-2.247421E-05
594.002,-2.247327E-05
594.102,-2.248645E-05
594.202,-2.246762E-05
594.3019,-2.243936E-05
594.4019,-2.249304E-05
594.5019,-2.24808E-05
594.6019,-2.24469E-05
594.7018,-2.245161E-05
594.8018,-2.246667E-05
594.9018,-2.243466E-05
595.0018,-2.241394E-05
595.1017,-2.24177E-05
595.2017,-2.242241E-05
595.3017,-2.237909E-05
595.4017,-2.240264E-05
595.5016,-2.24064E-05
595.6016,-2.236026E-05
595.7016,-2.238475E-05
595.8016,-2.23612E-05
595.9016,-2.236591E-05
596.0015,-2.236591E-05
596.1015,-2.235649E-05
596.2015,-2.232353E-05
596.3015,-2.230941E-05
596.4014,-2.230752E-05
596.5014,-2.231977E-05
596.6014,-2.227079E-05
596.7014,-2.228963E-05
596.8013,-2.228021E-05
596.9013,-2.225384E-05
597.0013,-2.228209E-05
597.1013,-2.225196E-05
597.2012,-2.224348E-05
597.3012,-2.223595E-05
597.4012,-2.222371E-05
597.5012,-2.222465E-05
597.6011,-2.220487E-05
597.7011,-2.222182E-05
597.8011,-2.22077E-05
597.9011,-2.219828E-05
598.001,-2.218698E-05
598.101,-2.219169E-05
598.201,-2.216721E-05
598.301,-2.217191E-05
598.4009,-2.214272E-05
598.5009,-2.215308E-05
598.6009,-2.213801E-05
598.7009,-2.213236E-05
598.8008,-2.213048E-05
598.9008,-2.213424E-05
599.0008,-2.212106E-05
599.1008,-2.210882E-05
599.2007,-2.210223E-05
599.3007,-2.208998E-05
599.4007,-2.20655E-05
599.5007,-2.207115E-05
599.6006,-2.20768E-05
599.7006,-2.206079E-05
599.8006,-2.20542E-05
599.9006,-2.204478E-05
600.0005,-2.204572E-05
