EXPID. 0377
[电化学]: i-t : @ 0(V) X 600(sec)
起始电位 (V),0
静置时间 (秒),0
运行时间 (秒),600
记录间隔,0.1
电解液 信息:
HNO3,0.4
0.1,-0.01005814
0.2,-0.01005814
0.3,-0.01005814
0.4,-0.01005814
0.5,-0.01005814
0.6,-0.01005814
0.7,-0.01005814
0.8000001,-0.006980693
0.9000001,0.000671047
1,-0.0007675061
1.1,-0.003135945
1.2,-0.004123933
1.3,-0.004302029
1.4,-0.004334808
1.5,-0.004340285
1.6,-0.004307389
1.7,-0.004241645
1.8,-0.004145338
1.9,-0.004039564
2,-0.003946763
2.1,-0.00384708
2.2,-0.003754173
2.3,-0.003670096
2.4,-0.003587994
2.5,-0.003507734
2.6,-0.003433887
2.7,-0.00336415
2.799999,-0.00329137
2.899999,-0.003210339
2.999999,-0.003122457
3.099999,-0.003029136
3.199999,-0.002942746
3.299999,-0.002863212
3.399999,-0.002792943
3.499999,-0.00272572
3.599999,-0.002656756
3.699999,-0.002596846
3.799999,-0.002530192
3.899998,-0.002457656
3.999998,-0.002365135
4.099998,-0.002271765
4.199998,-0.002183469
4.299998,-0.002105973
4.399998,-0.002039904
4.499998,-0.001980116
4.599998,-0.001927713
4.699998,-0.001881408
4.799998,-0.001838269
4.899998,-0.001801037
4.999998,-0.001764305
5.099998,-0.001731415
5.199997,-0.001702823
5.299997,-0.001674596
5.399997,-0.001648168
5.499997,-0.00162431
5.599997,-0.001601172
5.699997,-0.001578899
5.799997,-0.001558719
5.899997,-0.00153923
5.999997,-0.001520798
6.099997,-0.001503158
6.199996,-0.00148644
6.299996,-0.001470267
6.399996,-0.001455124
6.499996,-0.001440064
6.599996,-0.001426266
6.699996,-0.001411975
6.799996,-0.001399541
6.899996,-0.001386496
6.999996,-0.001374458
7.099996,-0.001363192
7.199996,-0.001351659
7.299995,-0.001340952
7.399995,-0.001330501
7.499995,-0.001320239
7.599995,-0.001310231
7.699995,-0.001299975
7.799995,-0.001290665
7.899995,-0.001280928
7.999995,-0.001271836
8.099995,-0.001263186
8.199995,-0.001254516
8.299995,-0.001245535
8.399996,-0.001237464
8.499996,-0.001229228
8.599997,-0.001220902
8.699997,-0.001213227
8.799997,-0.001205503
8.899998,-0.00119784
8.999998,-0.001190573
9.099998,-0.001183268
9.199999,-0.001176199
9.299999,-0.001169239
9.4,-0.001162461
9.5,-0.001156042
9.6,-0.00114969
9.700001,-0.001143183
9.800001,-0.001136858
9.900002,-0.001130677
10,-0.001124847
10.1,-0.001118611
10.2,-0.001112808
10.3,-0.001107191
10.4,-0.001101396
10.5,-0.001095802
10.6,-0.001090487
10.7,-0.001085004
10.8,-0.001079661
10.90001,-0.001074474
11.00001,-0.001069397
11.10001,-0.001064383
11.20001,-0.001059618
11.30001,-0.001054649
11.40001,-0.001049803
11.50001,-0.001045091
11.60001,-0.001040372
11.70001,-0.001035772
11.80001,-0.001031196
11.90001,-0.001026626
12.00001,-0.001022152
12.10001,-0.001017907
12.20001,-0.001013593
12.30001,-0.001009338
12.40001,-0.001005324
12.50001,-0.001000951
12.60001,-0.0009969185
12.70001,-0.0009928729
12.80001,-0.0009887104
12.90001,-0.0009845865
13.00001,-0.000980749
13.10001,-0.0009767484
13.20001,-0.0009730899
13.30001,-0.0009691874
13.40001,-0.0009655231
13.50002,-0.0009617938
13.60002,-0.0009580881
13.70002,-0.0009547214
13.80002,-0.0009510204
13.90002,-0.0009474211
14.00002,-0.0009440478
14.10002,-0.0009406878
14.20002,-0.0009372937
14.30002,-0.0009338988
14.40002,-0.0009305368
14.50002,-0.0009272549
14.60002,-0.0009238298
14.70002,-0.00092053
14.80002,-0.0009173591
14.90002,-0.0009139774
15.00002,-0.0009108763
15.10002,-0.000907714
15.20002,-0.0009044631
15.30002,-0.0009013262
15.40002,-0.0008982759
15.50002,-0.0008951852
15.60002,-0.0008921452
15.70002,-0.0008890865
15.80002,-0.0008861982
15.90002,-0.0008831714
16.00002,-0.0008801947
16.10003,-0.0008773393
16.20003,-0.0008744463
16.30003,-0.0008714271
16.40003,-0.0008687592
16.50003,-0.0008658662
16.60003,-0.0008630467
16.70003,-0.0008603835
16.80003,-0.0008575894
16.90003,-0.0008550551
17.00003,-0.0008524635
17.10003,-0.0008502656
17.20003,-0.0008477548
17.30003,-0.0008452593
17.40003,-0.0008432524
17.50003,-0.0008407964
17.60003,-0.0008380861
17.70003,-0.0008356338
17.80003,-0.0008329932
17.90003,-0.0008302726
18.00003,-0.0008277317
18.10003,-0.0008251392
18.20003,-0.0008226765
18.30003,-0.0008202261
18.40003,-0.0008178831
18.50003,-0.0008153301
18.60003,-0.0008129023
18.70004,-0.0008105875
18.80004,-0.0008081645
18.90004,-0.0008057198
19.00004,-0.0008034426
19.10004,-0.0008010553
19.20004,-0.0007987585
19.30004,-0.0007964682
19.40004,-0.0007941336
19.50004,-0.0007918894
19.60004,-0.0007896076
19.70004,-0.0007873663
19.80004,-0.0007852521
19.90004,-0.0007829863
20.00004,-0.0007809315
20.10004,-0.0007787833
20.20004,-0.0007766249
20.30004,-0.0007746191
20.40004,-0.0007724653
20.50004,-0.000770402
20.60004,-0.0007684177
20.70004,-0.0007663403
20.80004,-0.0007643175
20.90004,-0.0007621769
21.00004,-0.0007601672
21.10004,-0.0007581096
21.20004,-0.0007560425
21.30005,-0.0007542532
21.40005,-0.0007522925
21.50005,-0.0007503195
21.60005,-0.0007483494
21.70005,-0.0007464867
21.80005,-0.0007445109
21.90005,-0.0007426181
22.00005,-0.0007407196
22.10005,-0.0007387815
22.20005,-0.0007368866
22.30005,-0.0007350767
22.40005,-0.0007332422
22.50005,-0.0007313484
22.60005,-0.0007295497
22.70005,-0.0007276681
22.80005,-0.0007258401
22.90005,-0.0007240264
23.00005,-0.0007221929
23.10005,-0.0007203621
23.20005,-0.000718587
23.30005,-0.0007167195
23.40005,-0.0007149698
23.50005,-0.0007131532
23.60005,-0.0007114167
23.70005,-0.0007097112
23.80005,-0.000707871
23.90005,-0.0007062164
24.00006,-0.000704558
24.10006,-0.0007028083
24.20006,-0.0007011725
24.30006,-0.0006994726
24.40006,-0.0006977936
24.50006,-0.0006962218
24.60006,-0.0006945276
24.70006,-0.000692969
24.80006,-0.0006912466
24.90006,-0.0006897257
25.00006,-0.0006881879
25.10006,-0.0006864428
25.20006,-0.0006848683
25.30006,-0.0006832796
25.40006,-0.0006816061
25.50006,-0.0006800203
25.60006,-0.000678473
25.70006,-0.00067684
25.80006,-0.0006753088
25.90006,-0.000673867
26.00006,-0.0006721813
26.10006,-0.0006706642
26.20006,-0.0006691555
26.30006,-0.0006676336
26.40006,-0.0006660497
26.50006,-0.0006646352
26.60007,-0.0006631058
26.70007,-0.0006615293
26.80007,-0.0006601356
26.90007,-0.0006586608
27.00007,-0.000657139
27.10007,-0.0006556906
27.20007,-0.0006542676
27.30007,-0.0006528437
27.40007,-0.000651402
27.50007,-0.0006500157
27.60007,-0.0006486211
27.70007,-0.0006472141
27.80007,-0.000645745
27.90007,-0.0006444322
28.00007,-0.0006429424
28.10007,-0.0006415665
28.20007,-0.0006402499
28.30007,-0.0006388383
28.40007,-0.0006374907
28.50007,-0.0006361477
28.60007,-0.0006347804
28.70007,-0.0006334648
28.80007,-0.000632105
28.90007,-0.0006307159
29.00007,-0.000629422
29.10007,-0.0006280357
29.20008,-0.0006267051
29.30008,-0.0006254517
29.40008,-0.0006241548
29.50008,-0.0006228138
29.60008,-0.0006215236
29.70008,-0.0006201977
29.80008,-0.0006189028
29.90008,-0.0006176616
30.00008,-0.0006164289
30.10008,-0.0006152875
30.20008,-0.0006139955
30.30008,-0.000612808
30.40008,-0.0006115074
30.50008,-0.000610286
30.60008,-0.0006090862
30.70008,-0.0006078629
30.80008,-0.000606617
30.90008,-0.0006053842
31.00008,-0.0006041299
31.10008,-0.0006029518
31.20008,-0.0006016908
31.30008,-0.0006004712
31.40008,-0.0005993704
31.50008,-0.0005981649
31.60008,-0.0005969784
31.70008,-0.0005958436
31.80009,-0.0005946014
31.90009,-0.0005934516
32.00008,-0.0005922932
32.10008,-0.0005911255
32.20008,-0.0005900218
32.30008,-0.0005888456
32.40008,-0.0005877758
32.50008,-0.0005866335
32.60007,-0.0005857077
32.70007,-0.0005845984
32.80007,-0.0005833572
32.90007,-0.0005823157
33.00007,-0.0005811403
33.10007,-0.0005799255
33.20007,-0.0005788218
33.30006,-0.0005777001
33.40006,-0.0005766002
33.50006,-0.0005756218
33.60006,-0.0005744409
33.70006,-0.0005732882
33.80006,-0.0005721732
33.90005,-0.0005710544
34.00005,-0.0005699958
34.10005,-0.0005689053
34.20005,-0.0005678865
34.30005,-0.0005668326
34.40005,-0.0005658278
34.50005,-0.0005648992
34.60004,-0.0005638134
34.70004,-0.0005627389
34.80004,-0.0005617265
34.90004,-0.0005605936
35.00004,-0.0005595493
35.10004,-0.0005585171
35.20004,-0.0005574492
35.30003,-0.0005564585
35.40003,-0.0005554206
35.50003,-0.0005543754
35.60003,-0.0005533272
35.70003,-0.0005522668
35.80003,-0.000551247
35.90002,-0.0005502158
36.00002,-0.000549177
36.10002,-0.0005481411
36.20002,-0.0005471825
36.30002,-0.0005461315
36.40002,-0.0005451097
36.50002,-0.0005441661
36.60001,-0.0005431076
36.70001,-0.000542163
36.80001,-0.0005412204
36.90001,-0.0005402127
37.00001,-0.0005392596
37.10001,-0.0005382745
37.2,-0.0005372943
37.3,-0.0005362857
37.4,-0.0005353082
37.5,-0.0005343456
37.6,-0.0005333879
37.7,-0.0005324368
37.8,-0.0005314668
37.89999,-0.0005305147
37.99999,-0.0005295966
38.09999,-0.0005286821
38.19999,-0.0005277508
38.29999,-0.0005267911
38.39999,-0.0005259463
38.49998,-0.0005250009
38.59998,-0.0005240479
38.69998,-0.0005231466
38.79998,-0.0005222812
38.89998,-0.0005213046
38.99998,-0.0005204015
39.09998,-0.0005195492
39.19997,-0.0005186102
39.29997,-0.0005177533
39.39997,-0.0005168559
39.49997,-0.0005158972
39.59997,-0.0005150487
39.69997,-0.0005141757
39.79996,-0.0005131718
39.89996,-0.0005123412
39.99996,-0.000511456
40.09996,-0.0005105246
40.19996,-0.0005096714
40.29996,-0.0005088078
40.39996,-0.0005079122
40.49995,-0.0005070505
40.59995,-0.0005061898
40.69995,-0.0005053441
40.79995,-0.0005045107
40.89995,-0.0005036792
40.99995,-0.0005028043
41.09995,-0.0005019078
41.19994,-0.000501095
41.29994,-0.0005002588
41.39994,-0.0004993895
41.49994,-0.0004985241
41.59994,-0.0004976464
41.69994,-0.0004968271
41.79993,-0.0004959889
41.89993,-0.0004951443
41.99993,-0.0004943381
42.09993,-0.000493452
42.19993,-0.0004926515
42.29993,-0.0004918717
42.39993,-0.0004910072
42.49992,-0.0004902002
42.59992,-0.0004894581
42.69992,-0.0004885926
42.79992,-0.0004877404
42.89992,-0.0004869437
42.99992,-0.0004861752
43.09991,-0.0004854058
43.19991,-0.0004846656
43.29991,-0.0004838887
43.39991,-0.0004830204
43.49991,-0.0004822227
43.59991,-0.0004814439
43.69991,-0.0004805079
43.7999,-0.0004797573
43.8999,-0.0004789747
43.9999,-0.0004781648
44.0999,-0.0004773889
44.1999,-0.0004766468
44.2999,-0.0004758265
44.39989,-0.0004750421
44.49989,-0.0004742802
44.59989,-0.0004735494
44.69989,-0.0004727198
44.79989,-0.0004719569
44.89989,-0.0004712384
44.99989,-0.0004704454
45.09988,-0.0004697015
45.19988,-0.0004689528
45.29988,-0.000468174
45.39988,-0.0004674432
45.49988,-0.0004666842
45.59988,-0.0004659581
45.69987,-0.0004652113
45.79987,-0.0004644052
45.89987,-0.0004636697
45.99987,-0.0004629474
46.09987,-0.0004622204
46.19987,-0.0004615207
46.29987,-0.0004607626
46.39986,-0.0004600836
46.49986,-0.0004592906
46.59986,-0.0004585373
46.69986,-0.0004579572
46.79986,-0.0004573055
46.89986,-0.0004564739
46.99986,-0.0004557243
47.09985,-0.0004550896
47.19985,-0.0004543456
47.29985,-0.0004535574
47.39985,-0.0004529406
47.49985,-0.0004522192
47.59985,-0.0004514112
47.69984,-0.0004508245
47.79984,-0.0004501116
47.89984,-0.0004493657
47.99984,-0.0004486679
48.09984,-0.0004480134
48.19984,-0.0004472638
48.29984,-0.0004465679
48.39983,-0.0004458936
48.49983,-0.0004451665
48.59983,-0.0004444848
48.69983,-0.0004438519
48.79983,-0.0004431428
48.89983,-0.0004424977
48.99982,-0.0004419317
49.09982,-0.0004412754
49.19982,-0.0004405916
49.29982,-0.000439955
49.39982,-0.0004392563
49.49982,-0.0004385471
49.59982,-0.0004379181
49.69981,-0.0004372608
49.79981,-0.0004365667
49.89981,-0.0004359188
49.99981,-0.0004352445
50.09981,-0.0004345721
50.19981,-0.0004339477
50.2998,-0.00043328
50.3998,-0.0004326029
50.4998,-0.0004319654
50.5998,-0.0004313504
50.6998,-0.0004307204
50.7998,-0.0004301064
50.8998,-0.0004295159
50.99979,-0.0004288765
51.09979,-0.0004282258
51.19979,-0.0004276758
51.29979,-0.0004270317
51.39979,-0.0004263498
51.49979,-0.0004257707
51.59978,-0.0004251162
51.69978,-0.0004244607
51.79978,-0.0004238213
51.89978,-0.0004231988
51.99978,-0.0004225801
52.09978,-0.0004219679
52.19978,-0.0004213398
52.29977,-0.0004207927
52.39977,-0.0004201956
52.49977,-0.0004195336
52.59977,-0.0004189573
52.69977,-0.0004184289
52.79977,-0.0004178507
52.89977,-0.0004171614
52.99976,-0.0004165606
53.09976,-0.0004159427
53.19976,-0.0004153363
53.29976,-0.0004146789
53.39976,-0.0004141224
53.49976,-0.0004135065
53.59975,-0.0004128821
53.69975,-0.0004123246
53.79975,-0.0004117756
53.89975,-0.0004111908
53.99975,-0.0004105551
54.09975,-0.0004099619
54.19975,-0.0004094034
54.29974,-0.0004087743
54.39974,-0.0004081603
54.49974,-0.0004075877
54.59974,-0.0004069812
54.69974,-0.0004064039
54.79974,-0.0004058003
54.89973,-0.0004051411
54.99973,-0.0004045855
55.09973,-0.0004040167
55.19973,-0.0004033923
55.29973,-0.0004027199
55.39973,-0.0004022104
55.49973,-0.0004016576
55.59972,-0.0004010069
55.69972,-0.0004004965
55.79972,-0.000399889
55.89972,-0.0003992769
55.99972,-0.0003987213
56.09972,-0.0003981535
56.19971,-0.0003975432
56.29971,-0.0003969641
56.39971,-0.0003964028
56.49971,-0.0003958236
56.59971,-0.0003952661
56.69971,-0.0003946822
56.79971,-0.0003941304
56.8997,-0.0003935578
56.9997,-0.0003930154
57.0997,-0.0003924381
57.1997,-0.0003918749
57.2997,-0.0003913221
57.3997,-0.0003907722
57.49969,-0.0003902495
57.59969,-0.0003896939
57.69969,-0.0003891185
57.79969,-0.0003886024
57.89969,-0.0003880929
57.99969,-0.0003875985
58.09969,-0.0003870994
58.19968,-0.0003866615
58.29968,-0.0003861501
58.39968,-0.0003856341
58.49968,-0.0003851416
58.59968,-0.0003846161
58.69968,-0.0003840981
58.79967,-0.000383614
58.89967,-0.0003830933
58.99967,-0.0003825932
59.09967,-0.000382112
59.19967,-0.0003815837
59.29967,-0.0003810554
59.39967,-0.0003804951
59.49966,-0.0003799997
59.59966,-0.0003794573
59.69966,-0.0003788913
59.79966,-0.0003783874
59.89966,-0.0003778309
59.99966,-0.0003772838
60.09966,-0.0003768035
60.19965,-0.0003762799
60.29965,-0.0003757722
60.39965,-0.0003752392
60.49965,-0.0003748051
60.59965,-0.00037429
60.69965,-0.0003737353
60.79964,-0.0003732409
60.89964,-0.0003727211
60.99964,-0.0003721447
61.09964,-0.0003716616
61.19964,-0.0003712001
61.29964,-0.0003706474
61.39964,-0.0003701492
61.49963,-0.0003696482
61.59963,-0.0003691274
61.69963,-0.0003686311
61.79963,-0.000368148
61.89963,-0.0003675971
61.99963,-0.0003670697
62.09962,-0.0003666054
62.19962,-0.0003661365
62.29962,-0.000365561
62.39962,-0.0003651194
62.49962,-0.0003646259
62.59962,-0.0003640722
62.69962,-0.0003636032
62.79961,-0.0003631201
62.89961,-0.0003625937
62.99961,-0.0003620992
63.09961,-0.0003616228
63.19961,-0.0003611133
63.29961,-0.0003606433
63.3996,-0.0003601489
63.4996,-0.0003596385
63.5996,-0.0003591582
63.6996,-0.0003586798
63.7996,-0.0003581939
63.8996,-0.000357724
63.9996,-0.0003572447
64.09959,-0.0003567653
64.19959,-0.0003562671
64.29959,-0.0003557812
64.39959,-0.0003553254
64.49959,-0.000354831
64.59959,-0.0003543385
64.69958,-0.0003538497
64.79958,-0.0003533411
64.89958,-0.0003528958
64.99958,-0.0003524823
65.09958,-0.0003519794
65.19958,-0.000351436
65.29958,-0.0003510273
65.39957,-0.0003505405
65.49957,-0.0003500931
65.59957,-0.0003496232
65.69957,-0.0003491325
65.79957,-0.0003486664
65.89957,-0.0003482342
65.99957,-0.0003477614
66.09956,-0.0003472425
66.19956,-0.0003468366
66.29956,-0.0003463686
66.39956,-0.0003458902
66.49956,-0.0003454372
66.59956,-0.0003450068
66.69955,-0.0003445473
66.79955,-0.0003440745
66.89955,-0.0003436583
66.99955,-0.0003432006
67.09955,-0.0003427533
67.19955,-0.0003422984
67.29955,-0.0003418229
67.39954,-0.0003414094
67.49954,-0.0003409903
67.59954,-0.0003404762
67.69954,-0.0003400439
67.79954,-0.0003396362
67.89954,-0.0003391653
67.99953,-0.0003386784
68.09953,-0.0003382791
68.19953,-0.0003378176
68.29953,-0.0003373873
68.39953,-0.0003369626
68.49953,-0.0003364861
68.59953,-0.000336034
68.69952,-0.000335631
68.79952,-0.0003352053
68.89952,-0.0003347382
68.99952,-0.0003343031
69.09952,-0.0003338822
69.19952,-0.0003334725
69.29951,-0.0003330186
69.39951,-0.0003326315
69.49951,-0.0003321258
69.59951,-0.0003317067
69.69951,-0.0003313075
69.79951,-0.0003308574
69.89951,-0.00033041
69.9995,-0.000330039
70.0995,-0.0003296293
70.1995,-0.0003291387
70.2995,-0.0003287968
70.3995,-0.0003283674
70.4995,-0.0003279069
70.59949,-0.0003274718
70.69949,-0.0003270961
70.79949,-0.0003266421
70.89949,-0.0003262099
70.99949,-0.0003258116
71.09949,-0.0003254057
71.19949,-0.0003249847
71.29948,-0.0003245571
71.39948,-0.0003241362
71.49948,-0.0003237077
71.59948,-0.0003233131
71.69948,-0.0003229148
71.79948,-0.0003225051
71.89948,-0.0003221058
71.99947,-0.0003216924
72.09947,-0.0003212563
72.19947,-0.0003208957
72.29947,-0.0003204757
72.39947,-0.0003200736
72.49947,-0.0003197543
72.59946,-0.0003193353
72.69946,-0.0003189152
72.79946,-0.0003185367
72.89946,-0.0003181562
72.99946,-0.0003177531
73.09946,-0.0003174527
73.19946,-0.0003171438
73.29945,-0.0003167446
73.39945,-0.0003163434
73.49945,-0.0003161127
73.59945,-0.0003156776
73.69945,-0.0003152416
73.79945,-0.0003149129
73.89944,-0.0003145023
73.99944,-0.0003140898
74.09944,-0.0003136877
74.19944,-0.0003133082
74.29944,-0.0003129108
74.39944,-0.0003125275
74.49944,-0.0003121574
74.59943,-0.0003117684
74.69943,-0.0003113889
74.79943,-0.000311032
74.89943,-0.0003106148
74.99943,-0.0003101825
75.09943,-0.0003098868
75.19942,-0.0003094659
75.29942,-0.0003090609
75.39942,-0.0003087304
75.49942,-0.0003083546
75.59942,-0.0003079582
75.69942,-0.0003075843
75.79942,-0.000307218
75.89941,-0.0003068111
75.99941,-0.0003064844
76.09941,-0.0003061303
76.19941,-0.0003057555
76.29941,-0.0003053402
76.39941,-0.0003050464
76.4994,-0.0003046687
76.5994,-0.0003042647
76.6994,-0.000303938
76.7994,-0.0003035885
76.8994,-0.0003032119
76.9994,-0.0003028079
77.0994,-0.0003024538
77.19939,-0.0003021006
77.29939,-0.0003017343
77.39939,-0.0003013651
77.49939,-0.000301029
77.59939,-0.0003006673
77.69939,-0.0003003424
77.79939,-0.0002999826
77.89938,-0.0002996323
77.99938,-0.0002992848
78.09938,-0.0002989486
78.19938,-0.0002985898
78.29938,-0.000298312
78.39938,-0.0002979316
78.49937,-0.0002975342
78.59937,-0.000297279
78.69937,-0.0002969597
78.79937,-0.00029655
78.89937,-0.0002962515
78.99937,-0.0002959492
79.09937,-0.0002956121
79.19936,-0.0002953192
79.29936,-0.0002949924
79.39936,-0.0002946525
79.49936,-0.0002943445
79.59936,-0.0002939923
79.69936,-0.0002936646
79.79935,-0.000293335
79.89935,-0.0002931344
79.99935,-0.0002928745
80.09935,-0.0002925364
80.19935,-0.0002922793
80.29935,-0.0002919601
80.39935,-0.0002915956
80.49934,-0.0002912594
80.59934,-0.0002909138
80.69934,-0.0002905579
80.79934,-0.0002901839
80.89934,-0.0002899137
80.99934,-0.0002895294
81.09933,-0.0002891509
81.19933,-0.0002888429
81.29933,-0.0002884785
81.39933,-0.0002880933
81.49933,-0.0002877778
81.59933,-0.0002874096
81.69933,-0.0002870433
81.79932,-0.000286692
81.89932,-0.0002863389
81.99932,-0.0002859829
82.09932,-0.000285625
82.19932,-0.0002852757
82.29932,-0.000284946
82.39931,-0.000284592
82.49931,-0.0002843057
82.59931,-0.0002839657
82.69931,-0.0002835909
82.79931,-0.0002832726
82.89931,-0.0002829486
82.99931,-0.0002826247
83.0993,-0.0002822423
83.1993,-0.0002819316
83.2993,-0.0002816236
83.3993,-0.0002812686
83.4993,-0.0002809004
83.5993,-0.0002805915
83.6993,-0.0002802571
83.79929,-0.0002798918
83.89929,-0.0002796159
83.99929,-0.0002792627
84.09929,-0.0002789359
84.19929,-0.0002785809
84.29929,-0.0002782362
84.39928,-0.0002779226
84.49928,-0.0002775987
84.59928,-0.0002772634
84.69928,-0.0002769536
84.79928,-0.0002766381
84.89928,-0.0002762859
84.99928,-0.0002759506
85.09927,-0.000275686
85.19927,-0.0002753027
85.29927,-0.0002749985
85.39927,-0.0002746991
85.49927,-0.000274345
85.59927,-0.0002740257
85.69926,-0.0002737686
85.79926,-0.0002734824
85.89926,-0.0002731414
85.99926,-0.0002728731
86.09926,-0.0002726405
86.19926,-0.0002723108
86.29926,-0.0002722788
86.39925,-0.0002721357
86.49925,-0.0002718305
86.59925,-0.0002719906
86.69925,-0.0002724483
86.79925,-0.0002720104
86.89925,-0.0002716676
86.99924,-0.0002714303
87.09924,-0.0002711063
87.19924,-0.0002707645
87.29924,-0.0002704594
87.39924,-0.0002701364
87.49924,-0.0002698256
87.59924,-0.0002695553
87.69923,-0.000269237
87.79923,-0.0002689686
87.89923,-0.0002686908
87.99923,-0.0002683772
88.09923,-0.000268041
88.19923,-0.0002677331
88.29922,-0.000267427
88.39922,-0.0002670597
88.49922,-0.0002667395
88.59922,-0.0002664081
88.69922,-0.0002660653
88.79922,-0.0002657244
88.89922,-0.0002653835
88.99921,-0.0002650576
89.09921,-0.0002647101
89.19921,-0.0002644135
89.29921,-0.0002640792
89.39921,-0.0002637467
89.49921,-0.0002634002
89.59921,-0.0002630659
89.6992,-0.0002627683
89.7992,-0.0002624556
89.8992,-0.0002622814
89.9992,-0.0002620318
90.0992,-0.0002616184
90.1992,-0.0002615111
90.29919,-0.0002611993
90.39919,-0.0002607972
90.49919,-0.0002604874
90.59919,-0.0002602077
90.69919,-0.000259832
90.79919,-0.0002594995
90.89919,-0.0002592405
90.99918,-0.0002588949
91.09918,-0.0002585945
91.19918,-0.0002582885
91.29918,-0.0002579946
91.39918,-0.0002576641
91.49918,-0.0002574155
91.59917,-0.0002571075
91.69917,-0.0002567657
91.79917,-0.0002565189
91.89917,-0.000256275
91.99917,-0.0002559605
92.09917,-0.0002557204
92.19917,-0.0002554868
92.29916,-0.00025516
92.39916,-0.0002548926
92.49916,-0.0002546571
92.59916,-0.0002544067
92.69916,-0.0002540601
92.79916,-0.0002537926
92.89915,-0.0002535139
92.99915,-0.0002532012
93.09915,-0.0002529281
93.19915,-0.0002526569
93.29915,-0.0002523744
93.39915,-0.0002520805
93.49915,-0.000251783
93.59914,-0.000251523
93.69914,-0.0002512368
93.79914,-0.0002509156
93.89914,-0.0002506774
93.99914,-0.0002503506
94.09914,-0.0002501227
94.19913,-0.0002498468
94.29913,-0.0002495445
94.39913,-0.0002492582
94.49913,-0.0002489691
94.59913,-0.0002487073
94.69913,-0.000248405
94.79913,-0.0002481027
94.89912,-0.0002478371
94.99912,-0.0002475556
95.09912,-0.0002472918
95.19912,-0.0002469905
95.29912,-0.0002466995
95.39912,-0.0002464406
95.49911,-0.0002461156
95.59911,-0.0002458096
95.69911,-0.0002455487
95.79911,-0.0002452794
95.89911,-0.0002449969
95.99911,-0.000244752
96.09911,-0.0002444459
96.1991,-0.0002441672
96.2991,-0.0002439092
96.3991,-0.000243637
96.4991,-0.000243379
96.5991,-0.0002431661
96.6991,-0.0002429364
96.7991,-0.0002426736
96.89909,-0.0002424127
96.99909,-0.0002421848
97.09909,-0.0002418844
97.19909,-0.0002416142
97.29909,-0.000241359
97.39909,-0.0002410651
97.49908,-0.0002407741
97.59908,-0.0002405415
97.69908,-0.0002402778
97.79908,-0.0002399793
97.89908,-0.0002397363
97.99908,-0.0002394868
98.09908,-0.0002392099
98.19907,-0.0002389566
98.29907,-0.000238707
98.39907,-0.0002384838
98.49907,-0.000238191
98.59907,-0.0002379424
98.69907,-0.000237705
98.79906,-0.0002374225
98.89906,-0.0002371786
98.99906,-0.0002369168
99.09906,-0.0002367058
99.19906,-0.0002364732
99.29906,-0.0002361898
99.39906,-0.0002359035
99.49905,-0.0002357472
99.59905,-0.000235539
99.69905,-0.0002352245
99.79905,-0.0002349561
99.89905,-0.0002347452
99.99905,-0.0002344636
100.099,-0.0002342074
100.199,-0.0002340068
100.299,-0.0002338147
100.399,-0.0002334908
100.499,-0.0002332968
100.599,-0.0002330642
100.699,-0.0002327967
100.799,-0.0002325443
100.899,-0.0002322938
100.999,-0.0002320622
101.099,-0.0002318211
101.199,-0.0002315386
101.299,-0.0002313474
101.399,-0.0002311101
101.499,-0.0002308426
101.599,-0.0002306392
101.699,-0.0002304029
101.799,-0.0002301439
101.899,-0.0002299103
101.999,-0.0002296372
102.099,-0.0002294093
102.199,-0.0002291438
102.299,-0.0002289083
102.399,-0.000228752
102.499,-0.0002285778
102.599,-0.0002283273
102.699,-0.0002281229
102.799,-0.0002279336
102.899,-0.0002276351
102.999,-0.0002273733
103.099,-0.0002271821
103.199,-0.0002269448
103.299,-0.0002266811
103.399,-0.000226473
103.499,-0.0002262526
103.599,-0.0002259871
103.699,-0.000225762
103.799,-0.0002255492
103.899,-0.0002253203
103.999,-0.0002250642
104.099,-0.0002248598
104.199,-0.0002246489
104.299,-0.000224388
104.399,-0.0002241102
104.499,-0.0002239313
104.599,-0.0002236506
104.699,-0.0002234218
104.799,-0.0002231901
104.899,-0.0002229801
104.999,-0.0002227466
105.099,-0.0002225045
105.199,-0.0002223002
105.299,-0.0002221137
105.399,-0.0002218877
105.499,-0.0002216542
105.599,-0.0002214093
105.699,-0.0002212247
105.799,-0.0002210194
105.899,-0.0002207991
105.999,-0.000220752
106.099,-0.0002206098
106.199,-0.00022038
106.299,-0.0002203263
106.3989,-0.000220137
106.4989,-0.000219879
106.5989,-0.0002197293
106.6989,-0.0002195193
106.7989,-0.0002192801
106.8989,-0.0002190766
106.9989,-0.0002189109
107.0989,-0.0002187244
107.1989,-0.0002185135
107.2989,-0.0002183675
107.3989,-0.0002182347
107.4989,-0.0002180153
107.5989,-0.0002178957
107.6989,-0.00021781
107.7989,-0.0002176885
107.8989,-0.0002175944
107.9989,-0.0002174503
108.0989,-0.0002173514
108.1989,-0.0002171348
108.2989,-0.0002169126
108.3989,-0.0002167637
108.4989,-0.0002165867
108.5989,-0.0002163767
108.6989,-0.0002162439
108.7989,-0.0002160443
108.8989,-0.000215854
108.9989,-0.0002156506
109.0989,-0.0002154161
109.1989,-0.0002152165
109.2989,-0.0002149961
109.3989,-0.0002147682
109.4989,-0.0002145262
109.5989,-0.0002143162
109.6989,-0.0002140826
109.7989,-0.0002138425
109.8989,-0.0002135421
109.9989,-0.0002133208
110.0989,-0.0002131061
110.1989,-0.0002128226
110.2989,-0.0002126305
110.3989,-0.0002123819
110.4989,-0.000212122
110.5989,-0.0002119176
110.6989,-0.0002116633
110.7989,-0.00021141
110.8989,-0.0002111793
110.9989,-0.0002109674
111.0989,-0.0002108148
111.1989,-0.0002105691
111.2989,-0.0002103308
111.3989,-0.0002101707
111.4989,-0.0002100322
111.5989,-0.0002097883
111.6989,-0.0002095896
111.7989,-0.0002094512
111.8989,-0.0002092544
111.9989,-0.0002089992
112.0989,-0.0002088881
112.1989,-0.0002086385
112.2989,-0.0002084219
112.3989,-0.0002082458
112.4989,-0.000208016
112.5989,-0.0002077712
112.6989,-0.0002075546
112.7989,-0.0002073643
112.8988,-0.000207112
112.9988,-0.0002068784
113.0988,-0.0002067032
113.1988,-0.0002064593
113.2988,-0.0002061919
113.3988,-0.0002060355
113.4988,-0.0002058434
113.5988,-0.0002055543
113.6988,-0.0002053424
113.7988,-0.0002051475
113.8988,-0.0002049007
113.9988,-0.0002046804
114.0988,-0.0002044619
114.1988,-0.0002042472
114.2988,-0.0002040429
114.3988,-0.0002038441
114.4988,-0.0002036388
114.5988,-0.0002034194
114.6988,-0.0002032151
114.7988,-0.0002030267
114.8988,-0.0002027884
114.9988,-0.0002025747
115.0988,-0.0002023666
115.1988,-0.0002021321
115.2988,-0.0002019155
115.3988,-0.0002017186
115.4988,-0.0002014559
115.5988,-0.0002012628
115.6988,-0.0002011207
115.7988,-0.0002008833
115.8988,-0.0002006705
115.9988,-0.0002004709
116.0988,-0.0002002919
116.1988,-0.0002000593
116.2988,-0.0001998399
116.3988,-0.0001996449
116.4988,-0.0001994029
116.5988,-0.0001992137
116.6988,-0.0001990272
116.7988,-0.0001988313
116.8988,-0.0001986533
116.9988,-0.0001984565
117.0988,-0.0001982747
117.1988,-0.0001980384
117.2988,-0.0001978425
117.3988,-0.0001976523
117.4988,-0.0001974243
117.5988,-0.0001972417
117.6988,-0.0001970571
117.7988,-0.0001968866
117.8988,-0.000196686
117.9988,-0.0001964977
118.0988,-0.0001962632
118.1988,-0.0001961323
118.2988,-0.0001959449
118.3988,-0.0001957763
118.4988,-0.0001955983
118.5988,-0.0001954232
118.6988,-0.0001952169
118.7988,-0.0001950314
118.8988,-0.0001948459
118.9988,-0.0001946133
119.0988,-0.0001944447
119.1988,-0.0001943053
119.2988,-0.000194133
119.3988,-0.0001939173
119.4987,-0.00019373
119.5987,-0.0001935736
119.6987,-0.0001933156
119.7987,-0.0001931263
119.8987,-0.0001930123
119.9987,-0.000192808
120.0987,-0.0001925933
120.1987,-0.0001924294
120.2987,-0.0001922693
120.3987,-0.000192032
120.4987,-0.0001918474
120.5987,-0.0001916741
120.6987,-0.0001914726
120.7987,-0.0001912956
120.8987,-0.0001911195
120.9987,-0.0001909424
121.0987,-0.0001907833
121.1987,-0.0001906477
121.2987,-0.0001904791
121.3987,-0.0001903049
121.4987,-0.0001901655
121.5987,-0.0001899376
121.6987,-0.0001897634
121.7987,-0.0001896268
121.8987,-0.0001894319
121.9987,-0.0001892906
122.0987,-0.0001891032
122.1987,-0.0001889121
122.2987,-0.0001887943
122.3987,-0.0001886361
122.4987,-0.0001884299
122.5987,-0.0001882736
122.6987,-0.0001881342
122.7987,-0.0001879515
122.8987,-0.0001877471
122.9987,-0.000187619
123.0987,-0.0001874533
123.1987,-0.0001872602
123.2987,-0.0001870597
123.3987,-0.0001869325
123.4987,-0.0001867555
123.5987,-0.0001865474
123.6987,-0.0001864108
123.7987,-0.0001862535
123.8987,-0.0001860643
123.9987,-0.0001858995
124.0987,-0.0001857497
124.1987,-0.0001855491
124.2987,-0.0001853975
124.3987,-0.0001852393
124.4987,-0.0001850717
124.5987,-0.0001848918
124.6987,-0.0001847307
124.7987,-0.0001845942
124.8987,-0.0001844529
124.9987,-0.0001842411
125.0987,-0.0001840715
125.1987,-0.0001839369
125.2987,-0.0001837655
125.3987,-0.0001836044
125.4987,-0.0001834472
125.5987,-0.000183289
125.6987,-0.0001831524
125.7987,-0.0001829735
125.8987,-0.0001828567
125.9986,-0.0001826825
126.0986,-0.0001825045
126.1986,-0.0001823859
126.2986,-0.0001822258
126.3986,-0.0001820299
126.4986,-0.0001818556
126.5986,-0.00018172
126.6986,-0.0001815383
126.7986,-0.0001813556
126.8986,-0.0001812219
126.9986,-0.0001810571
127.0986,-0.0001808518
127.1986,-0.0001806983
127.2986,-0.000180541
127.3986,-0.0001803206
127.4986,-0.0001801417
127.5986,-0.000180023
127.6986,-0.00017983
127.7986,-0.0001796426
127.8986,-0.0001795484
127.9986,-0.0001794222
128.0986,-0.0001792386
128.1986,-0.0001790653
128.2986,-0.0001789758
128.3986,-0.0001787875
128.4986,-0.0001786123
128.5986,-0.0001784673
128.6987,-0.0001783373
128.7987,-0.0001781424
128.8987,-0.0001779955
128.9987,-0.0001778787
129.0987,-0.0001776546
129.1987,-0.0001775067
129.2987,-0.0001773542
129.3987,-0.0001771715
129.4987,-0.0001769982
129.5987,-0.0001768645
129.6987,-0.0001766968
129.7987,-0.0001765424
129.8987,-0.0001763757
129.9987,-0.0001762109
130.0987,-0.000176047
130.1987,-0.00017587
130.2988,-0.0001757052
130.3988,-0.0001755583
130.4988,-0.000175385
130.5988,-0.0001752014
130.6988,-0.0001750497
130.7988,-0.0001748784
130.8988,-0.0001747089
130.9988,-0.0001745704
131.0988,-0.0001744009
131.1988,-0.0001742785
131.2988,-0.0001741156
131.3988,-0.0001739687
131.4988,-0.0001738236
131.5988,-0.000173623
131.6988,-0.0001734827
131.7988,-0.0001733264
131.8988,-0.0001731409
131.9989,-0.0001729497
132.0989,-0.0001728499
132.1989,-0.000172671
132.2989,-0.0001724525
132.3989,-0.0001723404
132.4989,-0.0001721822
132.5989,-0.0001720014
132.6989,-0.0001718469
132.7989,-0.0001716944
132.8989,-0.0001715654
132.9989,-0.0001713817
133.0989,-0.0001712442
133.1989,-0.0001710983
133.2989,-0.0001709626
133.3989,-0.0001709146
133.4989,-0.0001707621
133.599,-0.0001705699
133.699,-0.0001705021
133.799,-0.0001703411
133.899,-0.000170133
133.999,-0.0001699814
134.099,-0.0001698702
134.199,-0.0001696998
134.299,-0.000169519
134.399,-0.000169389
134.499,-0.0001692553
134.599,-0.0001691206
134.699,-0.0001689652
134.799,-0.0001688258
134.899,-0.0001687091
134.999,-0.0001685434
135.099,-0.0001683719
135.1991,-0.000168193
135.2991,-0.0001680734
135.3991,-0.000167919
135.4991,-0.0001677334
135.5991,-0.0001675762
135.6991,-0.0001674481
135.7991,-0.0001672645
135.8991,-0.0001671091
135.9991,-0.0001669593
136.0991,-0.0001667814
136.1991,-0.0001666165
136.2991,-0.0001665036
136.3991,-0.00016635
136.4991,-0.0001661852
136.5991,-0.0001660863
136.6991,-0.0001659508
136.7991,-0.0001658104
136.8992,-0.0001656833
136.9992,-0.0001655279
137.0992,-0.0001653791
137.1992,-0.000165267
137.2992,-0.0001651541
137.3992,-0.0001650184
137.4992,-0.0001648988
137.5992,-0.0001647698
137.6992,-0.0001646512
137.7992,-0.0001645429
137.8992,-0.0001644327
137.9992,-0.000164298
138.0992,-0.0001641699
138.1992,-0.0001640268
138.2992,-0.0001638742
138.3992,-0.0001637452
138.4993,-0.000163635
138.5993,-0.0001635069
138.6993,-0.0001633892
138.7993,-0.0001632339
138.8993,-0.0001631218
138.9993,-0.000162989
139.0993,-0.000162843
139.1993,-0.0001627055
139.2993,-0.0001625699
139.3993,-0.0001624061
139.4993,-0.0001622573
139.5993,-0.0001621499
139.6993,-0.0001619625
139.7993,-0.0001618165
139.8993,-0.0001616819
139.9993,-0.0001615331
140.0993,-0.0001613871
140.1994,-0.0001612722
140.2994,-0.0001611545
140.3994,-0.0001609671
140.4994,-0.0001609031
140.5994,-0.0001607533
140.6994,-0.0001606045
140.7994,-0.000160517
140.8994,-0.0001603814
140.9994,-0.0001602429
141.0994,-0.0001600988
141.1994,-0.0001599312
141.2994,-0.0001598493
141.3994,-0.0001597099
141.4994,-0.0001595592
141.5994,-0.0001594528
141.6994,-0.0001593341
141.7995,-0.0001591684
141.8995,-0.0001590187
141.9995,-0.0001588765
142.0995,-0.0001587682
142.1995,-0.0001586071
142.2995,-0.0001584508
142.3995,-0.0001583378
142.4995,-0.0001582238
142.5995,-0.0001580562
142.6995,-0.0001579103
142.7995,-0.0001578114
142.8995,-0.0001576946
142.9995,-0.0001575317
143.0995,-0.000157397
143.1995,-0.0001572962
143.2995,-0.0001571738
143.3996,-0.0001570655
143.4996,-0.0001569374
143.5996,-0.0001567924
143.6996,-0.0001566549
143.7996,-0.0001565278
143.8996,-0.000156411
143.9996,-0.0001562425
144.0996,-0.0001561257
144.1996,-0.0001560211
144.2996,-0.0001558318
144.3996,-0.0001557066
144.4996,-0.0001555908
144.5996,-0.0001554467
144.6996,-0.0001553412
144.7996,-0.0001552047
144.8996,-0.000155053
144.9996,-0.0001549589
145.0997,-0.0001548675
145.1997,-0.0001546688
145.2997,-0.0001545426
145.3997,-0.000154439
145.4997,-0.00015431
145.5997,-0.0001541744
145.6997,-0.0001540492
145.7997,-0.0001538975
145.8997,-0.0001537563
145.9997,-0.0001536404
146.0997,-0.0001535161
146.1997,-0.0001533871
146.2997,-0.0001532506
146.3997,-0.0001531394
146.4997,-0.0001529878
146.5997,-0.0001528579
146.6998,-0.0001527561
146.7998,-0.0001526299
146.8998,-0.0001524944
146.9998,-0.0001523474
147.0998,-0.0001522382
147.1998,-0.0001520932
147.2998,-0.0001519679
147.3998,-0.0001518436
147.4998,-0.0001517061
147.5998,-0.0001515894
147.6998,-0.0001514613
147.7998,-0.0001513841
147.8998,-0.0001512277
147.9998,-0.0001510818
148.0998,-0.0001510111
148.1998,-0.0001508604
148.2999,-0.0001507107
148.3999,-0.0001505968
148.4999,-0.0001504649
148.5999,-0.0001503642
148.6999,-0.0001502709
148.7999,-0.0001501325
148.8999,-0.0001500289
148.9999,-0.0001498895
149.0999,-0.0001497718
149.1999,-0.0001496607
149.2999,-0.0001495251
149.3999,-0.0001493961
149.4999,-0.0001493
149.5999,-0.0001491446
149.6999,-0.0001489939
149.7999,-0.0001489026
149.8999,-0.0001487933
150,-0.0001486153
150.1,-0.000148508
150.2,-0.0001483865
150.3,-0.0001482575
150.4,-0.0001481247
150.5,-0.0001480004
150.6,-0.000147862
150.7,-0.0001477556
150.8,-0.0001476209
150.9,-0.00014749
151,-0.0001474062
151.1,-0.0001472743
151.2,-0.0001471105
151.3,-0.0001469946
151.4,-0.0001468948
151.5,-0.0001467696
151.6001,-0.0001466274
151.7001,-0.0001465096
151.8001,-0.0001463769
151.9001,-0.0001462497
152.0001,-0.0001461537
152.1001,-0.0001460397
152.2001,-0.0001458975
152.3001,-0.0001457647
152.4001,-0.0001456254
152.5001,-0.0001455246
152.6001,-0.0001453937
152.7001,-0.000145291
152.8001,-0.0001451611
152.9001,-0.0001450782
153.0001,-0.0001449737
153.1001,-0.000144839
153.2001,-0.0001447119
153.3002,-0.000144645
153.4002,-0.0001444736
153.5002,-0.0001443512
153.6002,-0.0001442655
153.7002,-0.0001441704
153.8002,-0.0001440348
153.9002,-0.0001438935
154.0002,-0.0001438069
154.1002,-0.0001436637
154.2002,-0.0001435432
154.3002,-0.0001434424
154.4002,-0.0001433125
154.5002,-0.0001431787
154.6002,-0.0001430978
154.7002,-0.0001429998
154.8002,-0.000142836
154.9003,-0.0001427182
155.0003,-0.0001426165
155.1003,-0.0001424913
155.2003,-0.0001423594
155.3003,-0.0001422511
155.4003,-0.0001421588
155.5003,-0.0001420317
155.6003,-0.0001419272
155.7003,-0.0001417869
155.8003,-0.0001416927
155.9003,-0.0001415891
156.0003,-0.0001414431
156.1003,-0.000141316
156.2003,-0.0001412482
156.3003,-0.0001411503
156.4003,-0.0001409826
156.5004,-0.000140863
156.6004,-0.0001407792
156.7004,-0.0001406483
156.8004,-0.0001405155
156.9004,-0.0001404035
157.0004,-0.0001402848
157.1004,-0.0001401633
157.2004,-0.0001400465
157.3004,-0.000139926
157.4004,-0.0001398215
157.5004,-0.0001397226
157.6004,-0.0001395889
157.7004,-0.0001394749
157.8004,-0.0001393854
157.9004,-0.0001392696
158.0004,-0.0001391491
158.1004,-0.0001390577
158.2005,-0.0001389202
158.3005,-0.0001387884
158.4005,-0.0001387338
158.5005,-0.0001386264
158.6005,-0.0001384776
158.7005,-0.0001383985
158.8005,-0.000138293
158.9005,-0.0001381348
159.0005,-0.0001380228
159.1005,-0.000137922
159.2005,-0.0001378127
159.3005,-0.0001376687
159.4005,-0.0001375839
159.5005,-0.0001374794
159.6005,-0.0001373296
159.7005,-0.0001372694
159.8006,-0.0001371564
159.9006,-0.0001370198
160.0006,-0.0001369021
160.1006,-0.000136823
160.2006,-0.0001366893
160.3006,-0.0001365829
160.4006,-0.0001365122
160.5006,-0.0001363804
160.6006,-0.0001362721
160.7006,-0.0001361958
160.8006,-0.0001361045
160.9006,-0.000135967
161.0006,-0.0001358653
161.1006,-0.0001357673
161.2006,-0.0001356355
161.3006,-0.0001355498
161.4007,-0.0001354255
161.5007,-0.0001353106
161.6007,-0.0001352117
161.7007,-0.0001351081
161.8007,-0.0001350121
161.9007,-0.0001348915
162.0007,-0.0001347945
162.1007,-0.0001346721
162.2007,-0.0001345694
162.3007,-0.0001344743
162.4007,-0.0001343472
162.5007,-0.0001342304
162.6007,-0.0001341588
162.7007,-0.0001340571
162.8007,-0.0001339225
162.9007,-0.0001338255
163.0007,-0.0001337445
163.1008,-0.0001336352
163.2008,-0.0001335514
163.3008,-0.0001334167
163.4008,-0.0001333047
163.5008,-0.0001332595
163.6008,-0.0001331088
163.7008,-0.0001329854
163.8008,-0.0001329092
163.9008,-0.0001328084
164.0008,-0.0001326973
164.1008,-0.0001325777
164.2008,-0.0001324901
164.3008,-0.0001323931
164.4008,-0.0001322716
164.5008,-0.0001321972
164.6008,-0.000132056
164.7009,-0.0001319618
164.8009,-0.0001318827
164.9009,-0.0001317734
165.0009,-0.0001316435
165.1009,-0.0001315954
165.2009,-0.0001314843
165.3009,-0.0001313836
165.4009,-0.000131296
165.5009,-0.0001312272
165.6009,-0.0001310916
165.7009,-0.0001310474
165.8009,-0.0001309692
165.9009,-0.0001308571
166.0009,-0.0001308214
166.1009,-0.0001308138
166.2009,-0.0001306886
166.3009,-0.0001306283
166.401,-0.0001306038
166.501,-0.0001305219
166.601,-0.0001304635
166.701,-0.0001303797
166.801,-0.0001303241
166.901,-0.0001302356
167.001,-0.0001301725
167.101,-0.000130084
167.201,-0.0001300595
167.301,-0.0001300237
167.401,-0.0001299842
167.501,-0.0001299032
167.601,-0.0001298146
167.701,-0.0001297949
167.801,-0.0001296941
167.901,-0.000129615
168.0011,-0.0001295594
168.1011,-0.0001294926
168.2011,-0.0001294257
168.3011,-0.0001293296
168.4011,-0.0001292901
168.5011,-0.0001292072
168.6011,-0.0001290876
168.7011,-0.0001290085
168.8011,-0.0001289539
168.9011,-0.0001288983
169.0011,-0.0001288343
169.1011,-0.0001288004
169.2011,-0.0001288296
169.3011,-0.0001288258
169.4011,-0.0001287816
169.5011,-0.0001287712
169.6012,-0.0001287251
169.7012,-0.0001286535
169.8012,-0.0001286271
169.9012,-0.0001285734
170.0012,-0.0001284925
170.1012,-0.0001284218
170.2012,-0.0001283465
170.3012,-0.0001282796
170.4012,-0.0001281741
170.5012,-0.0001280687
170.6012,-0.0001280037
170.7012,-0.0001279039
170.8012,-0.0001277767
170.9012,-0.0001277042
171.0012,-0.000127611
171.1012,-0.0001274688
171.2012,-0.0001273755
171.3013,-0.0001273096
171.4013,-0.0001271816
171.5013,-0.0001270591
171.6013,-0.0001269584
171.7013,-0.0001268378
171.8013,-0.000126705
171.9013,-0.0001265977
172.0013,-0.0001265007
172.1013,-0.0001263905
172.2013,-0.0001262973
172.3013,-0.0001261843
172.4013,-0.0001260694
172.5013,-0.0001259498
172.6013,-0.0001258302
172.7013,-0.0001257087
172.8013,-0.0001256409
172.9014,-0.0001255307
173.0014,-0.0001253668
173.1014,-0.0001252811
173.2014,-0.0001252124
173.3014,-0.0001250758
173.4014,-0.0001249421
173.5014,-0.0001248338
173.6014,-0.0001247481
173.7014,-0.0001246219
173.8014,-0.0001245052
173.9014,-0.0001244223
174.0014,-0.0001243074
174.1014,-0.0001242142
174.2014,-0.0001240964
174.3014,-0.0001239797
174.4014,-0.0001238864
174.5014,-0.0001237857
174.6015,-0.0001236557
174.7015,-0.0001235625
174.8015,-0.0001234702
174.9015,-0.0001233449
175.0015,-0.0001232216
175.1015,-0.0001231321
175.2015,-0.0001230295
175.3015,-0.0001229042
175.4015,-0.0001228326
175.5015,-0.0001227328
175.6015,-0.0001225765
175.7015,-0.0001225059
175.8015,-0.0001224277
175.9015,-0.0001222996
176.0015,-0.000122213
176.1015,-0.000122132
176.2016,-0.000121987
176.3016,-0.0001218862
176.4016,-0.0001218099
176.5016,-0.0001217195
176.6016,-0.000121615
176.7016,-0.000121533
176.8016,-0.000121421
176.9016,-0.0001212891
177.0016,-0.0001211997
177.1016,-0.0001210961
177.2016,-0.000120984
177.3016,-0.000120871
177.4016,-0.0001208117
177.5016,-0.0001207137
177.6016,-0.0001206299
177.7016,-0.0001205358
177.8017,-0.0001204595
177.9017,-0.0001203418
178.0017,-0.0001202495
178.1017,-0.0001201741
178.2017,-0.0001201091
178.3017,-0.0001200988
178.4017,-0.0001200357
178.5017,-0.0001199312
178.6017,-0.0001199528
178.7017,-0.0001199067
178.8017,-0.00011982
178.9017,-0.0001198182
179.0017,-0.0001197861
179.1017,-0.0001197146
179.2017,-0.0001196392
179.3017,-0.0001195968
179.4017,-0.0001195912
179.5018,-0.0001195338
179.6018,-0.0001195046
179.7018,-0.0001194867
179.8018,-0.0001194575
179.9018,-0.0001194735
180.0018,-0.0001194405
180.1018,-0.0001194226
180.2018,-0.0001193812
180.3018,-0.0001193087
180.4018,-0.000119271
180.5018,-0.0001192286
180.6018,-0.0001191627
180.7018,-0.0001191043
180.8018,-0.0001190676
180.9018,-0.0001190516
181.0018,-0.0001189612
181.1019,-0.0001188981
181.2019,-0.0001188566
181.3019,-0.0001187305
181.4019,-0.0001186514
181.5019,-0.000118608
181.6019,-0.0001184922
181.7019,-0.0001183952
181.8019,-0.0001183265
181.9019,-0.0001182502
182.0019,-0.0001181249
182.1019,-0.000118011
182.2019,-0.0001179582
182.3019,-0.0001178226
182.4019,-0.0001176804
182.5019,-0.0001176164
182.6019,-0.0001175307
182.702,-0.0001173791
182.802,-0.0001172444
182.902,-0.0001171879
183.002,-0.0001170589
183.102,-0.0001169082
183.202,-0.0001168263
183.302,-0.0001166973
183.402,-0.0001165513
183.502,-0.0001164788
183.602,-0.0001163846
183.702,-0.000116232
183.802,-0.0001161171
183.902,-0.0001160456
184.002,-0.0001159053
184.102,-0.0001157725
184.202,-0.0001157442
184.302,-0.0001156378
184.4021,-0.0001154928
184.5021,-0.0001154222
184.6021,-0.0001153647
184.7021,-0.0001152008
184.8021,-0.0001151076
184.9021,-0.0001150492
185.0021,-0.0001149061
185.1021,-0.0001147874
185.2021,-0.0001147149
185.3021,-0.0001145944
185.4021,-0.0001144785
185.5021,-0.0001144107
185.6021,-0.0001142977
185.7021,-0.0001142054
185.8021,-0.0001141273
185.9021,-0.0001140491
186.0022,-0.0001139107
186.1022,-0.0001138363
186.2022,-0.0001137591
186.3022,-0.0001136526
186.4022,-0.0001136385
186.5022,-0.0001135443
186.6022,-0.0001134163
186.7022,-0.0001133475
186.8022,-0.0001132486
186.9022,-0.0001131601
187.0022,-0.0001130518
187.1022,-0.0001129482
187.2022,-0.0001128861
187.3022,-0.0001127928
187.4022,-0.0001127119
187.5022,-0.0001126374
187.6022,-0.000112548
187.7023,-0.0001124717
187.8023,-0.0001123757
187.9023,-0.0001122645
188.0023,-0.0001122137
188.1023,-0.0001120941
188.2023,-0.0001119726
188.3023,-0.0001119538
188.4023,-0.000111869
188.5023,-0.0001117616
188.6023,-0.0001116948
188.7023,-0.0001116355
188.8023,-0.0001115309
188.9023,-0.0001114113
189.0023,-0.0001113737
189.1023,-0.0001112701
189.2023,-0.0001111787
189.3024,-0.0001111458
189.4024,-0.0001110723
189.5024,-0.0001109678
189.6024,-0.0001109442
189.7024,-0.0001108792
189.8024,-0.0001107587
189.9024,-0.000110722
190.0024,-0.0001106824
190.1024,-0.0001105713
190.2024,-0.0001105091
190.3024,-0.0001104498
190.4024,-0.000110398
190.5024,-0.0001103246
190.6024,-0.0001102775
190.7024,-0.0001102003
190.8024,-0.0001101146
190.9025,-0.0001101051
191.0025,-0.000110075
191.1025,-0.0001099818
191.2025,-0.0001099253
191.3025,-0.000109898
191.4025,-0.0001098367
191.5025,-0.0001097303
191.6025,-0.0001096898
191.7025,-0.0001096503
191.8025,-0.0001095599
191.9025,-0.0001094742
192.0025,-0.0001094478
192.1025,-0.000109364
192.2025,-0.0001092849
192.3025,-0.0001092227
192.4025,-0.000109153
192.5025,-0.0001090636
192.6026,-0.0001089835
192.7026,-0.0001089025
192.8026,-0.0001088197
192.9026,-0.0001087556
193.0026,-0.0001086765
193.1026,-0.0001085852
193.2026,-0.0001085136
193.3026,-0.000108426
193.4026,-0.0001083036
193.5026,-0.0001082838
193.6026,-0.0001081962
193.7026,-0.000108087
193.8026,-0.0001080164
193.9026,-0.0001079297
194.0026,-0.000107861
194.1026,-0.0001077292
194.2027,-0.0001076604
194.3027,-0.000107634
194.4027,-0.0001074965
194.5027,-0.0001074014
194.6027,-0.0001073572
194.7027,-0.0001072498
194.8027,-0.000107165
194.9027,-0.0001071038
195.0027,-0.0001070153
195.1027,-0.0001069362
195.2027,-0.0001068665
195.3027,-0.000106762
195.4027,-0.0001066951
195.5027,-0.0001065925
195.6027,-0.0001065134
195.7027,-0.0001064286
195.8027,-0.000106342
195.9028,-0.0001062704
196.0028,-0.0001061781
196.1028,-0.0001060971
196.2028,-0.0001060039
196.3028,-0.0001059314
196.4028,-0.0001058721
196.5028,-0.0001057647
196.6028,-0.0001056847
196.7028,-0.0001056479
196.8028,-0.0001055528
196.9028,-0.0001054436
197.0028,-0.0001053908
197.1028,-0.0001053306
197.2028,-0.0001051959
197.3028,-0.0001051121
197.4028,-0.0001050584
197.5029,-0.0001049633
197.6029,-0.000104887
197.7029,-0.0001048192
197.8029,-0.0001047486
197.9029,-0.0001046827
198.0029,-0.0001045979
198.1029,-0.0001045178
198.2029,-0.0001044482
198.3029,-0.0001043662
198.4029,-0.0001042928
198.5029,-0.0001042099
198.6029,-0.0001041722
198.7029,-0.0001040639
198.8029,-0.0001039867
198.9029,-0.0001039133
199.0029,-0.0001038304
199.103,-0.0001037381
199.203,-0.0001036665
199.303,-0.0001036128
199.403,-0.0001035102
199.503,-0.0001034509
199.603,-0.0001034
199.703,-0.0001032964
199.803,-0.0001032164
199.903,-0.0001031599
200.003,-0.0001031015
200.103,-0.0001029781
200.203,-0.0001029018
200.303,-0.0001028915
200.403,-0.0001027851
200.503,-0.0001027041
200.603,-0.0001026353
200.703,-0.0001025703
200.8031,-0.0001024837
200.9031,-0.0001024178
201.0031,-0.000102349
201.1031,-0.0001022568
201.2031,-0.000102188
201.3031,-0.0001021146
201.4031,-0.0001020128
201.5031,-0.0001019921
201.6031,-0.0001019092
201.7031,-0.0001017962
201.8031,-0.0001017492
201.9031,-0.000101687
202.0031,-0.0001015693
202.1031,-0.0001015382
202.2031,-0.0001014977
202.3031,-0.0001013951
202.4032,-0.0001012981
202.5032,-0.000101283
202.6032,-0.0001011917
202.7032,-0.0001010824
202.8032,-0.0001010824
202.9032,-0.0001010165
203.0032,-0.0001008837
203.1032,-0.0001008526
203.2032,-0.0001008263
203.3032,-0.0001007151
203.4032,-0.0001006954
203.5032,-0.0001006633
203.6032,-0.0001005635
203.7032,-0.0001004882
203.8032,-0.0001004467
203.9032,-0.0001003648
204.0033,-0.0001003648
204.1033,-0.0001003243
204.2033,-0.0001002603
204.3033,-0.0001001783
204.4033,-0.0001001529
204.5033,-0.000100103
204.6033,-0.0001000258
204.7033,-9.998246E-05
204.8033,-9.992597E-05
204.9033,-9.985062E-05
205.0033,-9.978941E-05
205.1033,-9.972914E-05
205.2033,-9.966792E-05
205.3033,-9.960389E-05
205.4033,-9.955869E-05
205.5033,-9.949088E-05
205.6033,-9.944474E-05
205.7034,-9.940707E-05
205.8034,-9.933927E-05
205.9034,-9.924509E-05
206.0034,-9.922531E-05
206.1034,-9.916411E-05
206.2034,-9.905581E-05
206.3034,-9.90106E-05
206.4034,-9.898329E-05
206.5034,-9.890795E-05
206.6034,-9.880248E-05
206.7034,-9.878176E-05
206.8034,-9.872055E-05
206.9034,-9.864709E-05
207.0034,-9.860378E-05
207.1034,-9.854633E-05
207.2034,-9.845121E-05
207.3035,-9.839753E-05
207.4035,-9.83335E-05
207.5035,-9.824968E-05
207.6035,-9.823273E-05
207.7035,-9.814514E-05
207.8035,-9.804063E-05
207.9035,-9.800388E-05
208.0035,-9.795775E-05
208.1035,-9.787487E-05
208.2035,-9.777975E-05
208.3035,-9.77515E-05
208.4035,-9.769783E-05
208.5035,-9.760742E-05
208.6035,-9.757729E-05
208.7035,-9.754339E-05
208.8035,-9.744168E-05
208.9035,-9.739553E-05
209.0036,-9.735221E-05
209.1036,-9.72392E-05
209.2036,-9.717517E-05
209.3036,-9.712431E-05
209.4036,-9.703673E-05
209.5036,-9.696798E-05
209.6036,-9.691713E-05
209.7036,-9.685874E-05
209.8036,-9.678811E-05
209.9036,-9.673538E-05
210.0036,-9.667416E-05
210.1036,-9.659506E-05
210.2036,-9.654891E-05
210.3036,-9.646321E-05
210.4036,-9.639542E-05
210.5036,-9.637469E-05
210.6037,-9.63116E-05
210.7037,-9.623155E-05
210.8037,-9.619389E-05
210.9037,-9.609594E-05
211.0037,-9.602532E-05
211.1037,-9.5998E-05
211.2037,-9.591795E-05
211.3037,-9.582473E-05
211.4037,-9.5788E-05
211.5037,-9.573714E-05
211.6037,-9.565239E-05
211.7037,-9.559399E-05
211.8037,-9.552431E-05
211.9037,-9.546686E-05
212.0037,-9.541601E-05
212.1037,-9.537175E-05
212.2038,-9.529359E-05
212.3038,-9.521542E-05
212.4038,-9.517775E-05
212.5038,-9.509677E-05
212.6038,-9.501389E-05
212.7038,-9.496398E-05
212.8038,-9.491312E-05
212.9038,-9.48246E-05
213.0038,-9.473891E-05
213.1038,-9.471066E-05
213.2038,-9.466169E-05
213.3038,-9.457787E-05
213.4038,-9.451102E-05
213.5038,-9.446486E-05
213.6038,-9.439047E-05
213.7038,-9.431795E-05
213.8038,-9.425392E-05
213.9039,-9.420401E-05
214.0039,-9.413715E-05
214.1039,-9.405521E-05
214.2039,-9.396763E-05
214.3039,-9.394786E-05
214.4039,-9.387157E-05
214.5039,-9.378588E-05
214.6039,-9.372654E-05
214.7039,-9.369077E-05
214.8039,-9.356645E-05
214.9039,-9.352973E-05
215.0039,-9.352501E-05
215.1039,-9.343083E-05
215.2039,-9.331784E-05
215.3039,-9.330747E-05
215.4039,-9.32472E-05
215.504,-9.317187E-05
215.604,-9.312101E-05
215.704,-9.305227E-05
215.804,-9.297315E-05
215.904,-9.291289E-05
216.004,-9.283378E-05
216.104,-9.276033E-05
216.204,-9.273209E-05
216.304,-9.262943E-05
216.404,-9.255597E-05
216.504,-9.250606E-05
216.604,-9.244673E-05
216.704,-9.23648E-05
216.804,-9.229228E-05
216.904,-9.226122E-05
217.004,-9.217834E-05
217.104,-9.210771E-05
217.2041,-9.203896E-05
217.3041,-9.197021E-05
217.4041,-9.191089E-05
217.5041,-9.183649E-05
217.6041,-9.176492E-05
217.7041,-9.170465E-05
217.8041,-9.16698E-05
217.9041,-9.157186E-05
218.0041,-9.149181E-05
218.1041,-9.143719E-05
218.2041,-9.139765E-05
218.3041,-9.129876E-05
218.4041,-9.123378E-05
218.5041,-9.118858E-05
218.6041,-9.110099E-05
218.7041,-9.103319E-05
218.8042,-9.101247E-05
218.9042,-9.092301E-05
219.0042,-9.085992E-05
219.1042,-9.082413E-05
219.2042,-9.074032E-05
219.3042,-9.067627E-05
219.4042,-9.064426E-05
219.5042,-9.056139E-05
219.6042,-9.046063E-05
219.7042,-9.045686E-05
219.8042,-9.041541E-05
219.9042,-9.030524E-05
220.0042,-9.025532E-05
220.1042,-9.022707E-05
220.2042,-9.012913E-05
220.3042,-9.0099E-05
220.4043,-9.00472E-05
220.5043,-8.995585E-05
220.6043,-8.990782E-05
220.7043,-8.985415E-05
220.8043,-8.98014E-05
220.9043,-8.971477E-05
221.0043,-8.968934E-05
221.1043,-8.963567E-05
221.2043,-8.954432E-05
221.3043,-8.946992E-05
221.4043,-8.94379E-05
221.5043,-8.93927E-05
221.6043,-8.93023E-05
221.7043,-8.925144E-05
221.8043,-8.918739E-05
221.9043,-8.910358E-05
222.0043,-8.903672E-05
222.1044,-8.89934E-05
222.2044,-8.892466E-05
222.3044,-8.886438E-05
222.4044,-8.882295E-05
222.5044,-8.874101E-05
222.6044,-8.870805E-05
222.7044,-8.862707E-05
222.8044,-8.856962E-05
222.9044,-8.85329E-05
223.0044,-8.847263E-05
223.1044,-8.83907E-05
223.2044,-8.834832E-05
223.3044,-8.832854E-05
223.4044,-8.824567E-05
223.5044,-8.81628E-05
223.6044,-8.815055E-05
223.7045,-8.807616E-05
223.8045,-8.801306E-05
223.9045,-8.798575E-05
224.0045,-8.792642E-05
224.1045,-8.786521E-05
224.2045,-8.783319E-05
224.3045,-8.776067E-05
224.4045,-8.772207E-05
224.5045,-8.767875E-05
224.6045,-8.762601E-05
224.7045,-8.756857E-05
224.8045,-8.75017E-05
224.9045,-8.74678E-05
225.0045,-8.741223E-05
225.1045,-8.736797E-05
225.2045,-8.73077E-05
225.3046,-8.724649E-05
225.4046,-8.720883E-05
225.5046,-8.718528E-05
225.6046,-8.718434E-05
225.7046,-8.710241E-05
225.8046,-8.702424E-05
225.9046,-8.702707E-05
226.0046,-8.696115E-05
226.1046,-8.6899E-05
226.2046,-8.692631E-05
226.3046,-8.691312E-05
226.4046,-8.681989E-05
226.5046,-8.683024E-05
226.6046,-8.675868E-05
226.7046,-8.670312E-05
226.8046,-8.668993E-05
226.9046,-8.664096E-05
227.0047,-8.658069E-05
227.1047,-8.654208E-05
227.2047,-8.654208E-05
227.3047,-8.646957E-05
227.4047,-8.644885E-05
227.5047,-8.641306E-05
227.6047,-8.639423E-05
227.7047,-8.632641E-05
227.8047,-8.629816E-05
227.9047,-8.628592E-05
228.0047,-8.62266E-05
228.1047,-8.615879E-05
228.2047,-8.613337E-05
228.3047,-8.608063E-05
228.4047,-8.603542E-05
228.5047,-8.598081E-05
228.6048,-8.5913E-05
228.7048,-8.589134E-05
228.8048,-8.583954E-05
228.9048,-8.574066E-05
229.0048,-8.573125E-05
229.1048,-8.57077E-05
229.2048,-8.564367E-05
229.3048,-8.555796E-05
229.4048,-8.557869E-05
229.5048,-8.55269E-05
229.6048,-8.540918E-05
229.7048,-8.541576E-05
229.8048,-8.535455E-05
229.9048,-8.526321E-05
230.0048,-8.523025E-05
230.1048,-8.52001E-05
230.2048,-8.513231E-05
230.3049,-8.509652E-05
230.4049,-8.506827E-05
230.5049,-8.501742E-05
230.6049,-8.491476E-05
230.7049,-8.487992E-05
230.8049,-8.484414E-05
230.9049,-8.478009E-05
231.0049,-8.473678E-05
231.1049,-8.468216E-05
231.2049,-8.466144E-05
231.3049,-8.460494E-05
231.4049,-8.453431E-05
231.5049,-8.449381E-05
231.6049,-8.445237E-05
231.7049,-8.439399E-05
231.8049,-8.433843E-05
231.905,-8.426498E-05
232.005,-8.418963E-05
232.105,-8.41256E-05
232.205,-8.40851E-05
232.305,-8.401259E-05
232.405,-8.397303E-05
232.505,-8.391748E-05
232.605,-8.385909E-05
232.705,-8.381859E-05
232.805,-8.38054E-05
232.905,-8.374325E-05
233.005,-8.36698E-05
233.105,-8.363778E-05
233.205,-8.35794E-05
233.305,-8.350405E-05
233.405,-8.350029E-05
233.5051,-8.344002E-05
233.6051,-8.339858E-05
233.7051,-8.335242E-05
233.8051,-8.327992E-05
233.9051,-8.324602E-05
234.0051,-8.319046E-05
234.1051,-8.313019E-05
234.2051,-8.310664E-05
234.3051,-8.305202E-05
234.4051,-8.295784E-05
234.5051,-8.29795E-05
234.6051,-8.290606E-05
234.7051,-8.280999E-05
234.8051,-8.279116E-05
234.9051,-8.276574E-05
235.0051,-8.26725E-05
235.1051,-8.262353E-05
235.2052,-8.261035E-05
235.3052,-8.253878E-05
235.4052,-8.249829E-05
235.5052,-8.247662E-05
235.6052,-8.24333E-05
235.7052,-8.235326E-05
235.8052,-8.238433E-05
235.9052,-8.228546E-05
236.0052,-8.22299E-05
236.1052,-8.225909E-05
236.2052,-8.220258E-05
236.3052,-8.208674E-05
236.4052,-8.20472E-05
236.5052,-8.20293E-05
236.6052,-8.191911E-05
236.7052,-8.18984E-05
236.8053,-8.188239E-05
236.9053,-8.182494E-05
237.0053,-8.177786E-05
237.1053,-8.175055E-05
237.2053,-8.1727E-05
237.3053,-8.167615E-05
237.4053,-8.163754E-05
237.5053,-8.161682E-05
237.6053,-8.154901E-05
237.7053,-8.149722E-05
237.8053,-8.145767E-05
237.9053,-8.140681E-05
238.0053,-8.137856E-05
238.1053,-8.131264E-05
238.2053,-8.12552E-05
238.3053,-8.123353E-05
238.4053,-8.119587E-05
238.5054,-8.112148E-05
238.6054,-8.107062E-05
238.7054,-8.105555E-05
238.8054,-8.103013E-05
238.9054,-8.096325E-05
239.0054,-8.097268E-05
239.1054,-8.092183E-05
239.2054,-8.084931E-05
239.3054,-8.084366E-05
239.4054,-8.080788E-05
239.5054,-8.074102E-05
239.6054,-8.070522E-05
239.7054,-8.071464E-05
239.8054,-8.070711E-05
239.9054,-8.064495E-05
240.0054,-8.063365E-05
240.1055,-8.059221E-05
240.2055,-8.053948E-05
240.3055,-8.051594E-05
240.4055,-8.047356E-05
240.5055,-8.043495E-05
240.6055,-8.040293E-05
240.7055,-8.03502E-05
240.8055,-8.035114E-05
240.9055,-8.029745E-05
241.0055,-8.023153E-05
241.1055,-8.019104E-05
241.2055,-8.013831E-05
241.3055,-8.009781E-05
241.4055,-8.004884E-05
241.5055,-7.997444E-05
241.6055,-7.995089E-05
241.7056,-7.991888E-05
241.8056,-7.981717E-05
241.9056,-7.97569E-05
242.0056,-7.972959E-05
242.1056,-7.970133E-05
242.2056,-7.961565E-05
242.3056,-7.956386E-05
242.4056,-7.95243E-05
242.5056,-7.948663E-05
242.6056,-7.943672E-05
242.7056,-7.933312E-05
242.8056,-7.928227E-05
242.9056,-7.927285E-05
243.0056,-7.917303E-05
243.1056,-7.911276E-05
243.2056,-7.913253E-05
243.3056,-7.907321E-05
243.4057,-7.895831E-05
243.5057,-7.893854E-05
243.6057,-7.893288E-05
243.7057,-7.885002E-05
243.8057,-7.877279E-05
243.9057,-7.87662E-05
244.0057,-7.870122E-05
244.1057,-7.862212E-05
244.2057,-7.858633E-05
244.3057,-7.853266E-05
244.4057,-7.846014E-05
244.5057,-7.842247E-05
244.6057,-7.836785E-05
244.7057,-7.832358E-05
244.8057,-7.827744E-05
244.9057,-7.818986E-05
245.0058,-7.814748E-05
245.1058,-7.812488E-05
245.2058,-7.804201E-05
245.3058,-7.797986E-05
245.4058,-7.797797E-05
245.5058,-7.792994E-05
245.6058,-7.786402E-05
245.7058,-7.781505E-05
245.8058,-7.780469E-05
245.9058,-7.771146E-05
246.0058,-7.767096E-05
246.1058,-7.760787E-05
246.2058,-7.754289E-05
246.3058,-7.750804E-05
246.4058,-7.74798E-05
246.5058,-7.739221E-05
246.6059,-7.734984E-05
246.7059,-7.733665E-05
246.8059,-7.729899E-05
246.9059,-7.725566E-05
247.0059,-7.722271E-05
247.1059,-7.716714E-05
247.2059,-7.708615E-05
247.3059,-7.710028E-05
247.4059,-7.70174E-05
247.5059,-7.69383E-05
247.6059,-7.694207E-05
247.7059,-7.688745E-05
247.8059,-7.682435E-05
247.9059,-7.678574E-05
248.0059,-7.673394E-05
248.1059,-7.666897E-05
248.2059,-7.663883E-05
248.306,-7.658704E-05
248.406,-7.65164E-05
248.506,-7.649003E-05
248.606,-7.646932E-05
248.706,-7.639587E-05
248.806,-7.632711E-05
248.906,-7.630922E-05
249.006,-7.625931E-05
249.106,-7.617738E-05
249.206,-7.615572E-05
249.306,-7.614254E-05
249.406,-7.605591E-05
249.506,-7.600128E-05
249.606,-7.600881E-05
249.706,-7.593064E-05
249.806,-7.588168E-05
249.9061,-7.588451E-05
250.0061,-7.582235E-05
250.1061,-7.574325E-05
250.2061,-7.575737E-05
250.3061,-7.568957E-05
250.4061,-7.563306E-05
250.5061,-7.557278E-05
250.6061,-7.55436E-05
250.7061,-7.547485E-05
250.8061,-7.539857E-05
250.9061,-7.539104E-05
251.0061,-7.535808E-05
251.1061,-7.527991E-05
251.2061,-7.527332E-05
251.3061,-7.522906E-05
251.4061,-7.517914E-05
251.5061,-7.519893E-05
251.6062,-7.514335E-05
251.7062,-7.510569E-05
251.8062,-7.510475E-05
251.9062,-7.508121E-05
252.0062,-7.500021E-05
252.1062,-7.493619E-05
252.2062,-7.493806E-05
252.3062,-7.490793E-05
252.4062,-7.482977E-05
252.5062,-7.483353E-05
252.6062,-7.479209E-05
252.7062,-7.473653E-05
252.8062,-7.471864E-05
252.9062,-7.468285E-05
253.0062,-7.466025E-05
253.1062,-7.458303E-05
253.2063,-7.45576E-05
253.3063,-7.455948E-05
253.4063,-7.449733E-05
253.5063,-7.444742E-05
253.6063,-7.445213E-05
253.7063,-7.43928E-05
253.8063,-7.436926E-05
253.9063,-7.433064E-05
254.0063,-7.429486E-05
254.1063,-7.424401E-05
254.2063,-7.41828E-05
254.3063,-7.418467E-05
254.4063,-7.413194E-05
254.5063,-7.409428E-05
254.6063,-7.404059E-05
254.7063,-7.401046E-05
254.8064,-7.397751E-05
254.9064,-7.392006E-05
255.0064,-7.387485E-05
255.1064,-7.389369E-05
255.2064,-7.388238E-05
255.3064,-7.378255E-05
255.4064,-7.377126E-05
255.5064,-7.377691E-05
255.6064,-7.369969E-05
255.7064,-7.368744E-05
255.8064,-7.370439E-05
255.9064,-7.364883E-05
256.0064,-7.355278E-05
256.1064,-7.35443E-05
256.2064,-7.351887E-05
256.3064,-7.343129E-05
256.4064,-7.341905E-05
256.5064,-7.339551E-05
256.6064,-7.332299E-05
256.7065,-7.33004E-05
256.8065,-7.326367E-05
256.9065,-7.322694E-05
257.0065,-7.316573E-05
257.1065,-7.315537E-05
257.2065,-7.312994E-05
257.3065,-7.305743E-05
257.4065,-7.307061E-05
257.5065,-7.304424E-05
257.6065,-7.299998E-05
257.7065,-7.298114E-05
257.8065,-7.291428E-05
257.9065,-7.286437E-05
258.0065,-7.288321E-05
258.1065,-7.281728E-05
258.2065,-7.275136E-05
258.3065,-7.276831E-05
258.4066,-7.272782E-05
258.5066,-7.264777E-05
258.6066,-7.2644E-05
258.7066,-7.261575E-05
258.8066,-7.253853E-05
258.9066,-7.252346E-05
259.0066,-7.25357E-05
259.1066,-7.249804E-05
259.2066,-7.242552E-05
259.3066,-7.243118E-05
259.4066,-7.236996E-05
259.5066,-7.22984E-05
259.6066,-7.224377E-05
259.7066,-7.223718E-05
259.8066,-7.217408E-05
259.9066,-7.212794E-05
260.0067,-7.212606E-05
260.1067,-7.207049E-05
260.2067,-7.199986E-05
260.3067,-7.197067E-05
260.4067,-7.194618E-05
260.5067,-7.187367E-05
260.6067,-7.184353E-05
260.7067,-7.181434E-05
260.8067,-7.175124E-05
260.9067,-7.170981E-05
261.0067,-7.169286E-05
261.1067,-7.1642E-05
261.2067,-7.158078E-05
261.3067,-7.154972E-05
261.4067,-7.150828E-05
261.5067,-7.146307E-05
261.6068,-7.142164E-05
261.7068,-7.138302E-05
261.8068,-7.133029E-05
261.9068,-7.130581E-05
262.0068,-7.123423E-05
262.1068,-7.117209E-05
262.2068,-7.116171E-05
262.3068,-7.111463E-05
262.4068,-7.104777E-05
262.5068,-7.100446E-05
262.6068,-7.096677E-05
262.7068,-7.092817E-05
262.8068,-7.085377E-05
262.9068,-7.081045E-05
263.0068,-7.075395E-05
263.1068,-7.070122E-05
263.2068,-7.067108E-05
263.3069,-7.060328E-05
263.4069,-7.055713E-05
263.5069,-7.052794E-05
263.6069,-7.047803E-05
263.7069,-7.042528E-05
263.8069,-7.038761E-05
263.9069,-7.033489E-05
264.0069,-7.025577E-05
264.1069,-7.025107E-05
264.2069,-7.018891E-05
264.3069,-7.011357E-05
264.4069,-7.007026E-05
264.5069,-7.002788E-05
264.6069,-6.997232E-05
264.7069,-6.991487E-05
264.8069,-6.989603E-05
264.907,-6.981033E-05
265.007,-6.974913E-05
265.107,-6.976231E-05
265.207,-6.968979E-05
265.307,-6.961257E-05
265.407,-6.958902E-05
265.507,-6.954665E-05
265.607,-6.950898E-05
265.707,-6.946284E-05
265.807,-6.941575E-05
265.907,-6.935924E-05
266.007,-6.931121E-05
266.107,-6.92726E-05
266.207,-6.921045E-05
266.307,-6.918126E-05
266.407,-6.9137E-05
266.507,-6.910216E-05
266.6071,-6.903811E-05
266.7071,-6.904E-05
266.8071,-6.898161E-05
266.9071,-6.890533E-05
267.0071,-6.890157E-05
267.1071,-6.884883E-05
267.2071,-6.879703E-05
267.3071,-6.87443E-05
267.4071,-6.869721E-05
267.5071,-6.865859E-05
267.6071,-6.865671E-05
267.7071,-6.859927E-05
267.8071,-6.854277E-05
267.9071,-6.850133E-05
268.0071,-6.849568E-05
268.1071,-6.84241E-05
268.2072,-6.836195E-05
268.3072,-6.836854E-05
268.4072,-6.832994E-05
268.5072,-6.825554E-05
268.6072,-6.822916E-05
268.7072,-6.818208E-05
268.8072,-6.811052E-05
268.9072,-6.808132E-05
269.0072,-6.803329E-05
269.1072,-6.798055E-05
269.2072,-6.794665E-05
269.3072,-6.794288E-05
269.4072,-6.787319E-05
269.5072,-6.783834E-05
269.6072,-6.780821E-05
269.7072,-6.773758E-05
269.8073,-6.771216E-05
269.9073,-6.76905E-05
270.0073,-6.764811E-05
270.1073,-6.756431E-05
270.2073,-6.757843E-05
270.3073,-6.751157E-05
270.4073,-6.745318E-05
270.5073,-6.743529E-05
270.6073,-6.740139E-05
270.7073,-6.734017E-05
270.8073,-6.731946E-05
270.9073,-6.731004E-05
271.0073,-6.726766E-05
271.1073,-6.719986E-05
271.2073,-6.721398E-05
271.3073,-6.712641E-05
271.4073,-6.708214E-05
271.5074,-6.707931E-05
271.6074,-6.705294E-05
271.7074,-6.696631E-05
271.8074,-6.693428E-05
271.9074,-6.691922E-05
272.0074,-6.683164E-05
272.1074,-6.682223E-05
272.2074,-6.682034E-05
272.3074,-6.675913E-05
272.4074,-6.668285E-05
272.5074,-6.671581E-05
272.6074,-6.669886E-05
272.7074,-6.66367E-05
272.8074,-6.661692E-05
272.9074,-6.660185E-05
273.0074,-6.65218E-05
273.1075,-6.650486E-05
273.2075,-6.647284E-05
273.3075,-6.641351E-05
273.4075,-6.636926E-05
273.5075,-6.636171E-05
273.6075,-6.631369E-05
273.7075,-6.627979E-05
273.8075,-6.625342E-05
273.9075,-6.621669E-05
274.0075,-6.61809E-05
274.1075,-6.612722E-05
274.2075,-6.612063E-05
274.3075,-6.606695E-05
274.4075,-6.605094E-05
274.5075,-6.601893E-05
274.6075,-6.599443E-05
274.7076,-6.595583E-05
274.8076,-6.596242E-05
274.9076,-6.592193E-05
275.0076,-6.5856E-05
275.1076,-6.586166E-05
275.2076,-6.582775E-05
275.3076,-6.574018E-05
275.4076,-6.581363E-05
275.5076,-6.575713E-05
275.6076,-6.568273E-05
275.7076,-6.569686E-05
275.8076,-6.566012E-05
275.9076,-6.56008E-05
276.0076,-6.557348E-05
276.1076,-6.557442E-05
276.2076,-6.549721E-05
276.3076,-6.544259E-05
276.4077,-6.548967E-05
276.5077,-6.541904E-05
276.6077,-6.536159E-05
276.7077,-6.535501E-05
276.8077,-6.535972E-05
276.9077,-6.530792E-05
277.0077,-6.525518E-05
277.1077,-6.527214E-05
277.2077,-6.521093E-05
277.3077,-6.519115E-05
277.4077,-6.512427E-05
277.5077,-6.509603E-05
277.6077,-6.50998E-05
277.7077,-6.503199E-05
277.8077,-6.50075E-05
277.9077,-6.498679E-05
278.0078,-6.496984E-05
278.1078,-6.491051E-05
278.2078,-6.487095E-05
278.3078,-6.486436E-05
278.4078,-6.48088E-05
278.5078,-6.475606E-05
278.6078,-6.478243E-05
278.7078,-6.475606E-05
278.8078,-6.468355E-05
278.9078,-6.46713E-05
279.0078,-6.464683E-05
279.1078,-6.460444E-05
279.2078,-6.458184E-05
279.3078,-6.453475E-05
279.4078,-6.446506E-05
279.5078,-6.444529E-05
279.6078,-6.443305E-05
279.7079,-6.435677E-05
279.8079,-6.433511E-05
279.9079,-6.431063E-05
280.0079,-6.427296E-05
280.1079,-6.423057E-05
280.2079,-6.420704E-05
280.3079,-6.418537E-05
280.4079,-6.413923E-05
280.5079,-6.414489E-05
280.6079,-6.41138E-05
280.7079,-6.406295E-05
280.8079,-6.403376E-05
280.9079,-6.403282E-05
281.0079,-6.400173E-05
281.1079,-6.391604E-05
281.2079,-6.393017E-05
281.308,-6.390474E-05
281.408,-6.381433E-05
281.508,-6.381433E-05
281.608,-6.380303E-05
281.708,-6.375029E-05
281.808,-6.369756E-05
281.908,-6.367119E-05
282.008,-6.36533E-05
282.108,-6.360809E-05
282.208,-6.360433E-05
282.308,-6.356384E-05
282.408,-6.353088E-05
282.508,-6.351863E-05
282.608,-6.344329E-05
282.708,-6.344894E-05
282.808,-6.34254E-05
282.9081,-6.333594E-05
283.0081,-6.332463E-05
283.1081,-6.333123E-05
283.2081,-6.325494E-05
283.3081,-6.321917E-05
283.4081,-6.320127E-05
283.5081,-6.315229E-05
283.6081,-6.309202E-05
283.7081,-6.308355E-05
283.8081,-6.304776E-05
283.9081,-6.296112E-05
284.0081,-6.297149E-05
284.1081,-6.294888E-05
284.2081,-6.288485E-05
284.3081,-6.286036E-05
284.4081,-6.285377E-05
284.5081,-6.279443E-05
284.6082,-6.275112E-05
284.7082,-6.275959E-05
284.8082,-6.270403E-05
284.9082,-6.266824E-05
285.0082,-6.26626E-05
285.1082,-6.260516E-05
285.2082,-6.254959E-05
285.3082,-6.25411E-05
285.4082,-6.249402E-05
285.5082,-6.244505E-05
285.6082,-6.24281E-05
285.7082,-6.236971E-05
285.8082,-6.232263E-05
285.9082,-6.231698E-05
286.0082,-6.228308E-05
286.1082,-6.222846E-05
286.2083,-6.220114E-05
286.3083,-6.219361E-05
286.4083,-6.214652E-05
286.5083,-6.209379E-05
286.6083,-6.210226E-05
286.7083,-6.20307E-05
286.8083,-6.198361E-05
286.9083,-6.197419E-05
287.0083,-6.194688E-05
287.1083,-6.189414E-05
287.2083,-6.185647E-05
287.3083,-6.18593E-05
287.4083,-6.180938E-05
287.5083,-6.171898E-05
287.6083,-6.177737E-05
287.7083,-6.172369E-05
287.8083,-6.164741E-05
287.9084,-6.162858E-05
288.0084,-6.161633E-05
288.1084,-6.155417E-05
288.2084,-6.150332E-05
288.3084,-6.150426E-05
288.4084,-6.146283E-05
288.5084,-6.138278E-05
288.6084,-6.139314E-05
288.7084,-6.136583E-05
288.8084,-6.128578E-05
288.9084,-6.127731E-05
289.0084,-6.124623E-05
289.1084,-6.121233E-05
289.2084,-6.118502E-05
289.3084,-6.111627E-05
289.4084,-6.109273E-05
289.5085,-6.108425E-05
289.6085,-6.10447E-05
289.7085,-6.100609E-05
289.8085,-6.098725E-05
289.9085,-6.099385E-05
290.0085,-6.094017E-05
290.1085,-6.092039E-05
290.2085,-6.094017E-05
290.3085,-6.09025E-05
290.4085,-6.083375E-05
290.5085,-6.083281E-05
290.6085,-6.078667E-05
290.7085,-6.07311E-05
290.8085,-6.072357E-05
290.9085,-6.068778E-05
291.0085,-6.064069E-05
291.1086,-6.058702E-05
291.2086,-6.057007E-05
291.3086,-6.054652E-05
291.4086,-6.05032E-05
291.5086,-6.04693E-05
291.6086,-6.047495E-05
291.7086,-6.039961E-05
291.8086,-6.038737E-05
291.9086,-6.037042E-05
292.0086,-6.031674E-05
292.1086,-6.028849E-05
292.2086,-6.024894E-05
292.3086,-6.021221E-05
292.4086,-6.018113E-05
292.5086,-6.017078E-05
292.6086,-6.010768E-05
292.7086,-6.006624E-05
292.8087,-6.006342E-05
292.9087,-6.001445E-05
293.0087,-5.997677E-05
293.1087,-5.994382E-05
293.2087,-5.99344E-05
293.3087,-5.988449E-05
293.4087,-5.985906E-05
293.5087,-5.984117E-05
293.6087,-5.979031E-05
293.7087,-5.984964E-05
293.8087,-5.980538E-05
293.9087,-5.975265E-05
294.0087,-5.981668E-05
294.1087,-5.977996E-05
294.2087,-5.97291E-05
294.3087,-5.97178E-05
294.4088,-5.968672E-05
294.5088,-5.962645E-05
294.6088,-5.959255E-05
294.7088,-5.959255E-05
294.8088,-5.955865E-05
294.9088,-5.950214E-05
295.0088,-5.950968E-05
295.1088,-5.948708E-05
295.2088,-5.942963E-05
295.3088,-5.944847E-05
295.4088,-5.940326E-05
295.5088,-5.936842E-05
295.6088,-5.932793E-05
295.7088,-5.932322E-05
295.8088,-5.927612E-05
295.9088,-5.922339E-05
296.0089,-5.925636E-05
296.1089,-5.919043E-05
296.2089,-5.9149E-05
296.3089,-5.913581E-05
296.4089,-5.911227E-05
296.5089,-5.908402E-05
296.6089,-5.907743E-05
296.7089,-5.90407E-05
296.8089,-5.898702E-05
296.9089,-5.90294E-05
297.0089,-5.90228E-05
297.1089,-5.896724E-05
297.2089,-5.89663E-05
297.3089,-5.895123E-05
297.4089,-5.891733E-05
297.5089,-5.889661E-05
297.6089,-5.886271E-05
297.709,-5.883069E-05
297.809,-5.881845E-05
297.909,-5.87723E-05
298.009,-5.875347E-05
298.109,-5.872521E-05
298.209,-5.87045E-05
298.309,-5.866118E-05
298.409,-5.863481E-05
298.509,-5.862351E-05
298.609,-5.86075E-05
298.709,-5.854628E-05
298.809,-5.852745E-05
298.909,-5.852745E-05
299.009,-5.847095E-05
299.109,-5.843987E-05
299.209,-5.843234E-05
299.3091,-5.842951E-05
299.4091,-5.836265E-05
299.5091,-5.840126E-05
299.6091,-5.834099E-05
299.7091,-5.829484E-05
299.8091,-5.830897E-05
299.9091,-5.827507E-05
300.0091,-5.822515E-05
300.1091,-5.819502E-05
300.2091,-5.819784E-05
300.3091,-5.816018E-05
300.4091,-5.810179E-05
300.5091,-5.81178E-05
300.6091,-5.806129E-05
300.7091,-5.801044E-05
300.8091,-5.80321E-05
300.9091,-5.800385E-05
301.0092,-5.793134E-05
301.1092,-5.792192E-05
301.2092,-5.792757E-05
301.3092,-5.786636E-05
301.4092,-5.783998E-05
301.5092,-5.782304E-05
301.6092,-5.777312E-05
301.7092,-5.77251E-05
301.8092,-5.773452E-05
301.9092,-5.771662E-05
302.0092,-5.767801E-05
302.1092,-5.768178E-05
302.2092,-5.763846E-05
302.3092,-5.75942E-05
302.4092,-5.759137E-05
302.5092,-5.756218E-05
302.6093,-5.748872E-05
302.7093,-5.750473E-05
302.8093,-5.744917E-05
302.9093,-5.740773E-05
303.0093,-5.737854E-05
303.1093,-5.737854E-05
303.2093,-5.730979E-05
303.3093,-5.727213E-05
303.4093,-5.728719E-05
303.5093,-5.727401E-05
303.6093,-5.720244E-05
303.7093,-5.720244E-05
303.8093,-5.716195E-05
303.9093,-5.710167E-05
304.0093,-5.708095E-05
304.1093,-5.709508E-05
304.2094,-5.702633E-05
304.3094,-5.697547E-05
304.4094,-5.698019E-05
304.5094,-5.695194E-05
304.6094,-5.69331E-05
304.7094,-5.688884E-05
304.8094,-5.68813E-05
304.9094,-5.682763E-05
305.0094,-5.679938E-05
305.1094,-5.676736E-05
305.2094,-5.671839E-05
305.3094,-5.672875E-05
305.4094,-5.667506E-05
305.5094,-5.66487E-05
305.6094,-5.662045E-05
305.7094,-5.656582E-05
305.8094,-5.654229E-05
305.9095,-5.652627E-05
306.0095,-5.647072E-05
306.1095,-5.642551E-05
306.2095,-5.641892E-05
306.3095,-5.638878E-05
306.4095,-5.632757E-05
306.5095,-5.630873E-05
306.6095,-5.631062E-05
306.7095,-5.622963E-05
306.8095,-5.619855E-05
306.9095,-5.621362E-05
307.0095,-5.616183E-05
307.1095,-5.610437E-05
307.2095,-5.61138E-05
307.3095,-5.610626E-05
307.4095,-5.605823E-05
307.5096,-5.606105E-05
307.6096,-5.60328E-05
307.7096,-5.599891E-05
307.8096,-5.598101E-05
307.9096,-5.593863E-05
308.0096,-5.591886E-05
308.1096,-5.589437E-05
308.2096,-5.584258E-05
308.3096,-5.583975E-05
308.4096,-5.578607E-05
308.5096,-5.574464E-05
308.6096,-5.573051E-05
308.7096,-5.573898E-05
308.8096,-5.569943E-05
308.9096,-5.566177E-05
309.0096,-5.561562E-05
309.1096,-5.560526E-05
309.2097,-5.555911E-05
309.3097,-5.552615E-05
309.4097,-5.551768E-05
309.5097,-5.546588E-05
309.6097,-5.543575E-05
309.7097,-5.541221E-05
309.8097,-5.539243E-05
309.9097,-5.535287E-05
310.0097,-5.530861E-05
310.1097,-5.530108E-05
310.2097,-5.524646E-05
310.3097,-5.521538E-05
310.4097,-5.520502E-05
310.5097,-5.517395E-05
310.6097,-5.512121E-05
310.7097,-5.51278E-05
310.8098,-5.507883E-05
310.9098,-5.502986E-05
311.0098,-5.499031E-05
311.1098,-5.497901E-05
311.2098,-5.494605E-05
311.3098,-5.491309E-05
311.4098,-5.489519E-05
311.5098,-5.488484E-05
311.6098,-5.483398E-05
311.7098,-5.482739E-05
311.8098,-5.480008E-05
311.9098,-5.472945E-05
312.0098,-5.470779E-05
312.1098,-5.469272E-05
312.2098,-5.466165E-05
312.3098,-5.462398E-05
312.4099,-5.459384E-05
312.5099,-5.456465E-05
312.6099,-5.45477E-05
312.7099,-5.452227E-05
312.8099,-5.44733E-05
312.9099,-5.445729E-05
313.0099,-5.445635E-05
313.1099,-5.439514E-05
313.2099,-5.434146E-05
313.3099,-5.435464E-05
313.4099,-5.430755E-05
313.5099,-5.425293E-05
313.6099,-5.424728E-05
313.7099,-5.421621E-05
313.8099,-5.416629E-05
313.9099,-5.415405E-05
314.0099,-5.415594E-05
314.11,-5.407024E-05
314.21,-5.40288E-05
314.31,-5.404481E-05
314.41,-5.398925E-05
314.51,-5.397324E-05
314.61,-5.396006E-05
314.71,-5.3961E-05
314.81,-5.391768E-05
314.91,-5.390355E-05
315.01,-5.388284E-05
315.11,-5.381032E-05
315.21,-5.386117E-05
315.31,-5.384328E-05
315.41,-5.379525E-05
315.51,-5.377736E-05
315.61,-5.376229E-05
315.7101,-5.373969E-05
315.8101,-5.366435E-05
315.9101,-5.362762E-05
316.0101,-5.363422E-05
316.1101,-5.35617E-05
316.2101,-5.354852E-05
316.3101,-5.35504E-05
316.4101,-5.350991E-05
316.5101,-5.347601E-05
316.6101,-5.345152E-05
316.7101,-5.341103E-05
316.8101,-5.338466E-05
316.9101,-5.334604E-05
317.0101,-5.333381E-05
317.1101,-5.330367E-05
317.2101,-5.327447E-05
317.3102,-5.326788E-05
317.4102,-5.321985E-05
317.5102,-5.320761E-05
317.6102,-5.318407E-05
317.7102,-5.317465E-05
317.8102,-5.316335E-05
317.9102,-5.313698E-05
318.0102,-5.308142E-05
318.1102,-5.30899E-05
318.2102,-5.303622E-05
318.3102,-5.303151E-05
318.4102,-5.303433E-05
318.5102,-5.302115E-05
318.6102,-5.300608E-05
318.7102,-5.300796E-05
318.8102,-5.30042E-05
318.9102,-5.295523E-05
319.0103,-5.294204E-05
319.1103,-5.292132E-05
319.2103,-5.285823E-05
319.3103,-5.284222E-05
319.4103,-5.282715E-05
319.5103,-5.279325E-05
319.6103,-5.279419E-05
319.7103,-5.278572E-05
319.8103,-5.2765E-05
319.9103,-5.272073E-05
320.0103,-5.272073E-05
320.1103,-5.267836E-05
320.2103,-5.263975E-05
320.3103,-5.263504E-05
320.4103,-5.261715E-05
320.5103,-5.257571E-05
320.6104,-5.256347E-05
320.7104,-5.255028E-05
320.8104,-5.253333E-05
320.9104,-5.247683E-05
321.0104,-5.244952E-05
321.1104,-5.24693E-05
321.2104,-5.241279E-05
321.3104,-5.237606E-05
321.4104,-5.240337E-05
321.5104,-5.237889E-05
321.6104,-5.230826E-05
321.7104,-5.232992E-05
321.8104,-5.233275E-05
321.9104,-5.227153E-05
322.0104,-5.223574E-05
322.1104,-5.223951E-05
322.2104,-5.219431E-05
322.3105,-5.218395E-05
322.4105,-5.215758E-05
322.5105,-5.209919E-05
322.6105,-5.211614E-05
322.7105,-5.209825E-05
322.8105,-5.20248E-05
322.9105,-5.205776E-05
323.0105,-5.200785E-05
323.1105,-5.194098E-05
323.2105,-5.195323E-05
323.3105,-5.194946E-05
323.4105,-5.189672E-05
323.5105,-5.185152E-05
323.6105,-5.188448E-05
323.7105,-5.182986E-05
323.8105,-5.179031E-05
323.9106,-5.177712E-05
324.0106,-5.176205E-05
324.1106,-5.171214E-05
324.2106,-5.170084E-05
324.3106,-5.168012E-05
324.4106,-5.166035E-05
324.5106,-5.163774E-05
324.6106,-5.160761E-05
324.7106,-5.156994E-05
324.8106,-5.156806E-05
324.9106,-5.154075E-05
325.0106,-5.150025E-05
325.1106,-5.14833E-05
325.2106,-5.147294E-05
325.3106,-5.142397E-05
325.4106,-5.138819E-05
325.5107,-5.138913E-05
325.6107,-5.135899E-05
325.7107,-5.131944E-05
325.8107,-5.135993E-05
325.9107,-5.130814E-05
326.0107,-5.127423E-05
326.1107,-5.129213E-05
326.2107,-5.127612E-05
326.3107,-5.123469E-05
326.4107,-5.122338E-05
326.5107,-5.123092E-05
326.6107,-5.121208E-05
326.7107,-5.113204E-05
326.8107,-5.117253E-05
326.9107,-5.113392E-05
327.0107,-5.106894E-05
327.1107,-5.10727E-05
327.2108,-5.106517E-05
327.3108,-5.100866E-05
327.4108,-5.09823E-05
327.5108,-5.09823E-05
327.6108,-5.097759E-05
327.7108,-5.089566E-05
327.8108,-5.093993E-05
327.9108,-5.090696E-05
328.0108,-5.084386E-05
328.1108,-5.084951E-05
328.2108,-5.084575E-05
328.3108,-5.079395E-05
328.4108,-5.076664E-05
328.5108,-5.078265E-05
328.6108,-5.073368E-05
328.7108,-5.072238E-05
328.8109,-5.074969E-05
328.9109,-5.070637E-05
329.0109,-5.06866E-05
329.1109,-5.066776E-05
329.2109,-5.064233E-05
329.3109,-5.061597E-05
329.4109,-5.057924E-05
329.5109,-5.057548E-05
329.6109,-5.054063E-05
329.7109,-5.050107E-05
329.8109,-5.048978E-05
329.9109,-5.047942E-05
330.0109,-5.045022E-05
330.1109,-5.042009E-05
330.2109,-5.04069E-05
330.3109,-5.039655E-05
330.4109,-5.035699E-05
330.511,-5.033439E-05
330.611,-5.032121E-05
330.711,-5.029578E-05
330.811,-5.028071E-05
330.911,-5.024398E-05
331.011,-5.024492E-05
331.111,-5.019784E-05
331.211,-5.016205E-05
331.311,-5.014133E-05
331.411,-5.014416E-05
331.511,-5.00999E-05
331.611,-5.007447E-05
331.711,-5.007729E-05
331.811,-5.001797E-05
331.911,-4.998972E-05
332.011,-5.000761E-05
332.1111,-4.997088E-05
332.2111,-4.991343E-05
332.3111,-4.992379E-05
332.4111,-4.992003E-05
332.5111,-4.988047E-05
332.6111,-4.987388E-05
332.7111,-4.984752E-05
332.8111,-4.980796E-05
332.9111,-4.986823E-05
333.0111,-4.983151E-05
333.1111,-4.979383E-05
333.2111,-4.980231E-05
333.3111,-4.979195E-05
333.4111,-4.972885E-05
333.5111,-4.969213E-05
333.6111,-4.969778E-05
333.7112,-4.968083E-05
333.8112,-4.959984E-05
333.9112,-4.963939E-05
334.0112,-4.960737E-05
334.1112,-4.956405E-05
334.2112,-4.956594E-05
334.3112,-4.955464E-05
334.4112,-4.951414E-05
334.5112,-4.947836E-05
334.6112,-4.948401E-05
334.7112,-4.944916E-05
334.8112,-4.938795E-05
334.9112,-4.943597E-05
335.0112,-4.941149E-05
335.1112,-4.934651E-05
335.2112,-4.934275E-05
335.3112,-4.936346E-05
335.4113,-4.929283E-05
335.5113,-4.925987E-05
335.6113,-4.924857E-05
335.7113,-4.922408E-05
335.8113,-4.918736E-05
335.9113,-4.916287E-05
336.0113,-4.915346E-05
336.1113,-4.911485E-05
336.2113,-4.910637E-05
336.3113,-4.912238E-05
336.4113,-4.907436E-05
336.5113,-4.906211E-05
336.6113,-4.905458E-05
336.7113,-4.900843E-05
336.8113,-4.899619E-05
336.9113,-4.897641E-05
337.0114,-4.894439E-05
337.1114,-4.892367E-05
337.2114,-4.887941E-05
337.3114,-4.885775E-05
337.4114,-4.883704E-05
337.5114,-4.882856E-05
337.6114,-4.880972E-05
337.7114,-4.876358E-05
337.8114,-4.874663E-05
337.9114,-4.873251E-05
338.0114,-4.870425E-05
338.1114,-4.86939E-05
338.2114,-4.865528E-05
338.3114,-4.861385E-05
338.4114,-4.863739E-05
338.5114,-4.860631E-05
338.6115,-4.856864E-05
338.7115,-4.854039E-05
338.8115,-4.853662E-05
338.9115,-4.849519E-05
339.0115,-4.844904E-05
339.1115,-4.845658E-05
339.2115,-4.843398E-05
339.3115,-4.839254E-05
339.4115,-4.838029E-05
339.5115,-4.837559E-05
339.6115,-4.833227E-05
339.7115,-4.830213E-05
339.8115,-4.8272E-05
339.9115,-4.824469E-05
340.0115,-4.825693E-05
340.1115,-4.819948E-05
340.2115,-4.818159E-05
340.3116,-4.819666E-05
340.4116,-4.818159E-05
340.5116,-4.814392E-05
340.6116,-4.812132E-05
340.7116,-4.813262E-05
340.8116,-4.808271E-05
340.9116,-4.802433E-05
341.0116,-4.806387E-05
341.1116,-4.802338E-05
341.2116,-4.798571E-05
341.3116,-4.79584E-05
341.4116,-4.796311E-05
341.5116,-4.793203E-05
341.6116,-4.786611E-05
341.7116,-4.78727E-05
341.8116,-4.787082E-05
341.9117,-4.781243E-05
342.0117,-4.778512E-05
342.1117,-4.781149E-05
342.2117,-4.778606E-05
342.3117,-4.773709E-05
342.4117,-4.775593E-05
342.5117,-4.770413E-05
342.6117,-4.766929E-05
342.7117,-4.764198E-05
342.8117,-4.764575E-05
342.9117,-4.760525E-05
343.0117,-4.756193E-05
343.1117,-4.753462E-05
343.2117,-4.754687E-05
343.3117,-4.755157E-05
343.4117,-4.749884E-05
343.5117,-4.746117E-05
343.6118,-4.747812E-05
343.7118,-4.743292E-05
343.8118,-4.738771E-05
343.9118,-4.738677E-05
344.0118,-4.735946E-05
344.1118,-4.731991E-05
344.2118,-4.729825E-05
344.3118,-4.727941E-05
344.4118,-4.727565E-05
344.5118,-4.725681E-05
344.6118,-4.721914E-05
344.7118,-4.717017E-05
344.8118,-4.718807E-05
344.9118,-4.716923E-05
345.0118,-4.716829E-05
345.1118,-4.713062E-05
345.2119,-4.712214E-05
345.3119,-4.711179E-05
345.4119,-4.708636E-05
345.5119,-4.708918E-05
345.6119,-4.70242E-05
345.7119,-4.701761E-05
345.8119,-4.704022E-05
345.9119,-4.701761E-05
346.0119,-4.69564E-05
346.1119,-4.696864E-05
346.2119,-4.694039E-05
346.3119,-4.689613E-05
346.4119,-4.686411E-05
346.5119,-4.684904E-05
346.6119,-4.683303E-05
346.7119,-4.678877E-05
346.812,-4.676522E-05
346.912,-4.675864E-05
347.012,-4.673038E-05
347.112,-4.671343E-05
347.212,-4.669837E-05
347.312,-4.666729E-05
347.412,-4.662773E-05
347.512,-4.662397E-05
347.612,-4.660137E-05
347.712,-4.656746E-05
347.812,-4.656369E-05
347.912,-4.656181E-05
348.012,-4.653073E-05
348.112,-4.650625E-05
348.212,-4.65119E-05
348.312,-4.647518E-05
348.412,-4.648459E-05
348.5121,-4.644504E-05
348.6121,-4.642714E-05
348.7121,-4.640172E-05
348.8121,-4.637064E-05
348.9121,-4.633768E-05
349.0121,-4.63358E-05
349.1121,-4.630189E-05
349.2121,-4.627553E-05
349.3121,-4.628306E-05
349.4121,-4.623692E-05
349.5121,-4.62275E-05
349.6121,-4.617947E-05
349.7121,-4.619642E-05
349.8121,-4.617759E-05
349.9121,-4.614086E-05
350.0121,-4.615122E-05
350.1122,-4.612956E-05
350.2122,-4.609566E-05
350.3122,-4.606458E-05
350.4122,-4.602879E-05
350.5122,-4.601655E-05
350.6122,-4.602032E-05
350.7122,-4.599866E-05
350.8122,-4.59478E-05
350.9122,-4.594498E-05
351.0122,-4.59431E-05
351.1122,-4.589224E-05
351.2122,-4.586023E-05
351.3122,-4.588188E-05
351.4122,-4.584892E-05
351.5122,-4.578959E-05
351.6122,-4.579901E-05
351.7122,-4.578488E-05
351.8123,-4.572556E-05
351.9123,-4.573591E-05
352.0123,-4.573497E-05
352.1123,-4.56634E-05
352.2123,-4.564645E-05
352.3123,-4.56747E-05
352.4123,-4.562291E-05
352.5123,-4.558901E-05
352.6123,-4.559654E-05
352.7123,-4.557299E-05
352.8123,-4.554569E-05
352.9123,-4.554569E-05
353.0123,-4.553156E-05
353.1123,-4.550425E-05
353.2123,-4.549577E-05
353.3123,-4.547882E-05
353.4124,-4.545151E-05
353.5124,-4.544586E-05
353.6124,-4.538559E-05
353.7124,-4.536958E-05
353.8124,-4.537994E-05
353.9124,-4.53564E-05
354.0124,-4.530083E-05
354.1124,-4.528388E-05
354.2124,-4.52933E-05
354.3124,-4.524057E-05
354.4124,-4.52076E-05
354.5124,-4.521608E-05
354.6124,-4.519065E-05
354.7124,-4.513697E-05
354.8124,-4.516805E-05
354.9124,-4.514827E-05
355.0125,-4.509836E-05
355.1125,-4.511249E-05
355.2125,-4.513886E-05
355.3125,-4.506823E-05
355.4125,-4.505599E-05
355.5125,-4.50767E-05
355.6125,-4.503433E-05
355.7125,-4.500231E-05
355.8125,-4.497688E-05
355.9125,-4.497688E-05
356.0125,-4.493262E-05
356.1125,-4.494298E-05
356.2125,-4.492508E-05
356.3125,-4.489024E-05
356.4125,-4.486764E-05
356.5125,-4.484786E-05
356.6125,-4.48328E-05
356.7126,-4.48262E-05
356.8126,-4.480737E-05
356.9126,-4.477817E-05
357.0126,-4.478194E-05
357.1126,-4.476123E-05
357.2126,-4.473768E-05
357.3126,-4.471602E-05
357.4126,-4.471696E-05
357.5126,-4.469719E-05
357.6126,-4.466705E-05
357.7126,-4.467458E-05
357.8126,-4.462844E-05
357.9126,-4.461055E-05
358.0126,-4.462185E-05
358.1126,-4.457758E-05
358.2126,-4.455687E-05
358.3127,-4.45531E-05
358.4127,-4.452861E-05
358.5127,-4.449754E-05
358.6127,-4.451073E-05
358.7127,-4.447776E-05
358.8127,-4.445139E-05
358.9127,-4.442409E-05
359.0127,-4.445234E-05
359.1127,-4.442031E-05
359.2127,-4.437605E-05
359.3127,-4.436287E-05
359.4127,-4.438076E-05
359.5127,-4.433085E-05
359.6127,-4.431767E-05
359.7127,-4.431013E-05
359.8127,-4.427999E-05
359.9128,-4.427058E-05
360.0128,-4.426587E-05
360.1128,-4.420842E-05
360.2128,-4.419619E-05
360.3128,-4.418771E-05
360.4128,-4.418959E-05
360.5128,-4.414156E-05
360.6128,-4.416416E-05
360.7128,-4.415004E-05
360.8128,-4.411143E-05
360.9128,-4.411614E-05
361.0128,-4.410107E-05
361.1128,-4.408129E-05
361.2128,-4.406058E-05
361.3128,-4.404174E-05
361.4128,-4.399559E-05
361.5128,-4.398053E-05
361.6129,-4.398712E-05
361.7129,-4.394663E-05
361.8129,-4.39099E-05
361.9129,-4.391649E-05
362.0129,-4.388447E-05
362.1129,-4.387411E-05
362.2129,-4.384586E-05
362.3129,-4.384774E-05
362.4129,-4.379972E-05
362.5129,-4.380254E-05
362.6129,-4.378277E-05
362.7129,-4.376676E-05
362.8129,-4.375263E-05
362.9129,-4.373379E-05
363.0129,-4.370178E-05
363.1129,-4.370648E-05
363.213,-4.367352E-05
363.313,-4.363774E-05
363.413,-4.361231E-05
363.513,-4.358877E-05
363.613,-4.357276E-05
363.713,-4.357841E-05
363.813,-4.356522E-05
363.913,-4.349647E-05
364.013,-4.350589E-05
364.113,-4.352284E-05
364.213,-4.347199E-05
364.313,-4.345033E-05
364.413,-4.348047E-05
364.513,-4.344374E-05
364.613,-4.341455E-05
364.713,-4.342867E-05
364.813,-4.339383E-05
364.9131,-4.337876E-05
365.0131,-4.338159E-05
365.1131,-4.334015E-05
365.2131,-4.330436E-05
365.3131,-4.329777E-05
365.4131,-4.329118E-05
365.5131,-4.326387E-05
365.6131,-4.32488E-05
365.7131,-4.326764E-05
365.8131,-4.320925E-05
365.9131,-4.318759E-05
366.0131,-4.321396E-05
366.1131,-4.313485E-05
366.2131,-4.312073E-05
366.3131,-4.313109E-05
366.4131,-4.310754E-05
366.5132,-4.307081E-05
366.6132,-4.307176E-05
366.7132,-4.309342E-05
366.8132,-4.303974E-05
366.9132,-4.298229E-05
367.0132,-4.302561E-05
367.1132,-4.2987E-05
367.2132,-4.295969E-05
367.3132,-4.29418E-05
367.4132,-4.293897E-05
367.5132,-4.290319E-05
367.6132,-4.287023E-05
367.7132,-4.288718E-05
367.8132,-4.285704E-05
367.9132,-4.282785E-05
368.0132,-4.283256E-05
368.1133,-4.282785E-05
368.2133,-4.276098E-05
368.3133,-4.277793E-05
368.4133,-4.275534E-05
368.5133,-4.271202E-05
368.6133,-4.269695E-05
368.7133,-4.27026E-05
368.8133,-4.266304E-05
368.9133,-4.263762E-05
369.0133,-4.26395E-05
369.1133,-4.262726E-05
369.2133,-4.261031E-05
369.3133,-4.258865E-05
369.4133,-4.256793E-05
369.5133,-4.253591E-05
369.6133,-4.251425E-05
369.7133,-4.251237E-05
369.8134,-4.251425E-05
369.9134,-4.249636E-05
370.0134,-4.246058E-05
370.1134,-4.243891E-05
370.2134,-4.241254E-05
370.3134,-4.24003E-05
370.4134,-4.238429E-05
370.5134,-4.237676E-05
370.6134,-4.23259E-05
370.7134,-4.231932E-05
370.8134,-4.230896E-05
370.9134,-4.230801E-05
371.0134,-4.227788E-05
371.1134,-4.224963E-05
371.2134,-4.225433E-05
371.3134,-4.22355E-05
371.4135,-4.219783E-05
371.5135,-4.21837E-05
371.6135,-4.2179E-05
371.7135,-4.21611E-05
371.8135,-4.214132E-05
371.9135,-4.212532E-05
372.0135,-4.211119E-05
372.1135,-4.206975E-05
372.2135,-4.204621E-05
372.3135,-4.20594E-05
372.4135,-4.204809E-05
372.5135,-4.202172E-05
372.6135,-4.201513E-05
372.7135,-4.199912E-05
372.8135,-4.197746E-05
372.9135,-4.194451E-05
373.0135,-4.192473E-05
373.1136,-4.194451E-05
373.2136,-4.191625E-05
373.3136,-4.186257E-05
373.4136,-4.188612E-05
373.5136,-4.187294E-05
373.6136,-4.181455E-05
373.7136,-4.182208E-05
373.8136,-4.182396E-05
373.9136,-4.180513E-05
374.0136,-4.17571E-05
374.1136,-4.179194E-05
374.2136,-4.176275E-05
374.3136,-4.171189E-05
374.4136,-4.174674E-05
374.5136,-4.171943E-05
374.6136,-4.166575E-05
374.7137,-4.16667E-05
374.8137,-4.165351E-05
374.9137,-4.16422E-05
375.0137,-4.163374E-05
375.1137,-4.164315E-05
375.2137,-4.161113E-05
375.3137,-4.154427E-05
375.4137,-4.156122E-05
375.5137,-4.155745E-05
375.6137,-4.152355E-05
375.7137,-4.153768E-05
375.8137,-4.154898E-05
375.9137,-4.148871E-05
376.0137,-4.150189E-05
376.1137,-4.150378E-05
376.2137,-4.144821E-05
376.3138,-4.142279E-05
376.4138,-4.143786E-05
376.5138,-4.139924E-05
376.6138,-4.137005E-05
376.7138,-4.138041E-05
376.8138,-4.137287E-05
376.9138,-4.130318E-05
377.0138,-4.130695E-05
377.1138,-4.132013E-05
377.2138,-4.127305E-05
377.3138,-4.123632E-05
377.4138,-4.126457E-05
377.5138,-4.123821E-05
377.6138,-4.118736E-05
377.7138,-4.121278E-05
377.8138,-4.121466E-05
377.9138,-4.117982E-05
378.0139,-4.116381E-05
378.1139,-4.119489E-05
378.2139,-4.115062E-05
378.3139,-4.112708E-05
378.4139,-4.11591E-05
378.5139,-4.11252E-05
378.6139,-4.108753E-05
378.7139,-4.109506E-05
378.8139,-4.107811E-05
378.9139,-4.106304E-05
379.0139,-4.101878E-05
379.1139,-4.102349E-05
379.2139,-4.100748E-05
379.3139,-4.098017E-05
379.4139,-4.095004E-05
379.5139,-4.095192E-05
379.614,-4.095192E-05
379.714,-4.090671E-05
379.814,-4.088411E-05
379.914,-4.093309E-05
380.014,-4.088317E-05
380.114,-4.083609E-05
380.214,-4.08747E-05
380.314,-4.085304E-05
380.414,-4.081442E-05
380.514,-4.078712E-05
380.614,-4.079465E-05
380.714,-4.076546E-05
380.814,-4.073156E-05
380.914,-4.073815E-05
381.014,-4.07259E-05
381.114,-4.070519E-05
381.2141,-4.069577E-05
381.3141,-4.068447E-05
381.4141,-4.063456E-05
381.5141,-4.063079E-05
381.6141,-4.06129E-05
381.7141,-4.055545E-05
381.8141,-4.060254E-05
381.9141,-4.057994E-05
382.0141,-4.051025E-05
382.1141,-4.053191E-05
382.2141,-4.05159E-05
382.3141,-4.04707E-05
382.4141,-4.043868E-05
382.5141,-4.045186E-05
382.6141,-4.043774E-05
382.7141,-4.039442E-05
382.8141,-4.040006E-05
382.9142,-4.039159E-05
383.0142,-4.035392E-05
383.1142,-4.033508E-05
383.2142,-4.032379E-05
383.3142,-4.02927E-05
383.4142,-4.031248E-05
383.5142,-4.027482E-05
383.6142,-4.022584E-05
383.7142,-4.024844E-05
383.8142,-4.024751E-05
383.9142,-4.018629E-05
384.0142,-4.018818E-05
384.1142,-4.018535E-05
384.2142,-4.016934E-05
384.3142,-4.014768E-05
384.4142,-4.016181E-05
384.5143,-4.011283E-05
384.6143,-4.005539E-05
384.7143,-4.007705E-05
384.8143,-4.008364E-05
384.9143,-4.003279E-05
385.0143,-4.001113E-05
385.1143,-4.002808E-05
385.2143,-4.00083E-05
385.3143,-3.998194E-05
385.4143,-3.995745E-05
385.5143,-3.993673E-05
385.6143,-3.992825E-05
385.7143,-3.989153E-05
385.8143,-3.98727E-05
385.9143,-3.988682E-05
386.0143,-3.989153E-05
386.1143,-3.984444E-05
386.2144,-3.983974E-05
386.3144,-3.983597E-05
386.4144,-3.982655E-05
386.5144,-3.979736E-05
386.6144,-3.979641E-05
386.7144,-3.977947E-05
386.8144,-3.972672E-05
386.9144,-3.977664E-05
387.0144,-3.97531E-05
387.1144,-3.969753E-05
387.2144,-3.970884E-05
387.3144,-3.968529E-05
387.4144,-3.965798E-05
387.5144,-3.964386E-05
387.6144,-3.961184E-05
387.7144,-3.959865E-05
387.8145,-3.959206E-05
387.9145,-3.9593E-05
388.0145,-3.955816E-05
388.1145,-3.952237E-05
388.2145,-3.958923E-05
388.3145,-3.953367E-05
388.4145,-3.946022E-05
388.5145,-3.949412E-05
388.6145,-3.949317E-05
388.7145,-3.944703E-05
388.8145,-3.944515E-05
388.9145,-3.946964E-05
389.0145,-3.943573E-05
389.1145,-3.939053E-05
389.2145,-3.937452E-05
389.3145,-3.938959E-05
389.4146,-3.937452E-05
389.5146,-3.93538E-05
389.6146,-3.932743E-05
389.7146,-3.930577E-05
389.8146,-3.934815E-05
389.9146,-3.928788E-05
390.0146,-3.923703E-05
390.1146,-3.927846E-05
390.2146,-3.925869E-05
390.3146,-3.922572E-05
390.4146,-3.92295E-05
390.5146,-3.92342E-05
390.6146,-3.921066E-05
390.7146,-3.917581E-05
390.8146,-3.916075E-05
390.9146,-3.914379E-05
391.0146,-3.914003E-05
391.1147,-3.911743E-05
391.2147,-3.911649E-05
391.3147,-3.908635E-05
391.4147,-3.908729E-05
391.5147,-3.905904E-05
391.6147,-3.904962E-05
391.7147,-3.904114E-05
391.8147,-3.903361E-05
391.9147,-3.899688E-05
392.0147,-3.898841E-05
392.1147,-3.897805E-05
392.2147,-3.896298E-05
392.3147,-3.894792E-05
392.4147,-3.894792E-05
392.5147,-3.891119E-05
392.6147,-3.889141E-05
392.7148,-3.889518E-05
392.8148,-3.887163E-05
392.9148,-3.884621E-05
393.0148,-3.883302E-05
393.1148,-3.884244E-05
393.2148,-3.880195E-05
393.3148,-3.878688E-05
393.4148,-3.875957E-05
393.5148,-3.876711E-05
393.6148,-3.875957E-05
393.7148,-3.87332E-05
393.8148,-3.870872E-05
393.9148,-3.873038E-05
394.0148,-3.869365E-05
394.1148,-3.866163E-05
394.2148,-3.866351E-05
394.3148,-3.868046E-05
394.4149,-3.863055E-05
394.5149,-3.864279E-05
394.6149,-3.863997E-05
394.7149,-3.860795E-05
394.8149,-3.860136E-05
394.9149,-3.863714E-05
395.0149,-3.859476E-05
395.1149,-3.856275E-05
395.2149,-3.860042E-05
395.3149,-3.860418E-05
395.4149,-3.852319E-05
395.5149,-3.857311E-05
395.6149,-3.854109E-05
395.7149,-3.85006E-05
395.8149,-3.851566E-05
395.9149,-3.84714E-05
396.015,-3.845822E-05
396.115,-3.842431E-05
396.215,-3.843185E-05
396.315,-3.841678E-05
396.415,-3.83631E-05
396.515,-3.843656E-05
396.615,-3.838853E-05
396.715,-3.833014E-05
396.815,-3.83744E-05
396.915,-3.837252E-05
397.015,-3.829906E-05
397.115,-3.830283E-05
397.215,-3.832449E-05
397.315,-3.826328E-05
397.415,-3.825668E-05
397.515,-3.827458E-05
397.6151,-3.823126E-05
397.7151,-3.820772E-05
397.8151,-3.820489E-05
397.9151,-3.821902E-05
398.0151,-3.818982E-05
398.1151,-3.821148E-05
398.2151,-3.817004E-05
398.3151,-3.816439E-05
398.4151,-3.81578E-05
398.5151,-3.816534E-05
398.6151,-3.811919E-05
398.7151,-3.810412E-05
398.8151,-3.812672E-05
398.9151,-3.811542E-05
399.0151,-3.805515E-05
399.1151,-3.808906E-05
399.2151,-3.806551E-05
399.3152,-3.802502E-05
399.4152,-3.802879E-05
399.5152,-3.803161E-05
399.6152,-3.800901E-05
399.7152,-3.798452E-05
399.8152,-3.798829E-05
399.9152,-3.7993E-05
400.0152,-3.792896E-05
400.1152,-3.797134E-05
400.2152,-3.796946E-05
400.3152,-3.790165E-05
400.4152,-3.790825E-05
400.5152,-3.791389E-05
400.6152,-3.788282E-05
400.7152,-3.789223E-05
400.8152,-3.786398E-05
400.9153,-3.782631E-05
401.0153,-3.782254E-05
401.1153,-3.783102E-05
401.2153,-3.779618E-05
401.3153,-3.77717E-05
401.4153,-3.778394E-05
401.5153,-3.779429E-05
401.6153,-3.774062E-05
401.7153,-3.774438E-05
401.8153,-3.775757E-05
401.9153,-3.770107E-05
402.0153,-3.773591E-05
402.1153,-3.771048E-05
402.2153,-3.771707E-05
402.3153,-3.775098E-05
402.4153,-3.773402E-05
402.5154,-3.772178E-05
402.6154,-3.769447E-05
402.7154,-3.771237E-05
402.8154,-3.764738E-05
402.9154,-3.767469E-05
403.0154,-3.766904E-05
403.1154,-3.765398E-05
403.2154,-3.764644E-05
403.3154,-3.765586E-05
403.4154,-3.76116E-05
403.5154,-3.759276E-05
403.6154,-3.7605E-05
403.7154,-3.761348E-05
403.8154,-3.756922E-05
403.9154,-3.757864E-05
404.0154,-3.759559E-05
404.1154,-3.756169E-05
404.2155,-3.75372E-05
404.3155,-3.75711E-05
404.4155,-3.751554E-05
404.5155,-3.748446E-05
404.6155,-3.747034E-05
404.7155,-3.748446E-05
404.8155,-3.744303E-05
404.9155,-3.743079E-05
405.0155,-3.747693E-05
405.1155,-3.742702E-05
405.2155,-3.740442E-05
405.3155,-3.742984E-05
405.4155,-3.741007E-05
405.5155,-3.737146E-05
405.6155,-3.736863E-05
405.7155,-3.74063E-05
405.8156,-3.73545E-05
405.9156,-3.739594E-05
406.0156,-3.737616E-05
406.1156,-3.736204E-05
406.2156,-3.733944E-05
406.3156,-3.732249E-05
406.4156,-3.733096E-05
406.5156,-3.732531E-05
406.6156,-3.732719E-05
406.7156,-3.732249E-05
406.8156,-3.734226E-05
406.9156,-3.733285E-05
407.0156,-3.733473E-05
407.1156,-3.731307E-05
407.2156,-3.72867E-05
407.3156,-3.72641E-05
407.4156,-3.725751E-05
407.5157,-3.726316E-05
407.6157,-3.722173E-05
407.7157,-3.721136E-05
407.8157,-3.720006E-05
407.9157,-3.719158E-05
408.0157,-3.716145E-05
408.1157,-3.717087E-05
408.2157,-3.720948E-05
408.3157,-3.71784E-05
408.4157,-3.716051E-05
408.5157,-3.720571E-05
408.6157,-3.712566E-05
408.7157,-3.711154E-05
408.8157,-3.712661E-05
408.9157,-3.712001E-05
409.0157,-3.706728E-05
409.1158,-3.707293E-05
409.2158,-3.710872E-05
409.3158,-3.705127E-05
409.4158,-3.702678E-05
409.5158,-3.705504E-05
409.6158,-3.701454E-05
409.7158,-3.699947E-05
409.8158,-3.699947E-05
409.9158,-3.702772E-05
410.0158,-3.699947E-05
410.1158,-3.6991E-05
410.2158,-3.699853E-05
410.3158,-3.701077E-05
410.4158,-3.701925E-05
410.5158,-3.697876E-05
410.6158,-3.693826E-05
410.7159,-3.698346E-05
410.8159,-3.692885E-05
410.9159,-3.691754E-05
411.0159,-3.690342E-05
411.1159,-3.690059E-05
411.2159,-3.687422E-05
411.3159,-3.68375E-05
411.4159,-3.687328E-05
411.5159,-3.684315E-05
411.6159,-3.68196E-05
411.7159,-3.682713E-05
411.8159,-3.684409E-05
411.9159,-3.679512E-05
412.0159,-3.681301E-05
412.1159,-3.679135E-05
412.2159,-3.675839E-05
412.3159,-3.679888E-05
412.416,-3.67631E-05
412.516,-3.671507E-05
412.616,-3.674144E-05
412.716,-3.673956E-05
412.816,-3.671318E-05
412.916,-3.67113E-05
413.016,-3.671601E-05
413.116,-3.667928E-05
413.216,-3.665292E-05
413.316,-3.666516E-05
413.416,-3.666045E-05
413.516,-3.663502E-05
413.616,-3.666704E-05
413.716,-3.665103E-05
413.816,-3.661054E-05
413.916,-3.665574E-05
414.0161,-3.663314E-05
414.1161,-3.657381E-05
414.2161,-3.656816E-05
414.3161,-3.658134E-05
414.4161,-3.656157E-05
414.5161,-3.651448E-05
414.6161,-3.654179E-05
414.7161,-3.652672E-05
414.8161,-3.647116E-05
414.9161,-3.65173E-05
415.0161,-3.649188E-05
415.1161,-3.644573E-05
415.2161,-3.645139E-05
415.3161,-3.646174E-05
415.4161,-3.64382E-05
415.5161,-3.642408E-05
415.6161,-3.641748E-05
415.7162,-3.641277E-05
415.8162,-3.638076E-05
415.9162,-3.639394E-05
416.0162,-3.637228E-05
416.1162,-3.636945E-05
416.2162,-3.638735E-05
416.3162,-3.638641E-05
416.4162,-3.638264E-05
416.5162,-3.641654E-05
416.6162,-3.636757E-05
416.7162,-3.635815E-05
416.8162,-3.634403E-05
416.9162,-3.629223E-05
417.0162,-3.628564E-05
417.1162,-3.629223E-05
417.2162,-3.626398E-05
417.3163,-3.623573E-05
417.4163,-3.623667E-05
417.5163,-3.624138E-05
417.6163,-3.620559E-05
417.7163,-3.619146E-05
417.8163,-3.623196E-05
417.9163,-3.61877E-05
418.0163,-3.615851E-05
418.1163,-3.616698E-05
418.2163,-3.617734E-05
418.3163,-3.612178E-05
418.4163,-3.611519E-05
418.5163,-3.61246E-05
418.6163,-3.609824E-05
418.7163,-3.606999E-05
418.8163,-3.610577E-05
418.9164,-3.605869E-05
419.0164,-3.60342E-05
419.1164,-3.605963E-05
419.2164,-3.606528E-05
419.3164,-3.602855E-05
419.4164,-3.602101E-05
419.5164,-3.601443E-05
419.6164,-3.60116E-05
419.7164,-3.59824E-05
419.8164,-3.596451E-05
419.9164,-3.59372E-05
420.0164,-3.593437E-05
420.1164,-3.593437E-05
420.2164,-3.59372E-05
420.3164,-3.590895E-05
420.4164,-3.59146E-05
420.5164,-3.590895E-05
420.6165,-3.586657E-05
420.7165,-3.587976E-05
420.8165,-3.584397E-05
420.9165,-3.581289E-05
421.0165,-3.584114E-05
421.1165,-3.584491E-05
421.2165,-3.580254E-05
421.3165,-3.579029E-05
421.4165,-3.577805E-05
421.5165,-3.576486E-05
421.6165,-3.577334E-05
421.7165,-3.571683E-05
421.8165,-3.572625E-05
421.9165,-3.571683E-05
422.0165,-3.571872E-05
422.1165,-3.567728E-05
422.2166,-3.566975E-05
422.3166,-3.569329E-05
422.4166,-3.56528E-05
422.5166,-3.562361E-05
422.6166,-3.567446E-05
422.7166,-3.56302E-05
422.8166,-3.559912E-05
422.9166,-3.561701E-05
423.0166,-3.559818E-05
423.1166,-3.555015E-05
423.2166,-3.555015E-05
423.3166,-3.557463E-05
423.4166,-3.551531E-05
423.5166,-3.551719E-05
423.6166,-3.552566E-05
423.7166,-3.550871E-05
423.8167,-3.548611E-05
423.9167,-3.546728E-05
424.0167,-3.546822E-05
424.1167,-3.544938E-05
424.2167,-3.544938E-05
424.3167,-3.543337E-05
424.4167,-3.540418E-05
424.5167,-3.542207E-05
424.6167,-3.541831E-05
424.7167,-3.535521E-05
424.8167,-3.537687E-05
424.9167,-3.536839E-05
425.0167,-3.533638E-05
425.1167,-3.533732E-05
425.2167,-3.530718E-05
425.3167,-3.530153E-05
425.4167,-3.529023E-05
425.5168,-3.529117E-05
425.6168,-3.526481E-05
425.7168,-3.523467E-05
425.8168,-3.524785E-05
425.9168,-3.52535E-05
426.0168,-3.519794E-05
426.1168,-3.525444E-05
426.2168,-3.520547E-05
426.3168,-3.51565E-05
426.4168,-3.517911E-05
426.5168,-3.517346E-05
426.6168,-3.513955E-05
426.7168,-3.511318E-05
426.8168,-3.512449E-05
426.9168,-3.511224E-05
427.0168,-3.509529E-05
427.1169,-3.508776E-05
427.2169,-3.506704E-05
427.3169,-3.506704E-05
427.4169,-3.50708E-05
427.5169,-3.5003E-05
427.6169,-3.502937E-05
427.7169,-3.504538E-05
427.8169,-3.5003E-05
427.9169,-3.495591E-05
428.0169,-3.499359E-05
428.1169,-3.498794E-05
428.2169,-3.49239E-05
428.3169,-3.49239E-05
428.4169,-3.495027E-05
428.5169,-3.492766E-05
428.6169,-3.490506E-05
428.7169,-3.489094E-05
428.817,-3.488058E-05
428.917,-3.488905E-05
429.017,-3.486551E-05
429.117,-3.484667E-05
429.217,-3.484761E-05
429.317,-3.481748E-05
429.417,-3.480713E-05
429.517,-3.478452E-05
429.617,-3.480335E-05
429.717,-3.478452E-05
429.817,-3.470071E-05
429.917,-3.477699E-05
430.017,-3.474591E-05
430.117,-3.467811E-05
430.217,-3.474873E-05
430.317,-3.472425E-05
430.4171,-3.466963E-05
430.5171,-3.467246E-05
430.6171,-3.468658E-05
430.7171,-3.463855E-05
430.8171,-3.461124E-05
430.9171,-3.464326E-05
431.0171,-3.461407E-05
431.1171,-3.459052E-05
431.2171,-3.460654E-05
431.3171,-3.460089E-05
431.4171,-3.457639E-05
431.5171,-3.458016E-05
431.6171,-3.458393E-05
431.7171,-3.455945E-05
431.8171,-3.45538E-05
431.9171,-3.453967E-05
432.0172,-3.451142E-05
432.1172,-3.451707E-05
432.2172,-3.447093E-05
432.3172,-3.447751E-05
432.4172,-3.448976E-05
432.5172,-3.445492E-05
432.6172,-3.443419E-05
432.7172,-3.445586E-05
432.8172,-3.443702E-05
432.9172,-3.440594E-05
433.0172,-3.439558E-05
433.1172,-3.441913E-05
433.2172,-3.436451E-05
433.3172,-3.433249E-05
433.4172,-3.438052E-05
433.5172,-3.438993E-05
433.6172,-3.433814E-05
433.7173,-3.432779E-05
433.8173,-3.435603E-05
433.9173,-3.433343E-05
434.0173,-3.427222E-05
434.1173,-3.430424E-05
434.2173,-3.431083E-05
434.3173,-3.42581E-05
434.4173,-3.427975E-05
434.5173,-3.427598E-05
434.6173,-3.42176E-05
434.7173,-3.422231E-05
434.8173,-3.420536E-05
434.9173,-3.415921E-05
435.0173,-3.418841E-05
435.1173,-3.417993E-05
435.2173,-3.41319E-05
435.3174,-3.413661E-05
435.4174,-3.414226E-05
435.5174,-3.414885E-05
435.6174,-3.408387E-05
435.7174,-3.408576E-05
435.8174,-3.408858E-05
435.9174,-3.405656E-05
436.0174,-3.407163E-05
436.1174,-3.408481E-05
436.2174,-3.402737E-05
436.3174,-3.40754E-05
436.4174,-3.406504E-05
436.5174,-3.403585E-05
436.6174,-3.404055E-05
436.7174,-3.404432E-05
436.8174,-3.403867E-05
436.9174,-3.397746E-05
437.0175,-3.400006E-05
437.1175,-3.402643E-05
437.2175,-3.395862E-05
437.3175,-3.395485E-05
437.4175,-3.398499E-05
437.5175,-3.392943E-05
437.6175,-3.392754E-05
437.7175,-3.391248E-05
437.8175,-3.3904E-05
437.9175,-3.389553E-05
438.0175,-3.387575E-05
438.1175,-3.386068E-05
438.2175,-3.384562E-05
438.3175,-3.385221E-05
438.4175,-3.38362E-05
438.5175,-3.380794E-05
438.6176,-3.380606E-05
438.7176,-3.380889E-05
438.8176,-3.379193E-05
438.9176,-3.382678E-05
439.0176,-3.381077E-05
439.1176,-3.375898E-05
439.2176,-3.379005E-05
439.3176,-3.375803E-05
439.4176,-3.373826E-05
439.5176,-3.375144E-05
439.6176,-3.373449E-05
439.7176,-3.371942E-05
439.8176,-3.371472E-05
439.9176,-3.372884E-05
440.0176,-3.369682E-05
440.1176,-3.36987E-05
440.2177,-3.369776E-05
440.3177,-3.366951E-05
440.4177,-3.364597E-05
440.5177,-3.367045E-05
440.6177,-3.363184E-05
440.7177,-3.362808E-05
440.8177,-3.362148E-05
440.9177,-3.361866E-05
441.0177,-3.359135E-05
441.1177,-3.357722E-05
441.2177,-3.356874E-05
441.3177,-3.354897E-05
441.4177,-3.353673E-05
441.5177,-3.353955E-05
441.6177,-3.351507E-05
441.7177,-3.351036E-05
441.8177,-3.353108E-05
441.9178,-3.348022E-05
442.0178,-3.348305E-05
442.1178,-3.349058E-05
442.2178,-3.346139E-05
442.3178,-3.344444E-05
442.4178,-3.346516E-05
442.5178,-3.346327E-05
442.6178,-3.340582E-05
442.7178,-3.342278E-05
442.8178,-3.344161E-05
442.9178,-3.337663E-05
443.0178,-3.334933E-05
443.1178,-3.3403E-05
443.2178,-3.335497E-05
443.3178,-3.330035E-05
443.4178,-3.335026E-05
443.5179,-3.335497E-05
443.6179,-3.331354E-05
443.7179,-3.33173E-05
443.8179,-3.331448E-05
443.9179,-3.3306E-05
444.0179,-3.325703E-05
444.1179,-3.328152E-05
444.2179,-3.328434E-05
444.3179,-3.323726E-05
444.4179,-3.323726E-05
444.5179,-3.326645E-05
444.6179,-3.322313E-05
444.7179,-3.322972E-05
444.8179,-3.323443E-05
444.9179,-3.32156E-05
445.0179,-3.320335E-05
445.118,-3.321183E-05
445.218,-3.318735E-05
445.318,-3.314214E-05
445.418,-3.318263E-05
445.518,-3.314873E-05
445.618,-3.31525E-05
445.718,-3.313461E-05
445.818,-3.311671E-05
445.918,-3.31073E-05
446.018,-3.3096E-05
446.118,-3.306586E-05
446.218,-3.305927E-05
446.318,-3.309034E-05
446.418,-3.307151E-05
446.518,-3.304232E-05
446.618,-3.310165E-05
446.718,-3.304797E-05
446.8181,-3.302254E-05
446.9181,-3.303196E-05
447.0181,-3.302066E-05
447.1181,-3.299429E-05
447.2181,-3.296792E-05
447.3181,-3.299994E-05
447.4181,-3.297922E-05
447.5181,-3.291989E-05
447.6181,-3.298017E-05
447.7181,-3.295756E-05
447.8181,-3.291425E-05
447.9181,-3.293025E-05
448.0181,-3.293308E-05
448.1181,-3.287752E-05
448.2181,-3.286998E-05
448.3181,-3.290765E-05
448.4182,-3.28681E-05
448.5182,-3.283985E-05
448.6182,-3.287281E-05
448.7182,-3.285586E-05
448.8182,-3.284832E-05
448.9182,-3.283231E-05
449.0182,-3.283796E-05
449.1182,-3.279746E-05
449.2182,-3.281724E-05
449.3182,-3.277675E-05
449.4182,-3.281159E-05
449.5182,-3.282289E-05
449.6182,-3.27824E-05
449.7182,-3.278523E-05
449.8182,-3.279276E-05
449.9182,-3.274755E-05
450.0182,-3.274002E-05
450.1183,-3.275603E-05
450.2183,-3.273908E-05
450.3183,-3.270518E-05
450.4183,-3.270612E-05
450.5183,-3.271648E-05
450.6183,-3.271083E-05
450.7183,-3.270612E-05
450.8183,-3.276074E-05
450.9183,-3.270612E-05
451.0183,-3.268258E-05
451.1183,-3.272024E-05
451.2183,-3.267975E-05
451.3183,-3.264962E-05
451.4183,-3.262701E-05
451.5183,-3.263832E-05
451.6183,-3.260253E-05
451.7184,-3.259311E-05
451.8184,-3.26063E-05
451.9184,-3.260441E-05
452.0184,-3.254885E-05
452.1184,-3.26063E-05
452.2184,-3.258746E-05
452.3184,-3.253661E-05
452.4184,-3.255921E-05
452.5184,-3.256486E-05
452.6184,-3.25432E-05
452.7184,-3.252625E-05
452.8184,-3.252907E-05
452.9184,-3.251778E-05
453.0184,-3.249235E-05
453.1184,-3.249329E-05
453.2184,-3.24867E-05
453.3185,-3.247445E-05
453.4185,-3.250648E-05
453.5185,-3.252248E-05
453.6185,-3.248482E-05
453.7185,-3.249329E-05
453.8185,-3.249517E-05
453.9185,-3.24688E-05
454.0185,-3.247163E-05
454.1185,-3.245939E-05
454.2185,-3.245279E-05
454.3185,-3.243961E-05
454.4185,-3.24236E-05
454.5185,-3.245656E-05
454.6185,-3.242737E-05
454.7185,-3.24123E-05
454.8185,-3.245656E-05
454.9185,-3.241795E-05
455.0186,-3.242172E-05
455.1186,-3.240382E-05
455.2186,-3.237934E-05
455.3186,-3.239253E-05
455.4186,-3.239912E-05
455.5186,-3.235485E-05
455.6186,-3.234826E-05
455.7186,-3.23379E-05
455.8186,-3.234449E-05
455.9186,-3.23266E-05
456.0186,-3.230212E-05
456.1186,-3.233131E-05
456.2186,-3.229835E-05
456.3186,-3.229176E-05
456.4186,-3.230871E-05
456.5186,-3.225315E-05
456.6187,-3.226162E-05
456.7187,-3.226068E-05
456.8187,-3.224279E-05
456.9187,-3.225786E-05
457.0187,-3.224185E-05
457.1187,-3.222583E-05
457.2187,-3.223431E-05
457.3187,-3.224185E-05
457.4187,-3.219664E-05
457.5187,-3.221642E-05
457.6187,-3.223148E-05
457.7187,-3.218064E-05
457.8187,-3.217592E-05
457.9187,-3.221265E-05
458.0187,-3.220229E-05
458.1187,-3.214767E-05
458.2188,-3.219852E-05
458.3188,-3.217216E-05
458.4188,-3.210059E-05
458.5188,-3.216274E-05
458.6188,-3.213637E-05
458.7188,-3.209493E-05
458.8188,-3.210059E-05
458.9188,-3.211095E-05
459.0188,-3.207234E-05
459.1188,-3.204785E-05
459.2188,-3.208834E-05
459.3188,-3.207328E-05
459.4188,-3.204126E-05
459.5188,-3.203843E-05
459.6188,-3.202242E-05
459.7188,-3.202242E-05
459.8188,-3.203749E-05
459.9189,-3.199983E-05
460.0189,-3.201489E-05
460.1189,-3.201771E-05
460.2189,-3.198287E-05
460.3189,-3.198287E-05
460.4189,-3.198758E-05
460.5189,-3.194614E-05
460.6189,-3.193484E-05
460.7189,-3.195839E-05
460.8189,-3.196874E-05
460.9189,-3.190376E-05
461.0189,-3.190094E-05
461.1189,-3.19226E-05
461.2189,-3.191036E-05
461.3189,-3.189435E-05
461.4189,-3.191224E-05
461.519,-3.18821E-05
461.619,-3.185479E-05
461.719,-3.185573E-05
461.819,-3.187269E-05
461.919,-3.188116E-05
462.019,-3.189246E-05
462.119,-3.193014E-05
462.219,-3.190847E-05
462.319,-3.195085E-05
462.419,-3.192542E-05
462.519,-3.193578E-05
462.619,-3.19452E-05
462.719,-3.193107E-05
462.819,-3.192542E-05
462.919,-3.191036E-05
463.019,-3.187269E-05
463.119,-3.188022E-05
463.2191,-3.18595E-05
463.3191,-3.182372E-05
463.4191,-3.183125E-05
463.5191,-3.183125E-05
463.6191,-3.181995E-05
463.7191,-3.179735E-05
463.8191,-3.179829E-05
463.9191,-3.182466E-05
464.0191,-3.177004E-05
464.1191,-3.176156E-05
464.2191,-3.179358E-05
464.3191,-3.179547E-05
464.4191,-3.175309E-05
464.5191,-3.175214E-05
464.6191,-3.177946E-05
464.7191,-3.175121E-05
464.8192,-3.174838E-05
464.9192,-3.173425E-05
465.0192,-3.175026E-05
465.1192,-3.173708E-05
465.2192,-3.172671E-05
465.3192,-3.175591E-05
465.4192,-3.171918E-05
465.5192,-3.172107E-05
465.6192,-3.17286E-05
465.7192,-3.173049E-05
465.8192,-3.170695E-05
465.9192,-3.1706E-05
466.0192,-3.172107E-05
466.1192,-3.17173E-05
466.2192,-3.167869E-05
466.3192,-3.170412E-05
466.4193,-3.168152E-05
466.5193,-3.167492E-05
466.6193,-3.165514E-05
466.7193,-3.165797E-05
466.8193,-3.165985E-05
466.9193,-3.164385E-05
467.0193,-3.16608E-05
467.1193,-3.169188E-05
467.2193,-3.166927E-05
467.3193,-3.164479E-05
467.4193,-3.171542E-05
467.5193,-3.164479E-05
467.6193,-3.164008E-05
467.7193,-3.167398E-05
467.8193,-3.164291E-05
467.9193,-3.161654E-05
468.0193,-3.1609E-05
468.1194,-3.162784E-05
468.2194,-3.157793E-05
468.3194,-3.15864E-05
468.4194,-3.160053E-05
468.5194,-3.155627E-05
468.6194,-3.153461E-05
468.7194,-3.157228E-05
468.8194,-3.157039E-05
468.9194,-3.152613E-05
469.0194,-3.156286E-05
469.1194,-3.15525E-05
469.2194,-3.154214E-05
469.3194,-3.154025E-05
469.4194,-3.156474E-05
469.5194,-3.15459E-05
469.6194,-3.152895E-05
469.7195,-3.154025E-05
469.8195,-3.153649E-05
469.9195,-3.150447E-05
470.0195,-3.150541E-05
470.1195,-3.150259E-05
470.2195,-3.146963E-05
470.3195,-3.147057E-05
470.4195,-3.149128E-05
470.5195,-3.147057E-05
470.6195,-3.145456E-05
470.7195,-3.147999E-05
470.8195,-3.145268E-05
470.9195,-3.142442E-05
471.0195,-3.142819E-05
471.1195,-3.141595E-05
471.2195,-3.139805E-05
471.3195,-3.142913E-05
471.4196,-3.143573E-05
471.5196,-3.142537E-05
471.6196,-3.141124E-05
471.7196,-3.143384E-05
471.8196,-3.139429E-05
471.9196,-3.140936E-05
472.0196,-3.139146E-05
472.1196,-3.135944E-05
472.2196,-3.137545E-05
472.3196,-3.137451E-05
472.4196,-3.136133E-05
472.5196,-3.134155E-05
472.6196,-3.133873E-05
472.7196,-3.132083E-05
472.8196,-3.12907E-05
472.9196,-3.13133E-05
473.0197,-3.132648E-05
473.1197,-3.129164E-05
473.2197,-3.132177E-05
473.3197,-3.134061E-05
473.4197,-3.127657E-05
473.5197,-3.132083E-05
473.6197,-3.131048E-05
473.7197,-3.127845E-05
473.8197,-3.131424E-05
473.9197,-3.129635E-05
474.0197,-3.128787E-05
474.1197,-3.125868E-05
474.2197,-3.12728E-05
474.3197,-3.125774E-05
474.4197,-3.124738E-05
474.5197,-3.125774E-05
474.6198,-3.12389E-05
474.7198,-3.12163E-05
474.8198,-3.123231E-05
474.9198,-3.120971E-05
475.0198,-3.121724E-05
475.1198,-3.119935E-05
475.2198,-3.119558E-05
475.3198,-3.118711E-05
475.4198,-3.116827E-05
475.5198,-3.118145E-05
475.6198,-3.117204E-05
475.7198,-3.113814E-05
475.8198,-3.115509E-05
475.9198,-3.114944E-05
476.0198,-3.109388E-05
476.1198,-3.113908E-05
476.2198,-3.112872E-05
476.3199,-3.107975E-05
476.4199,-3.110141E-05
476.5199,-3.111648E-05
476.6199,-3.107316E-05
476.7199,-3.106939E-05
476.8199,-3.106374E-05
476.9199,-3.107033E-05
477.0199,-3.102325E-05
477.1199,-3.103737E-05
477.2199,-3.105526E-05
477.3199,-3.101948E-05
477.4199,-3.104585E-05
477.5199,-3.104773E-05
477.6199,-3.100724E-05
477.7199,-3.104961E-05
477.8199,-3.105338E-05
477.92,-3.098087E-05
478.02,-3.098369E-05
478.12,-3.100629E-05
478.22,-3.096768E-05
478.32,-3.093943E-05
478.42,-3.09658E-05
478.52,-3.094697E-05
478.62,-3.093378E-05
478.72,-3.092625E-05
478.82,-3.090553E-05
478.92,-3.090647E-05
479.02,-3.090176E-05
479.12,-3.089517E-05
479.22,-3.08914E-05
479.32,-3.090271E-05
479.42,-3.088669E-05
479.5201,-3.086409E-05
479.6201,-3.084997E-05
479.7201,-3.085373E-05
479.8201,-3.083584E-05
479.9201,-3.084149E-05
480.0201,-3.083678E-05
480.1201,-3.081889E-05
480.2201,-3.080947E-05
480.3201,-3.082266E-05
480.4201,-3.078216E-05
480.5201,-3.078122E-05
480.6201,-3.078687E-05
480.7201,-3.078781E-05
480.8201,-3.076709E-05
480.9201,-3.077275E-05
481.0201,-3.077275E-05
481.1201,-3.076239E-05
481.2202,-3.073884E-05
481.3202,-3.074449E-05
481.4202,-3.073414E-05
481.5202,-3.070588E-05
481.6202,-3.070777E-05
481.7202,-3.074449E-05
481.8202,-3.069552E-05
481.9202,-3.069835E-05
482.0202,-3.071059E-05
482.1202,-3.068799E-05
482.2202,-3.067575E-05
482.3202,-3.067857E-05
482.4202,-3.065974E-05
482.5202,-3.064656E-05
482.6202,-3.065032E-05
482.7202,-3.064844E-05
482.8203,-3.062395E-05
482.9203,-3.062395E-05
483.0203,-3.060606E-05
483.1203,-3.058346E-05
483.2203,-3.059664E-05
483.3203,-3.061171E-05
483.4203,-3.058252E-05
483.5203,-3.058722E-05
483.6203,-3.058346E-05
483.7203,-3.056557E-05
483.8203,-3.055897E-05
483.9203,-3.054202E-05
484.0203,-3.051377E-05
484.1203,-3.057027E-05
484.2203,-3.052601E-05
484.3203,-3.04987E-05
484.4203,-3.051471E-05
484.5204,-3.051283E-05
484.6204,-3.045632E-05
484.7204,-3.045444E-05
484.8204,-3.04761E-05
484.9204,-3.047516E-05
485.0204,-3.043372E-05
485.1204,-3.047987E-05
485.2204,-3.046574E-05
485.3204,-3.042054E-05
485.4204,-3.04535E-05
485.5204,-3.044785E-05
485.6204,-3.039417E-05
485.7204,-3.040547E-05
485.8204,-3.04083E-05
485.9204,-3.038758E-05
486.0204,-3.035273E-05
486.1205,-3.036968E-05
486.2205,-3.036215E-05
486.3205,-3.03339E-05
486.4205,-3.035085E-05
486.5205,-3.030565E-05
486.6205,-3.03113E-05
486.7205,-3.031224E-05
486.8205,-3.030753E-05
486.9205,-3.030377E-05
487.0205,-3.025197E-05
487.1205,-3.028399E-05
487.2205,-3.028587E-05
487.3205,-3.026798E-05
487.4205,-3.025197E-05
487.5205,-3.025008E-05
487.6205,-3.023784E-05
487.7206,-3.020582E-05
487.8206,-3.022277E-05
487.9206,-3.021336E-05
488.0206,-3.021242E-05
488.1206,-3.021618E-05
488.2206,-3.018887E-05
488.3206,-3.026044E-05
488.4206,-3.020865E-05
488.5206,-3.020488E-05
488.6206,-3.024914E-05
488.7206,-3.023408E-05
488.8206,-3.021242E-05
488.9206,-3.022277E-05
489.0206,-3.022654E-05
489.1206,-3.020206E-05
489.2206,-3.018322E-05
489.3206,-3.017851E-05
489.4207,-3.01738E-05
489.5207,-3.018134E-05
489.6207,-3.014744E-05
489.7207,-3.012672E-05
489.8207,-3.014179E-05
489.9207,-3.012578E-05
490.0207,-3.010035E-05
490.1207,-3.010788E-05
490.2207,-3.010412E-05
490.3207,-3.009376E-05
490.4207,-3.008905E-05
490.5207,-3.008717E-05
490.6207,-3.008528E-05
490.7207,-3.007492E-05
490.8207,-3.004761E-05
490.9207,-3.008905E-05
491.0208,-3.003819E-05
491.1208,-3.003066E-05
491.2208,-3.006174E-05
491.3208,-3.001559E-05
491.4208,-3.002219E-05
491.5208,-3.001465E-05
491.6208,-3.004291E-05
491.7208,-3.001654E-05
491.8208,-2.998734E-05
491.9208,-3.00203E-05
492.0208,-3.002783E-05
492.1208,-3.000241E-05
492.2208,-3.002219E-05
492.3208,-3.000994E-05
492.4208,-2.997792E-05
492.5208,-3.000806E-05
492.6208,-2.998263E-05
492.7209,-2.99751E-05
492.8209,-2.997792E-05
492.9209,-2.996945E-05
493.0209,-2.993837E-05
493.1209,-2.992142E-05
493.2209,-2.992801E-05
493.3209,-2.989976E-05
493.4209,-2.991106E-05
493.5209,-2.992142E-05
493.6209,-2.989976E-05
493.7209,-2.988375E-05
493.8209,-2.990164E-05
493.9209,-2.987245E-05
494.0209,-2.986868E-05
494.1209,-2.985832E-05
494.2209,-2.986586E-05
494.321,-2.983855E-05
494.421,-2.984043E-05
494.521,-2.984231E-05
494.621,-2.981877E-05
494.721,-2.978675E-05
494.821,-2.981218E-05
494.921,-2.98037E-05
495.021,-2.977074E-05
495.121,-2.979052E-05
495.221,-2.979052E-05
495.321,-2.979146E-05
495.421,-2.977169E-05
495.521,-2.977451E-05
495.621,-2.974343E-05
495.721,-2.973308E-05
495.821,-2.975097E-05
495.9211,-2.974437E-05
496.0211,-2.976038E-05
496.1211,-2.975662E-05
496.2211,-2.974908E-05
496.3211,-2.972177E-05
496.4211,-2.970576E-05
496.5211,-2.96954E-05
496.6211,-2.971141E-05
496.7211,-2.973119E-05
496.8211,-2.969823E-05
496.9211,-2.969069E-05
497.0211,-2.972931E-05
497.1211,-2.967186E-05
497.2211,-2.966809E-05
497.3211,-2.968128E-05
497.4211,-2.969352E-05
497.5211,-2.966339E-05
497.6212,-2.965962E-05
497.7212,-2.967751E-05
497.8212,-2.961724E-05
497.9212,-2.962007E-05
498.0212,-2.964267E-05
498.1212,-2.9605E-05
498.2212,-2.957769E-05
498.3212,-2.961253E-05
498.4212,-2.963796E-05
498.5212,-2.960123E-05
498.6212,-2.96276E-05
498.7212,-2.96276E-05
498.8212,-2.961253E-05
498.9212,-2.96389E-05
499.0212,-2.961347E-05
499.1212,-2.958899E-05
499.2213,-2.95984E-05
499.3213,-2.961253E-05
499.4213,-2.958146E-05
499.5213,-2.957109E-05
499.6213,-2.958805E-05
499.7213,-2.957675E-05
499.8213,-2.956356E-05
499.9213,-2.958146E-05
500.0213,-2.954473E-05
500.1213,-2.952495E-05
500.2213,-2.95532E-05
500.3213,-2.953814E-05
500.4213,-2.949858E-05
500.5213,-2.949199E-05
500.6213,-2.950329E-05
500.7213,-2.948728E-05
500.8214,-2.94628E-05
500.9214,-2.949764E-05
501.0214,-2.947975E-05
501.1214,-2.944302E-05
501.2214,-2.944208E-05
501.3214,-2.944208E-05
501.4214,-2.943831E-05
501.5214,-2.942889E-05
501.6214,-2.940912E-05
501.7214,-2.938652E-05
501.8214,-2.942795E-05
501.9214,-2.941006E-05
502.0214,-2.937239E-05
502.1214,-2.938181E-05
502.2214,-2.938934E-05
502.3214,-2.935827E-05
502.4214,-2.935167E-05
502.5215,-2.935544E-05
502.6215,-2.933566E-05
502.7215,-2.93206E-05
502.8215,-2.932436E-05
502.9215,-2.93319E-05
503.0215,-2.931777E-05
503.1215,-2.9314E-05
503.2215,-2.933849E-05
503.3215,-2.932248E-05
503.4215,-2.934791E-05
503.5215,-2.937051E-05
503.6215,-2.933284E-05
503.7215,-2.939123E-05
503.8215,-2.937992E-05
503.9215,-2.936203E-05
504.0215,-2.934697E-05
504.1216,-2.93545E-05
504.2216,-2.934131E-05
504.3216,-2.929423E-05
504.4216,-2.931212E-05
504.5216,-2.932719E-05
504.6216,-2.92914E-05
504.7216,-2.928293E-05
504.8216,-2.928858E-05
504.9216,-2.928481E-05
505.0216,-2.925373E-05
505.1216,-2.925844E-05
505.2216,-2.92575E-05
505.3216,-2.921983E-05
505.4216,-2.921889E-05
505.5216,-2.921889E-05
505.6216,-2.920853E-05
505.7216,-2.919911E-05
505.8217,-2.92057E-05
505.9217,-2.918593E-05
506.0217,-2.91831E-05
506.1217,-2.915391E-05
506.2217,-2.915768E-05
506.3217,-2.916521E-05
506.4217,-2.918875E-05
506.5217,-2.913978E-05
506.6217,-2.918028E-05
506.7217,-2.91605E-05
506.8217,-2.915485E-05
506.9217,-2.916615E-05
507.0217,-2.915673E-05
507.1217,-2.911436E-05
507.2217,-2.910494E-05
507.3217,-2.914355E-05
507.4218,-2.912848E-05
507.5218,-2.906821E-05
507.6218,-2.912471E-05
507.7218,-2.911247E-05
507.8218,-2.90522E-05
507.9218,-2.908516E-05
508.0218,-2.907198E-05
508.1218,-2.906068E-05
508.2218,-2.903713E-05
508.3218,-2.905974E-05
508.4218,-2.905974E-05
508.5218,-2.902489E-05
508.6218,-2.903243E-05
508.7218,-2.907292E-05
508.8218,-2.901924E-05
508.9218,-2.902112E-05
509.0219,-2.903996E-05
509.1219,-2.9007E-05
509.2219,-2.89957E-05
509.3219,-2.89957E-05
509.4219,-2.897216E-05
509.5219,-2.897216E-05
509.6219,-2.896839E-05
509.7219,-2.894579E-05
509.8219,-2.895238E-05
509.9219,-2.895614E-05
510.0219,-2.893919E-05
510.1219,-2.893637E-05
510.2219,-2.890623E-05
510.3219,-2.891471E-05
510.4219,-2.889776E-05
510.5219,-2.890247E-05
510.6219,-2.890906E-05
510.722,-2.88535E-05
510.822,-2.891377E-05
510.922,-2.887327E-05
511.022,-2.882901E-05
511.122,-2.88874E-05
511.222,-2.886856E-05
511.322,-2.881489E-05
511.422,-2.883655E-05
511.522,-2.886103E-05
511.622,-2.880641E-05
511.722,-2.879793E-05
511.822,-2.879699E-05
511.922,-2.879228E-05
512.022,-2.875273E-05
512.122,-2.87904E-05
512.222,-2.879228E-05
512.322,-2.875744E-05
512.4219,-2.879228E-05
512.5219,-2.882148E-05
512.6219,-2.874896E-05
512.7219,-2.879511E-05
512.8218,-2.876121E-05
512.9218,-2.875556E-05
513.0218,-2.879888E-05
513.1218,-2.879417E-05
513.2217,-2.877627E-05
513.3217,-2.876874E-05
513.4217,-2.878098E-05
513.5217,-2.875932E-05
513.6216,-2.87565E-05
513.7216,-2.874237E-05
513.8216,-2.874143E-05
513.9216,-2.87273E-05
514.0215,-2.87386E-05
514.1215,-2.870941E-05
514.2215,-2.870376E-05
514.3215,-2.870376E-05
514.4214,-2.867551E-05
514.5214,-2.867268E-05
514.6214,-2.866892E-05
514.7214,-2.866703E-05
514.8214,-2.865856E-05
514.9213,-2.866515E-05
515.0213,-2.864632E-05
515.1213,-2.862089E-05
515.2213,-2.863972E-05
515.3212,-2.864066E-05
515.4212,-2.860959E-05
515.5212,-2.860205E-05
515.6212,-2.864349E-05
515.7211,-2.863501E-05
515.8211,-2.858322E-05
515.9211,-2.860865E-05
516.0211,-2.861147E-05
516.121,-2.858699E-05
516.221,-2.855685E-05
516.321,-2.859358E-05
516.421,-2.856062E-05
516.5209,-2.855026E-05
516.6209,-2.856721E-05
516.7209,-2.856815E-05
516.8209,-2.855214E-05
516.9208,-2.856439E-05
517.0208,-2.852578E-05
517.1208,-2.852107E-05
517.2208,-2.85286E-05
517.3207,-2.854084E-05
517.4207,-2.848716E-05
517.5207,-2.850411E-05
517.6207,-2.850317E-05
517.7206,-2.84721E-05
517.8206,-2.845985E-05
517.9206,-2.848245E-05
518.0206,-2.845609E-05
518.1205,-2.84203E-05
518.2205,-2.846362E-05
518.3205,-2.847963E-05
518.4205,-2.843819E-05
518.5204,-2.843819E-05
518.6204,-2.846833E-05
518.7204,-2.842689E-05
518.8204,-2.839676E-05
518.9203,-2.842124E-05
519.0203,-2.842407E-05
519.1203,-2.838546E-05
519.2203,-2.839393E-05
519.3203,-2.842124E-05
519.4202,-2.834308E-05
519.5202,-2.837416E-05
519.6202,-2.838828E-05
519.7202,-2.834967E-05
519.8201,-2.83459E-05
519.9201,-2.836662E-05
520.0201,-2.833272E-05
520.1201,-2.834025E-05
520.22,-2.832424E-05
520.32,-2.832707E-05
520.42,-2.832424E-05
520.52,-2.832707E-05
520.6199,-2.83233E-05
520.7199,-2.834402E-05
520.8199,-2.835155E-05
520.9199,-2.829976E-05
521.0198,-2.829976E-05
521.1198,-2.832236E-05
521.2198,-2.827904E-05
521.3198,-2.829693E-05
521.4197,-2.829693E-05
521.5197,-2.826868E-05
521.6197,-2.826962E-05
521.7197,-2.830729E-05
521.8196,-2.827339E-05
521.9196,-2.823949E-05
522.0196,-2.828846E-05
522.1196,-2.830729E-05
522.2195,-2.826115E-05
522.3195,-2.821783E-05
522.4195,-2.829128E-05
522.5195,-2.82442E-05
522.6194,-2.820841E-05
522.7194,-2.823478E-05
522.8194,-2.824608E-05
522.9194,-2.819617E-05
523.0193,-2.819805E-05
523.1193,-2.823196E-05
523.2193,-2.820182E-05
523.3193,-2.81811E-05
523.4193,-2.819052E-05
523.5192,-2.820464E-05
523.6192,-2.816415E-05
523.7192,-2.816509E-05
523.8192,-2.817168E-05
523.9191,-2.816603E-05
524.0191,-2.818864E-05
524.1191,-2.816697E-05
524.2191,-2.816132E-05
524.319,-2.819994E-05
524.419,-2.816886E-05
524.519,-2.815191E-05
524.619,-2.815662E-05
524.7189,-2.815379E-05
524.8189,-2.813684E-05
524.9189,-2.812271E-05
525.0189,-2.814155E-05
525.1188,-2.810859E-05
525.2188,-2.810199E-05
525.3188,-2.813872E-05
525.4188,-2.81067E-05
525.5187,-2.806809E-05
525.6187,-2.808881E-05
525.7187,-2.810953E-05
525.8187,-2.807845E-05
525.9186,-2.806244E-05
526.0186,-2.805585E-05
526.1186,-2.805397E-05
526.2186,-2.805774E-05
526.3185,-2.803701E-05
526.4185,-2.803796E-05
526.5185,-2.803419E-05
526.6185,-2.802101E-05
526.7184,-2.803231E-05
526.8184,-2.8005E-05
526.9184,-2.804078E-05
527.0184,-2.803796E-05
527.1183,-2.798805E-05
527.2183,-2.804926E-05
527.3183,-2.805774E-05
527.4183,-2.800123E-05
527.5182,-2.802006E-05
527.6182,-2.802006E-05
527.7182,-2.798522E-05
527.8182,-2.798428E-05
527.9182,-2.798993E-05
528.0181,-2.797674E-05
528.1181,-2.795979E-05
528.2181,-2.795697E-05
528.3181,-2.797298E-05
528.418,-2.795602E-05
528.518,-2.793719E-05
528.618,-2.795791E-05
528.718,-2.793625E-05
528.8179,-2.792589E-05
528.9179,-2.791459E-05
529.0179,-2.788916E-05
529.1179,-2.793437E-05
529.2178,-2.790517E-05
529.3178,-2.78854E-05
529.4178,-2.791459E-05
529.5178,-2.791647E-05
529.6177,-2.784961E-05
529.7177,-2.78562E-05
529.8177,-2.789293E-05
529.9177,-2.78788E-05
530.0176,-2.783831E-05
530.1176,-2.785432E-05
530.2176,-2.787975E-05
530.3176,-2.785432E-05
530.4175,-2.783925E-05
530.5175,-2.785338E-05
530.6175,-2.780064E-05
530.7175,-2.782042E-05
530.8174,-2.782136E-05
530.9174,-2.781665E-05
531.0174,-2.782324E-05
531.1174,-2.781288E-05
531.2173,-2.778369E-05
531.3173,-2.779216E-05
531.4173,-2.780629E-05
531.5173,-2.777992E-05
531.6172,-2.77771E-05
531.7172,-2.779405E-05
531.8172,-2.777804E-05
531.9172,-2.778463E-05
532.0172,-2.776674E-05
532.1171,-2.777427E-05
532.2171,-2.77432E-05
532.3171,-2.77432E-05
532.4171,-2.774696E-05
532.517,-2.775167E-05
532.617,-2.777145E-05
532.717,-2.777051E-05
532.817,-2.776486E-05
532.9169,-2.775732E-05
533.0169,-2.774508E-05
533.1169,-2.773849E-05
533.2169,-2.773472E-05
533.3168,-2.770741E-05
533.4168,-2.768952E-05
533.5168,-2.772719E-05
533.6168,-2.770459E-05
533.7167,-2.767445E-05
533.8167,-2.769422E-05
533.9167,-2.768952E-05
534.0167,-2.766597E-05
534.1166,-2.766126E-05
534.2166,-2.76914E-05
534.3166,-2.765185E-05
534.4166,-2.76236E-05
534.5165,-2.767351E-05
534.6165,-2.765844E-05
534.7165,-2.763584E-05
534.8165,-2.764996E-05
534.9164,-2.765467E-05
535.0164,-2.763772E-05
535.1164,-2.760288E-05
535.2164,-2.761418E-05
535.3163,-2.764808E-05
535.4163,-2.759534E-05
535.5163,-2.760947E-05
535.6163,-2.763396E-05
535.7162,-2.759158E-05
535.8162,-2.758499E-05
535.9162,-2.758593E-05
536.0162,-2.757745E-05
536.1161,-2.756332E-05
536.2161,-2.754732E-05
536.3161,-2.756332E-05
536.4161,-2.755673E-05
536.5161,-2.752566E-05
536.616,-2.755014E-05
536.716,-2.754072E-05
536.816,-2.754072E-05
536.916,-2.75379E-05
537.0159,-2.751812E-05
537.1159,-2.751624E-05
537.2159,-2.751624E-05
537.3159,-2.75087E-05
537.4158,-2.747103E-05
537.5158,-2.747386E-05
537.6158,-2.747103E-05
537.7158,-2.746538E-05
537.8157,-2.747386E-05
537.9157,-2.744938E-05
538.0157,-2.745126E-05
538.1157,-2.745879E-05
538.2156,-2.742677E-05
538.3156,-2.744749E-05
538.4156,-2.743148E-05
538.5156,-2.741924E-05
538.6155,-2.742771E-05
538.7155,-2.744749E-05
538.8155,-2.742395E-05
538.9155,-2.740794E-05
539.0154,-2.742677E-05
539.1154,-2.740229E-05
539.2154,-2.73778E-05
539.3154,-2.73957E-05
539.4153,-2.736933E-05
539.5153,-2.737686E-05
539.6153,-2.739758E-05
539.7153,-2.738063E-05
539.8152,-2.73552E-05
539.9152,-2.73552E-05
540.0152,-2.737969E-05
540.1152,-2.73618E-05
540.2151,-2.731942E-05
540.3151,-2.735237E-05
540.4151,-2.734861E-05
540.5151,-2.733166E-05
540.6151,-2.735049E-05
540.715,-2.735049E-05
540.815,-2.733731E-05
540.915,-2.734013E-05
541.015,-2.73326E-05
541.1149,-2.732695E-05
541.2149,-2.728551E-05
541.3149,-2.72808E-05
541.4149,-2.72987E-05
541.5148,-2.726197E-05
541.6148,-2.731848E-05
541.7148,-2.730812E-05
541.8148,-2.724879E-05
541.9147,-2.729211E-05
542.0147,-2.728175E-05
542.1147,-2.725067E-05
542.2147,-2.725538E-05
542.3146,-2.726668E-05
542.4146,-2.722618E-05
542.5146,-2.72243E-05
542.6146,-2.723655E-05
542.7145,-2.721959E-05
542.8145,-2.721018E-05
542.9145,-2.721582E-05
543.0145,-2.719793E-05
543.1144,-2.719228E-05
543.2144,-2.718286E-05
543.3144,-2.72017E-05
543.4144,-2.713389E-05
543.5143,-2.717816E-05
543.6143,-2.718757E-05
543.7143,-2.716026E-05
543.8143,-2.713578E-05
543.9142,-2.715461E-05
544.0142,-2.716309E-05
544.1142,-2.7116E-05
544.2142,-2.71273E-05
544.3141,-2.715085E-05
544.4141,-2.711694E-05
544.5141,-2.711694E-05
544.6141,-2.71273E-05
544.7141,-2.711318E-05
544.814,-2.709057E-05
544.914,-2.710941E-05
545.014,-2.709623E-05
545.114,-2.709623E-05
545.2139,-2.707362E-05
545.3139,-2.706138E-05
545.4139,-2.707833E-05
545.5139,-2.706421E-05
545.6138,-2.705667E-05
545.7138,-2.704537E-05
545.8138,-2.706892E-05
545.9138,-2.701712E-05
546.0137,-2.701241E-05
546.1137,-2.704349E-05
546.2137,-2.704066E-05
546.3137,-2.7019E-05
546.4136,-2.701618E-05
546.5136,-2.702089E-05
546.6136,-2.697851E-05
546.7136,-2.699923E-05
546.8135,-2.698416E-05
546.9135,-2.699075E-05
547.0135,-2.704443E-05
547.1135,-2.70256E-05
547.2134,-2.70077E-05
547.3134,-2.70595E-05
547.4134,-2.703972E-05
547.5134,-2.700582E-05
547.6133,-2.699263E-05
547.7133,-2.701712E-05
547.8133,-2.698416E-05
547.9133,-2.697474E-05
548.0132,-2.698039E-05
548.1132,-2.698228E-05
548.2132,-2.693801E-05
548.3132,-2.699263E-05
548.4131,-2.695214E-05
548.5131,-2.693707E-05
548.6131,-2.694932E-05
548.7131,-2.694178E-05
548.813,-2.695214E-05
548.913,-2.692201E-05
549.013,-2.692389E-05
549.113,-2.689375E-05
549.213,-2.690882E-05
549.3129,-2.692483E-05
549.4129,-2.687869E-05
549.5129,-2.685138E-05
549.6129,-2.690035E-05
549.7128,-2.690882E-05
549.8128,-2.687115E-05
549.9128,-2.690223E-05
550.0128,-2.689846E-05
550.1127,-2.686173E-05
550.2127,-2.689375E-05
550.3127,-2.689187E-05
550.4127,-2.686644E-05
550.5126,-2.685797E-05
550.6126,-2.68834E-05
550.7126,-2.689093E-05
550.8126,-2.684761E-05
550.9125,-2.685608E-05
551.0125,-2.689281E-05
551.1125,-2.682218E-05
551.2125,-2.683725E-05
551.3124,-2.686927E-05
551.4124,-2.683348E-05
551.5124,-2.680806E-05
551.6124,-2.682972E-05
551.7123,-2.681936E-05
551.8123,-2.680241E-05
551.9123,-2.678828E-05
552.0123,-2.682218E-05
552.1122,-2.680523E-05
552.2122,-2.67685E-05
552.3122,-2.679299E-05
552.4122,-2.67911E-05
552.5121,-2.676097E-05
552.6121,-2.678734E-05
552.7121,-2.676097E-05
552.8121,-2.675061E-05
552.912,-2.67751E-05
553.012,-2.677321E-05
553.112,-2.674778E-05
553.212,-2.676097E-05
553.312,-2.678169E-05
553.4119,-2.673366E-05
553.5119,-2.671953E-05
553.6119,-2.672801E-05
553.7119,-2.672707E-05
553.8118,-2.675061E-05
553.9118,-2.673837E-05
554.0118,-2.672895E-05
554.1118,-2.675155E-05
554.2117,-2.671388E-05
554.3117,-2.670729E-05
554.4117,-2.672236E-05
554.5117,-2.672047E-05
554.6116,-2.671765E-05
554.7116,-2.670635E-05
554.8116,-2.671012E-05
554.9116,-2.671106E-05
555.0115,-2.668657E-05
555.1115,-2.672424E-05
555.2115,-2.670635E-05
555.3115,-2.666586E-05
555.4114,-2.670352E-05
555.5114,-2.668469E-05
555.6114,-2.667056E-05
555.7114,-2.665079E-05
555.8113,-2.668092E-05
555.9113,-2.666209E-05
556.0113,-2.662724E-05
556.1113,-2.665267E-05
556.2112,-2.666586E-05
556.3112,-2.661123E-05
556.4112,-2.663949E-05
556.5112,-2.664796E-05
556.6111,-2.6615E-05
556.7111,-2.661594E-05
556.8111,-2.663949E-05
556.9111,-2.659993E-05
557.011,-2.660841E-05
557.111,-2.661406E-05
557.211,-2.659523E-05
557.311,-2.657168E-05
557.4109,-2.65698E-05
557.5109,-2.660747E-05
557.6109,-2.657545E-05
557.7109,-2.658675E-05
557.8109,-2.660747E-05
557.9108,-2.658392E-05
558.0108,-2.660276E-05
558.1108,-2.657827E-05
558.2108,-2.657827E-05
558.3107,-2.660558E-05
558.4107,-2.659052E-05
558.5107,-2.657356E-05
558.6107,-2.656792E-05
558.7106,-2.656038E-05
558.8106,-2.654343E-05
558.9106,-2.653307E-05
559.0106,-2.652742E-05
559.1105,-2.654908E-05
559.2105,-2.650199E-05
559.3105,-2.65293E-05
559.4105,-2.653118E-05
559.5104,-2.649258E-05
559.6104,-2.651706E-05
559.7104,-2.652742E-05
559.8104,-2.650576E-05
559.9103,-2.651141E-05
560.0103,-2.649163E-05
560.1103,-2.649729E-05
560.2103,-2.646809E-05
560.3102,-2.647845E-05
560.4102,-2.648033E-05
560.5102,-2.648128E-05
560.6102,-2.647374E-05
560.7101,-2.64728E-05
560.8101,-2.647186E-05
560.9101,-2.647092E-05
561.0101,-2.646244E-05
561.11,-2.64323E-05
561.21,-2.646997E-05
561.31,-2.644172E-05
561.41,-2.642195E-05
561.5099,-2.645773E-05
561.6099,-2.64502E-05
561.7099,-2.640688E-05
561.8099,-2.645208E-05
561.9099,-2.646527E-05
562.0098,-2.642006E-05
562.1098,-2.641065E-05
562.2098,-2.641536E-05
562.3098,-2.642948E-05
562.4097,-2.641724E-05
562.5097,-2.646056E-05
562.6097,-2.646527E-05
562.7097,-2.640876E-05
562.8096,-2.645961E-05
562.9096,-2.643042E-05
563.0096,-2.641724E-05
563.1096,-2.642571E-05
563.2095,-2.641441E-05
563.3095,-2.639463E-05
563.4095,-2.637392E-05
563.5095,-2.639463E-05
563.6094,-2.64097E-05
563.7094,-2.635414E-05
563.8094,-2.639935E-05
563.9094,-2.639369E-05
564.0093,-2.637298E-05
564.1093,-2.641253E-05
564.2093,-2.640311E-05
564.3093,-2.637109E-05
564.4092,-2.638145E-05
564.5092,-2.63871E-05
564.6092,-2.634096E-05
564.7092,-2.633342E-05
564.8091,-2.637204E-05
564.9091,-2.633719E-05
565.0091,-2.630611E-05
565.1091,-2.638239E-05
565.209,-2.632118E-05
565.309,-2.631553E-05
565.409,-2.633248E-05
565.509,-2.634378E-05
565.6089,-2.628634E-05
565.7089,-2.63014E-05
565.8089,-2.632589E-05
565.9089,-2.627221E-05
566.0089,-2.628728E-05
566.1088,-2.632212E-05
566.2088,-2.626091E-05
566.3088,-2.624773E-05
566.4088,-2.627033E-05
566.5087,-2.62967E-05
566.6087,-2.62675E-05
566.7087,-2.627975E-05
566.8087,-2.628634E-05
566.9086,-2.62675E-05
567.0086,-2.627221E-05
567.1086,-2.628822E-05
567.2086,-2.626562E-05
567.3085,-2.623925E-05
567.4085,-2.62901E-05
567.5085,-2.62967E-05
567.6085,-2.623925E-05
567.7084,-2.628069E-05
567.8084,-2.626844E-05
567.9084,-2.624773E-05
568.0084,-2.624773E-05
568.1083,-2.622607E-05
568.2083,-2.6211E-05
568.3083,-2.623831E-05
568.4083,-2.621947E-05
568.5082,-2.622041E-05
568.6082,-2.623642E-05
568.7082,-2.620535E-05
568.8082,-2.619311E-05
568.9081,-2.626091E-05
569.0081,-2.625243E-05
569.1081,-2.620252E-05
569.2081,-2.620911E-05
569.308,-2.626185E-05
569.408,-2.619781E-05
569.508,-2.621382E-05
569.608,-2.6211E-05
569.7079,-2.62223E-05
569.8079,-2.618463E-05
569.9079,-2.618463E-05
570.0079,-2.620535E-05
570.1078,-2.617709E-05
570.2078,-2.616297E-05
570.3078,-2.620064E-05
570.4078,-2.616956E-05
570.5078,-2.615073E-05
570.6077,-2.616109E-05
570.7077,-2.618557E-05
570.8077,-2.617239E-05
570.9077,-2.616956E-05
571.0076,-2.618651E-05
571.1076,-2.617898E-05
571.2076,-2.615355E-05
571.3076,-2.616862E-05
571.4075,-2.614696E-05
571.5075,-2.616015E-05
571.6075,-2.613848E-05
571.7075,-2.61366E-05
571.8074,-2.614884E-05
571.9074,-2.61479E-05
572.0074,-2.610929E-05
572.1074,-2.613095E-05
572.2073,-2.615355E-05
572.3073,-2.610458E-05
572.4073,-2.611306E-05
572.5073,-2.616015E-05
572.6072,-2.610552E-05
572.7072,-2.609422E-05
572.8072,-2.612718E-05
572.9072,-2.612718E-05
573.0071,-2.608669E-05
573.1071,-2.609799E-05
573.2071,-2.611871E-05
573.3071,-2.607821E-05
573.407,-2.609422E-05
573.507,-2.610929E-05
573.607,-2.605844E-05
573.707,-2.606691E-05
573.8069,-2.611212E-05
573.9069,-2.610082E-05
574.0069,-2.602925E-05
574.1069,-2.611965E-05
574.2068,-2.611306E-05
574.3068,-2.604337E-05
574.4068,-2.606974E-05
574.5068,-2.608198E-05
574.6068,-2.605467E-05
574.7067,-2.603019E-05
574.8067,-2.604149E-05
574.9067,-2.605844E-05
575.0067,-2.601229E-05
575.1066,-2.60057E-05
575.2066,-2.606974E-05
575.3066,-2.601323E-05
575.4066,-2.600947E-05
575.5065,-2.604902E-05
575.6065,-2.601888E-05
575.7065,-2.601983E-05
575.8065,-2.602359E-05
575.9064,-2.603301E-05
576.0064,-2.600382E-05
576.1064,-2.601512E-05
576.2064,-2.601983E-05
576.3063,-2.6017E-05
576.4063,-2.600758E-05
576.5063,-2.600476E-05
576.6063,-2.599722E-05
576.7062,-2.59944E-05
576.8062,-2.600099E-05
576.9062,-2.600476E-05
577.0062,-2.600288E-05
577.1061,-2.600758E-05
577.2061,-2.599817E-05
577.3061,-2.600382E-05
577.4061,-2.598498E-05
577.506,-2.59605E-05
577.606,-2.599158E-05
577.706,-2.596238E-05
577.806,-2.597745E-05
577.9059,-2.596144E-05
578.0059,-2.595485E-05
578.1059,-2.595673E-05
578.2059,-2.596427E-05
578.3058,-2.595108E-05
578.4058,-2.593601E-05
578.5058,-2.594825E-05
578.6058,-2.595955E-05
578.7057,-2.593225E-05
578.8057,-2.592189E-05
578.9057,-2.596238E-05
579.0057,-2.594543E-05
579.1057,-2.593601E-05
579.2056,-2.592753E-05
579.3056,-2.592942E-05
579.4056,-2.590588E-05
579.5056,-2.589552E-05
579.6055,-2.594731E-05
579.7055,-2.594072E-05
579.8055,-2.590117E-05
579.9055,-2.594449E-05
580.0054,-2.594261E-05
580.1054,-2.588233E-05
580.2054,-2.59379E-05
580.3054,-2.591059E-05
580.4053,-2.588987E-05
580.5053,-2.590964E-05
580.6053,-2.589834E-05
580.7053,-2.589081E-05
580.8052,-2.586727E-05
580.9052,-2.588798E-05
581.0052,-2.591718E-05
581.1052,-2.585973E-05
581.2051,-2.588516E-05
581.3051,-2.590682E-05
581.4051,-2.586067E-05
581.5051,-2.586727E-05
581.605,-2.589081E-05
581.705,-2.586915E-05
581.805,-2.585879E-05
581.905,-2.585032E-05
582.0049,-2.586915E-05
582.1049,-2.585785E-05
582.2049,-2.582865E-05
582.3049,-2.585314E-05
582.4048,-2.584278E-05
582.5048,-2.581171E-05
582.6048,-2.5823E-05
582.7048,-2.58183E-05
582.8047,-2.580323E-05
582.9047,-2.579852E-05
583.0047,-2.580229E-05
583.1047,-2.580982E-05
583.2047,-2.579099E-05
583.3046,-2.579004E-05
583.4046,-2.578816E-05
583.5046,-2.579099E-05
583.6046,-2.57778E-05
583.7045,-2.572789E-05
583.8045,-2.579193E-05
583.9045,-2.577498E-05
584.0045,-2.573637E-05
584.1044,-2.577874E-05
584.2044,-2.575426E-05
584.3044,-2.573731E-05
584.4044,-2.574767E-05
584.5043,-2.573542E-05
584.6043,-2.57213E-05
584.7043,-2.572224E-05
584.8043,-2.574107E-05
584.9042,-2.573071E-05
585.0042,-2.570341E-05
585.1042,-2.572789E-05
585.2042,-2.571659E-05
585.3041,-2.569587E-05
585.4041,-2.570623E-05
585.5041,-2.569587E-05
585.6041,-2.566103E-05
585.704,-2.568834E-05
585.804,-2.569964E-05
585.904,-2.566103E-05
586.004,-2.569305E-05
586.1039,-2.570058E-05
586.2039,-2.567045E-05
586.3039,-2.569493E-05
586.4039,-2.569964E-05
586.5038,-2.568645E-05
586.6038,-2.564973E-05
586.7038,-2.56808E-05
586.8038,-2.56808E-05
586.9037,-2.564502E-05
587.0037,-2.565726E-05
587.1037,-2.567327E-05
587.2037,-2.564502E-05
587.3036,-2.564125E-05
587.4036,-2.564502E-05
587.5036,-2.56469E-05
587.6036,-2.563748E-05
587.7036,-2.562336E-05
587.8035,-2.562336E-05
587.9035,-2.56243E-05
588.0035,-2.562148E-05
588.1035,-2.560452E-05
588.2034,-2.561771E-05
588.3034,-2.561488E-05
588.4034,-2.557344E-05
588.5034,-2.558286E-05
588.6033,-2.560923E-05
588.7033,-2.557533E-05
588.8033,-2.555273E-05
588.9033,-2.558663E-05
589.0032,-2.560829E-05
589.1032,-2.55565E-05
589.2032,-2.559887E-05
589.3032,-2.560923E-05
589.4031,-2.559416E-05
589.5031,-2.558852E-05
589.6031,-2.561677E-05
589.7031,-2.559416E-05
589.803,-2.559134E-05
589.903,-2.560076E-05
590.003,-2.561206E-05
590.103,-2.559793E-05
590.2029,-2.559793E-05
590.3029,-2.558663E-05
590.4029,-2.557721E-05
590.5029,-2.558286E-05
590.6028,-2.555461E-05
590.7028,-2.553484E-05
590.8028,-2.555555E-05
590.9028,-2.554048E-05
591.0027,-2.553766E-05
591.1027,-2.551223E-05
591.2027,-2.555085E-05
591.3027,-2.553295E-05
591.4026,-2.55047E-05
591.5026,-2.556685E-05
591.6026,-2.550753E-05
591.7026,-2.548492E-05
591.8026,-2.552542E-05
591.9025,-2.5516E-05
592.0025,-2.547268E-05
592.1025,-2.548775E-05
592.2025,-2.55047E-05
592.3024,-2.548304E-05
592.4024,-2.54821E-05
592.5024,-2.547268E-05
592.6024,-2.546891E-05
592.7023,-2.545291E-05
592.8023,-2.545008E-05
592.9023,-2.545667E-05
593.0023,-2.545291E-05
593.1022,-2.546891E-05
593.2022,-2.544537E-05
593.3022,-2.543501E-05
593.4022,-2.547739E-05
593.5021,-2.543219E-05
593.6021,-2.54077E-05
593.7021,-2.543313E-05
593.8021,-2.541994E-05
593.902,-2.542183E-05
594.002,-2.540676E-05
594.102,-2.540582E-05
594.202,-2.541053E-05
594.3019,-2.54077E-05
594.4019,-2.540017E-05
594.5019,-2.535496E-05
594.6019,-2.537945E-05
594.7018,-2.539169E-05
594.8018,-2.54077E-05
594.9018,-2.534178E-05
595.0018,-2.543407E-05
595.1017,-2.539923E-05
595.2017,-2.536062E-05
595.3017,-2.540676E-05
595.4017,-2.538887E-05
595.5016,-2.535214E-05
595.6016,-2.534178E-05
595.7016,-2.536438E-05
595.8016,-2.536438E-05
595.9016,-2.531353E-05
596.0015,-2.536344E-05
596.1015,-2.536815E-05
596.2015,-2.530976E-05
596.3015,-2.535308E-05
596.4014,-2.536721E-05
596.5014,-2.530788E-05
596.6014,-2.530694E-05
596.7014,-2.533801E-05
596.8013,-2.529469E-05
596.9013,-2.52994E-05
597.0013,-2.534461E-05
597.1013,-2.528716E-05
597.2012,-2.525702E-05
597.3012,-2.531353E-05
597.4012,-2.530034E-05
597.5012,-2.525891E-05
597.6011,-2.528904E-05
597.7011,-2.532389E-05
597.8011,-2.527492E-05
597.9011,-2.529093E-05
598.001,-2.531824E-05
598.101,-2.529375E-05
598.201,-2.530505E-05
598.301,-2.528339E-05
598.4009,-2.527774E-05
598.5009,-2.526267E-05
598.6009,-2.52542E-05
598.7009,-2.527209E-05
598.8008,-2.524384E-05
598.9008,-2.524384E-05
599.0008,-2.52316E-05
599.1008,-2.520052E-05
599.2007,-2.523819E-05
599.3007,-2.52203E-05
599.4007,-2.519016E-05
599.5007,-2.520711E-05
599.6006,-2.52316E-05
599.7006,-2.517039E-05
599.8006,-2.520335E-05
599.9006,-2.523254E-05
600.0005,-2.513742E-05
