EXPID. 0387
[电化学]: i-t : @ 0(V) X 600(sec)
起始电位 (V),0
静置时间 (秒),0
运行时间 (秒),600
记录间隔,0.1
电解液 信息:
HNO3,0.4
0.1,-0.01005814
0.2,-0.01005814
0.3,-0.01005814
0.4,-0.01005814
0.5,-0.01005814
0.6,0.002677001
0.7,0.003408277
0.8000001,0.0001400112
0.9000001,-0.002578731
1,-0.003658594
1.1,-0.003846719
1.2,-0.003813251
1.3,-0.003753384
1.4,-0.003670177
1.5,-0.00356511
1.6,-0.003444426
1.7,-0.003318714
1.8,-0.003203841
1.9,-0.003102417
2,-0.003010152
2.1,-0.002922733
2.2,-0.002842007
2.3,-0.002767415
2.4,-0.002689721
2.5,-0.002611395
2.6,-0.002525097
2.7,-0.002430199
2.799999,-0.002326503
2.899999,-0.002234583
2.999999,-0.002148763
3.099999,-0.002072023
3.199999,-0.00200496
3.299999,-0.001944097
3.399999,-0.001892154
3.499999,-0.001845024
3.599999,-0.001802593
3.699999,-0.001765336
3.799999,-0.001729148
3.899998,-0.001698812
3.999998,-0.001668473
4.099998,-0.001640802
4.199998,-0.001616419
4.299998,-0.001591894
4.399998,-0.001568301
4.499998,-0.001546976
4.599998,-0.001526197
4.699998,-0.001507266
4.799998,-0.0014888
4.899998,-0.001471406
4.999998,-0.001455632
5.099998,-0.001439679
5.199997,-0.001425711
5.299997,-0.001411341
5.399997,-0.001397401
5.499997,-0.001385315
5.599997,-0.001372636
5.699997,-0.001360648
5.799997,-0.001349078
5.899997,-0.001337596
5.999997,-0.001325883
6.099997,-0.00131501
6.199996,-0.001303816
6.299996,-0.00129374
6.399996,-0.001283161
6.499996,-0.001273822
6.599996,-0.001264365
6.699996,-0.001255017
6.799996,-0.001246468
6.899996,-0.001238011
6.999996,-0.00122942
7.099996,-0.001221405
7.199996,-0.001213324
7.299995,-0.00120547
7.399995,-0.001198085
7.499995,-0.00119017
7.599995,-0.001182987
7.699995,-0.001176059
7.799995,-0.001168852
7.899995,-0.001162243
7.999995,-0.001155673
8.099995,-0.001149277
8.199995,-0.001142999
8.299995,-0.001136909
8.399996,-0.001131057
8.499996,-0.001124861
8.599997,-0.001118877
8.699997,-0.001113478
8.799997,-0.00110764
8.899998,-0.001102168
8.999998,-0.001096736
9.099998,-0.001091431
9.199999,-0.001086176
9.299999,-0.001080937
9.4,-0.001076111
9.5,-0.001070887
9.6,-0.001066057
9.700001,-0.001061473
9.800001,-0.001056704
9.900002,-0.001051956
10,-0.001047538
10.1,-0.001042992
10.2,-0.001038483
10.3,-0.001034039
10.4,-0.001029749
10.5,-0.001025323
10.6,-0.001021195
10.7,-0.001017458
10.8,-0.001013092
10.90001,-0.001009296
11.00001,-0.001005379
11.10001,-0.001001537
11.20001,-0.0009976776
11.30001,-0.0009940038
11.40001,-0.0009905213
11.50001,-0.0009866169
11.60001,-0.00098356
11.70001,-0.0009798741
11.80001,-0.0009764415
11.90001,-0.0009732905
12.00001,-0.000969968
12.10001,-0.0009663621
12.20001,-0.0009631716
12.30001,-0.0009597936
12.40001,-0.0009565795
12.50001,-0.0009532853
12.60001,-0.0009499968
12.70001,-0.0009467685
12.80001,-0.0009436061
12.90001,-0.000940538
13.00001,-0.0009373342
13.10001,-0.0009341427
13.20001,-0.0009313768
13.30001,-0.0009281401
13.40001,-0.0009251944
13.50002,-0.0009223532
13.60002,-0.0009192794
13.70002,-0.0009164033
13.80002,-0.0009138145
13.90002,-0.0009108357
14.00002,-0.000908051
14.10002,-0.0009052099
14.20002,-0.0009025985
14.30002,-0.0008999513
14.40002,-0.0008971345
14.50002,-0.000894735
14.60002,-0.000892035
14.70002,-0.0008893257
14.80002,-0.000887026
14.90002,-0.0008844192
15.00002,-0.0008817278
15.10002,-0.0008792388
15.20002,-0.0008766189
15.30002,-0.0008741083
15.40002,-0.0008715929
15.50002,-0.0008690954
15.60002,-0.0008667278
15.70002,-0.0008642229
15.80002,-0.0008618874
15.90002,-0.0008595368
16.00002,-0.000857077
16.10003,-0.0008547519
16.20003,-0.0008525003
16.30003,-0.0008501157
16.40003,-0.0008478104
16.50003,-0.0008456096
16.60003,-0.0008433221
16.70003,-0.000841061
16.80003,-0.0008390664
16.90003,-0.0008367818
17.00003,-0.0008345357
17.10003,-0.0008324508
17.20003,-0.000830216
17.30003,-0.0008279973
17.40003,-0.0008260225
17.50003,-0.000823833
17.60003,-0.0008216886
17.70003,-0.0008196762
17.80003,-0.0008175856
17.90003,-0.0008154751
18.00003,-0.0008135323
18.10003,-0.0008114765
18.20003,-0.0008093548
18.30003,-0.0008074882
18.40003,-0.0008054683
18.50003,-0.0008033814
18.60003,-0.0008015112
18.70004,-0.0007995674
18.80004,-0.0007974758
18.90004,-0.0007956931
19.00004,-0.000793676
19.10004,-0.0007917387
19.20004,-0.0007898883
19.30004,-0.0007881348
19.40004,-0.0007860912
19.50004,-0.000784413
19.60004,-0.000782555
19.70004,-0.0007806904
19.80004,-0.0007788719
19.90004,-0.0007772305
20.00004,-0.0007755467
20.10004,-0.0007737366
20.20004,-0.0007722629
20.30004,-0.0007704227
20.40004,-0.0007686833
20.50004,-0.0007670239
20.60004,-0.0007653109
20.70004,-0.0007635358
20.80004,-0.0007618114
20.90004,-0.0007600609
21.00004,-0.000758441
21.10004,-0.0007566659
21.20004,-0.0007551544
21.30005,-0.0007537041
21.40005,-0.0007519515
21.50005,-0.0007503281
21.60005,-0.0007486866
21.70005,-0.0007470151
21.80005,-0.0007454132
21.90005,-0.0007437961
22.00005,-0.0007422197
22.10005,-0.0007406385
22.20005,-0.0007388964
22.30005,-0.0007374291
22.40005,-0.0007358593
22.50005,-0.0007342442
22.60005,-0.0007327836
22.70005,-0.0007311713
22.80005,-0.0007297276
22.90005,-0.000728251
23.00005,-0.0007266209
23.10005,-0.0007251046
23.20005,-0.0007236167
23.30005,-0.0007220958
23.40005,-0.0007205835
23.50005,-0.0007190842
23.60005,-0.0007176133
23.70005,-0.0007160631
23.80005,-0.0007145686
23.90005,-0.0007132106
24.00006,-0.0007117877
24.10006,-0.0007103742
24.20006,-0.000709035
24.30006,-0.0007075942
24.40006,-0.0007062691
24.50006,-0.0007049131
24.60006,-0.0007033939
24.70006,-0.0007021566
24.80006,-0.0007007459
24.90006,-0.0006992071
25.00006,-0.0006979216
25.10006,-0.0006966512
25.20006,-0.0006951313
25.30006,-0.0006938147
25.40006,-0.0006924954
25.50006,-0.0006910894
25.60006,-0.0006896937
25.70006,-0.0006884421
25.80006,-0.0006869947
25.90006,-0.000685762
26.00006,-0.0006844002
26.10006,-0.0006830621
26.20006,-0.0006817408
26.30006,-0.0006804826
26.40006,-0.000679168
26.50006,-0.0006778213
26.60007,-0.000676662
26.70007,-0.0006753511
26.80007,-0.0006739923
26.90007,-0.000672816
27.00007,-0.0006715352
27.10007,-0.0006701904
27.20007,-0.0006690434
27.30007,-0.0006676977
27.40007,-0.0006664612
27.50007,-0.0006652567
27.60007,-0.0006639853
27.70007,-0.0006627263
27.80007,-0.0006615218
27.90007,-0.0006602627
28.00007,-0.0006591326
28.10007,-0.0006579375
28.20007,-0.000656655
28.30007,-0.0006555305
28.40007,-0.0006542997
28.50007,-0.0006530547
28.60007,-0.0006518644
28.70007,-0.0006506956
28.80007,-0.000649526
28.90007,-0.0006484403
29.00007,-0.0006473007
29.10007,-0.0006460915
29.20008,-0.0006449954
29.30008,-0.0006438154
29.40008,-0.0006426505
29.50008,-0.0006415383
29.60008,-0.0006403206
29.70008,-0.0006391378
29.80008,-0.0006380068
29.90008,-0.0006368014
30.00008,-0.0006356572
30.10008,-0.0006345751
30.20008,-0.0006334309
30.30008,-0.0006322406
30.40008,-0.000631152
30.50008,-0.000630068
30.60008,-0.0006288937
30.70008,-0.000627805
30.80008,-0.0006266985
30.90008,-0.0006255627
31.00008,-0.0006244901
31.10008,-0.0006233563
31.20008,-0.0006222347
31.30008,-0.0006212845
31.40008,-0.0006202259
31.50008,-0.0006190431
31.60008,-0.0006179874
31.70008,-0.0006169797
31.80009,-0.0006159439
31.90009,-0.000614957
32.00008,-0.0006139474
32.10008,-0.0006129012
32.20008,-0.0006117937
32.30008,-0.0006108877
32.40008,-0.0006098603
32.50008,-0.0006086944
32.60007,-0.000607748
32.70007,-0.0006067206
32.80007,-0.0006055933
32.90007,-0.0006046469
33.00007,-0.0006036713
33.10007,-0.0006025883
33.20007,-0.0006015835
33.30006,-0.0006005654
33.40006,-0.0005995315
33.50006,-0.0005984691
33.60006,-0.0005975915
33.70006,-0.0005965499
33.80006,-0.0005955582
33.90005,-0.0005945911
34.00005,-0.0005935156
34.10005,-0.0005925579
34.20005,-0.0005915643
34.30005,-0.000590535
34.40005,-0.0005895962
34.50005,-0.0005886064
34.60004,-0.0005876486
34.70004,-0.0005866635
34.80004,-0.0005856956
34.90004,-0.0005847358
35.00004,-0.0005837292
35.10004,-0.0005827874
35.20004,-0.0005818183
35.30003,-0.0005808682
35.40003,-0.00057995
35.50003,-0.0005790242
35.60003,-0.0005781117
35.70003,-0.00057717
35.80003,-0.000576281
35.90002,-0.0005753581
36.00002,-0.0005744004
36.10002,-0.0005734747
36.20002,-0.0005726111
36.30002,-0.0005716618
36.40002,-0.0005706975
36.50002,-0.0005698245
36.60001,-0.000568926
36.70001,-0.0005679589
36.80001,-0.0005671066
36.90001,-0.0005662016
37.00001,-0.0005652807
37.10001,-0.00056437
37.2,-0.0005634706
37.3,-0.0005625723
37.4,-0.0005616748
37.5,-0.0005607537
37.6,-0.0005598431
37.7,-0.0005589447
37.8,-0.0005580736
37.89999,-0.0005572703
37.99999,-0.0005563333
38.09999,-0.0005554979
38.19999,-0.0005546805
38.29999,-0.0005537717
38.39999,-0.0005529345
38.49998,-0.000552022
38.59998,-0.0005512366
38.69998,-0.000550373
38.79998,-0.0005494831
38.89998,-0.0005486497
38.99998,-0.0005478162
39.09998,-0.0005469404
39.19997,-0.0005461993
39.29997,-0.0005453508
39.39997,-0.0005445211
39.49997,-0.0005437008
39.59997,-0.0005428835
39.69997,-0.000542066
39.79996,-0.0005413465
39.89996,-0.0005405583
39.99996,-0.0005397428
40.09996,-0.0005389282
40.19996,-0.0005383019
40.29996,-0.0005373696
40.39996,-0.0005364486
40.49995,-0.0005356641
40.59995,-0.0005348166
40.69995,-0.0005339351
40.79995,-0.0005331299
40.89995,-0.0005323775
40.99995,-0.0005314847
41.09995,-0.0005306974
41.19994,-0.0005300363
41.29994,-0.0005292236
41.39994,-0.0005283224
41.49994,-0.0005275295
41.59994,-0.0005267854
41.69994,-0.0005259304
41.79993,-0.00052513
41.89993,-0.0005243474
41.99993,-0.0005235214
42.09993,-0.0005227568
42.19993,-0.0005219186
42.29993,-0.0005211219
42.39993,-0.000520522
42.49992,-0.0005198082
42.59992,-0.0005188787
42.69992,-0.000518082
42.79992,-0.0005173446
42.89992,-0.0005166232
42.99992,-0.0005158284
43.09991,-0.0005151485
43.19991,-0.0005143951
43.29991,-0.0005135824
43.39991,-0.0005128846
43.49991,-0.0005121076
43.59991,-0.0005112714
43.69991,-0.0005105718
43.7999,-0.0005098014
43.8999,-0.0005090678
43.9999,-0.000508337
44.0999,-0.0005075958
44.1999,-0.0005068264
44.2999,-0.0005060768
44.39989,-0.0005053771
44.49989,-0.0005045634
44.59989,-0.0005039118
44.69989,-0.0005031707
44.79989,-0.0005024389
44.89989,-0.0005017034
44.99989,-0.0005009868
45.09988,-0.0005002852
45.19988,-0.0004994932
45.29988,-0.0004988679
45.39988,-0.0004981484
45.49988,-0.0004973771
45.59988,-0.0004966595
45.69987,-0.0004960182
45.79987,-0.0004952686
45.89987,-0.0004945312
45.99987,-0.0004938192
46.09987,-0.0004930772
46.19987,-0.0004924
46.29987,-0.0004916853
46.39986,-0.0004909601
46.49986,-0.0004902821
46.59986,-0.0004896219
46.69986,-0.0004888554
46.79986,-0.0004881651
46.89986,-0.0004875586
46.99986,-0.0004867836
47.09985,-0.0004861055
47.19985,-0.0004854793
47.29985,-0.0004848332
47.39985,-0.0004841166
47.49985,-0.0004835045
47.59985,-0.0004827595
47.69984,-0.0004820184
47.79984,-0.0004812933
47.89984,-0.0004806632
47.99984,-0.000479939
48.09984,-0.0004792667
48.19984,-0.0004785688
48.29984,-0.0004778936
48.39983,-0.0004772457
48.49983,-0.0004766251
48.59983,-0.0004759339
48.69983,-0.0004752332
48.79983,-0.0004746032
48.89983,-0.0004739167
48.99982,-0.0004732207
49.09982,-0.0004726124
49.19982,-0.0004719296
49.29982,-0.0004712393
49.39982,-0.0004706724
49.49982,-0.0004700358
49.59982,-0.000469289
49.69981,-0.0004687268
49.79981,-0.0004680865
49.89981,-0.0004674084
49.99981,-0.0004667614
50.09981,-0.0004661615
50.19981,-0.0004654976
50.2998,-0.0004647696
50.3998,-0.0004642102
50.4998,-0.0004635953
50.5998,-0.000462921
50.6998,-0.0004623343
50.7998,-0.0004617617
50.8998,-0.0004611402
50.99979,-0.0004605695
51.09979,-0.0004598971
51.19979,-0.0004592737
51.29979,-0.0004587322
51.39979,-0.0004581248
51.49979,-0.0004574806
51.59978,-0.0004568695
51.69978,-0.0004562969
51.79978,-0.0004556659
51.89978,-0.0004549342
51.99978,-0.0004544219
52.09978,-0.0004537712
52.19978,-0.0004531496
52.29977,-0.0004526166
52.39977,-0.0004520836
52.49977,-0.0004513829
52.59977,-0.0004509469
52.69977,-0.0004503565
52.79977,-0.0004496991
52.89977,-0.0004491284
52.99976,-0.0004485116
53.09976,-0.0004478816
53.19976,-0.0004473146
53.29976,-0.000446808
53.39976,-0.0004461686
53.49976,-0.0004455772
53.59975,-0.0004450018
53.69975,-0.0004443492
53.79975,-0.000443738
53.89975,-0.0004431654
53.99975,-0.0004425872
54.09975,-0.0004420937
54.19975,-0.0004416624
54.29974,-0.0004411284
54.39974,-0.0004406029
54.49974,-0.0004400191
54.59974,-0.000439423
54.69974,-0.0004388325
54.79974,-0.0004382458
54.89973,-0.0004377071
54.99973,-0.0004371007
55.09973,-0.000436497
55.19973,-0.0004359536
55.29973,-0.0004353584
55.39973,-0.0004347115
55.49973,-0.0004342406
55.59972,-0.0004337566
55.69972,-0.0004331868
55.79972,-0.0004326434
55.89972,-0.0004320897
55.99972,-0.0004315246
56.09972,-0.0004309248
56.19971,-0.0004303663
56.29971,-0.0004297335
56.39971,-0.0004292042
56.49971,-0.0004286609
56.59971,-0.0004280901
56.69971,-0.0004274677
56.79971,-0.0004269893
56.8997,-0.0004264675
56.9997,-0.0004258112
57.0997,-0.000425232
57.1997,-0.000424698
57.2997,-0.0004240718
57.3997,-0.0004235482
57.49969,-0.0004230227
57.59969,-0.0004224284
57.69969,-0.0004218963
57.79969,-0.0004213954
57.89969,-0.0004207842
57.99969,-0.0004202681
58.09969,-0.0004197323
58.19968,-0.0004191588
58.29968,-0.0004185881
58.39968,-0.0004180588
58.49968,-0.0004175427
58.59968,-0.0004169212
58.69968,-0.0004164202
58.79967,-0.0004158768
58.89967,-0.0004153071
58.99967,-0.0004148061
59.09967,-0.0004142693
59.19967,-0.000413725
59.29967,-0.000413305
59.39967,-0.0004127531
59.49966,-0.0004121862
59.59966,-0.0004117069
59.69966,-0.0004112162
59.79966,-0.000410638
59.89966,-0.0004101172
59.99966,-0.0004095908
60.09966,-0.0004090681
60.19965,-0.0004085765
60.29965,-0.0004080454
60.39965,-0.0004074954
60.49965,-0.0004070227
60.59965,-0.0004065415
60.69965,-0.0004059887
60.79964,-0.0004054999
60.89964,-0.0004050149
60.99964,-0.0004044866
61.09964,-0.0004039395
61.19964,-0.0004035185
61.29964,-0.0004029243
61.39964,-0.0004023282
61.49963,-0.0004018431
61.59963,-0.0004013572
61.69963,-0.0004008129
61.79963,-0.000400311
61.89963,-0.0003998392
61.99963,-0.0003993203
62.09962,-0.0003988485
62.19962,-0.0003983512
62.29962,-0.0003978031
62.39962,-0.0003973106
62.49962,-0.0003968115
62.59962,-0.000396335
62.69962,-0.0003958509
62.79961,-0.0003953678
62.89961,-0.0003948706
62.99961,-0.0003943677
63.09961,-0.0003938931
63.19961,-0.0003933902
63.29961,-0.0003928675
63.3996,-0.0003924334
63.4996,-0.0003919032
63.5996,-0.0003913928
63.6996,-0.0003909812
63.7996,-0.0003905094
63.8996,-0.0003899613
63.9996,-0.0003894538
64.09959,-0.0003889942
64.19959,-0.0003885365
64.29959,-0.000388092
64.39959,-0.0003878076
64.49959,-0.0003873169
64.59959,-0.0003867849
64.69958,-0.0003864393
64.79958,-0.000385877
64.89958,-0.0003852988
64.99958,-0.0003848468
65.09958,-0.0003843552
65.19958,-0.0003838486
65.29958,-0.0003834059
65.39957,-0.0003829389
65.49957,-0.0003824463
65.59957,-0.0003820386
65.69957,-0.0003815639
65.79957,-0.0003810667
65.89957,-0.0003805977
65.99957,-0.0003801871
66.09956,-0.0003797068
66.19956,-0.0003792237
66.29956,-0.0003788386
66.39956,-0.0003783705
66.49956,-0.000377862
66.59956,-0.0003774665
66.69955,-0.0003769927
66.79955,-0.0003764851
66.89955,-0.0003760595
66.99955,-0.0003755839
67.09955,-0.0003751404
67.19955,-0.0003747806
67.29955,-0.0003743267
67.39954,-0.0003739867
67.49954,-0.0003735705
67.59954,-0.000373078
67.69954,-0.0003725977
67.79954,-0.0003721447
67.89954,-0.0003717463
67.99953,-0.0003712567
68.09953,-0.0003708244
68.19953,-0.0003705033
68.29953,-0.0003700277
68.39953,-0.0003694984
68.49953,-0.0003691773
68.59953,-0.0003686763
68.69952,-0.0003681753
68.79952,-0.0003677544
68.89952,-0.0003673146
68.99952,-0.0003668239
69.09952,-0.0003663766
69.19952,-0.000365966
69.29951,-0.0003655206
69.39951,-0.0003650968
69.49951,-0.0003647484
69.59951,-0.0003643425
69.69951,-0.0003638236
69.79951,-0.0003634478
69.89951,-0.0003630758
69.9995,-0.0003627029
70.0995,-0.0003629563
70.1995,-0.0003626982
70.2995,-0.0003623865
70.3995,-0.0003627236
70.4995,-0.0003629129
70.59949,-0.0003623413
70.69949,-0.0003619618
70.79949,-0.0003620362
70.89949,-0.0003614212
70.99949,-0.0003607206
71.09949,-0.0003602667
71.19949,-0.0003595952
71.29948,-0.0003589106
71.39948,-0.0003583728
71.49948,-0.0003578483
71.59948,-0.000357319
71.69948,-0.0003568293
71.79948,-0.0003562615
71.89948,-0.0003558706
71.99947,-0.0003554196
72.09947,-0.0003550109
72.19947,-0.0003544505
72.29947,-0.0003539495
72.39947,-0.0003535455
72.49947,-0.0003530454
72.59946,-0.0003525548
72.69946,-0.0003523665
72.79946,-0.000352002
72.89946,-0.0003514935
72.99946,-0.0003510396
73.09946,-0.0003506572
73.19946,-0.0003502127
73.29945,-0.0003497466
73.39945,-0.0003492814
73.49945,-0.000348818
73.59945,-0.0003483867
73.69945,-0.0003480044
73.79945,-0.0003475712
73.89944,-0.0003471079
73.99944,-0.0003467067
74.09944,-0.0003462763
74.19944,-0.0003458563
74.29944,-0.0003454843
74.39944,-0.0003450718
74.49944,-0.0003446348
74.59943,-0.0003442534
74.69943,-0.0003438862
74.79943,-0.0003434859
74.89943,-0.0003430716
74.99943,-0.0003427119
75.09943,-0.0003422984
75.19942,-0.0003419293
75.29942,-0.0003415611
75.39942,-0.0003411429
75.49942,-0.0003407229
75.59942,-0.0003403613
75.69942,-0.0003399083
75.79942,-0.0003395024
75.89941,-0.0003391229
75.99941,-0.0003387255
76.09941,-0.0003382725
76.19941,-0.000337957
76.29941,-0.0003375869
76.39941,-0.000337182
76.4994,-0.0003367818
76.5994,-0.000336438
76.6994,-0.0003360039
76.7994,-0.0003356319
76.8994,-0.0003352486
76.9994,-0.0003348474
77.0994,-0.0003344576
77.19939,-0.0003341082
77.29939,-0.0003337607
77.39939,-0.0003333585
77.49939,-0.0003330082
77.59939,-0.0003325797
77.69939,-0.0003322492
77.79939,-0.0003319846
77.89938,-0.0003315495
77.99938,-0.0003311323
78.09938,-0.0003309063
78.19938,-0.0003303686
78.29938,-0.0003299392
78.39938,-0.000329635
78.49937,-0.0003292329
78.59937,-0.0003288533
78.69937,-0.0003285228
78.79937,-0.0003282111
78.89937,-0.0003277958
78.99937,-0.0003274012
79.09937,-0.0003271026
79.19936,-0.0003266619
79.29936,-0.0003262306
79.39936,-0.0003259377
79.49936,-0.0003255714
79.59936,-0.0003251777
79.69936,-0.00032485
79.79935,-0.0003244272
79.89935,-0.0003240439
79.99935,-0.000323768
80.09935,-0.0003233414
80.19935,-0.0003229487
80.29935,-0.0003225927
80.39935,-0.0003222914
80.49934,-0.000321941
80.59934,-0.0003216227
80.69934,-0.0003213741
80.79934,-0.0003209456
80.89934,-0.0003205576
80.99934,-0.0003202817
81.09933,-0.0003198438
81.19933,-0.0003193965
81.29933,-0.0003191073
81.39933,-0.0003187683
81.49933,-0.0003183775
81.59933,-0.0003180017
81.69933,-0.0003176646
81.79932,-0.0003173096
81.89932,-0.0003169216
81.99932,-0.0003166551
82.09932,-0.0003162643
82.19932,-0.0003158904
82.29932,-0.0003157133
82.39931,-0.0003153621
82.49931,-0.0003148865
82.59931,-0.0003145333
82.69931,-0.0003142179
82.79931,-0.0003138534
82.89931,-0.0003135182
82.99931,-0.0003132196
83.0993,-0.0003128561
83.1993,-0.0003125566
83.2993,-0.0003122506
83.3993,-0.0003118833
83.4993,-0.0003115255
83.5993,-0.0003112429
83.6993,-0.0003108841
83.79929,-0.0003104557
83.89929,-0.0003101835
83.99929,-0.0003098228
84.09929,-0.0003094377
84.19929,-0.0003091796
84.29929,-0.0003088698
84.39928,-0.0003084573
84.49928,-0.0003081588
84.59928,-0.0003078546
84.69928,-0.0003074591
84.79928,-0.0003070711
84.89928,-0.000306749
84.99928,-0.0003064467
85.09927,-0.0003060973
85.19927,-0.0003057282
85.29927,-0.0003053816
85.39927,-0.0003050567
85.49927,-0.0003047516
85.59927,-0.0003044606
85.69926,-0.0003041254
85.79926,-0.0003038645
85.89926,-0.0003035387
85.99926,-0.0003030961
86.09926,-0.0003028031
86.19926,-0.0003025131
86.29926,-0.0003020696
86.39925,-0.000301739
86.49925,-0.0003014179
86.59925,-0.0003010572
86.69925,-0.0003007304
86.79925,-0.0003004441
86.89925,-0.0003000561
86.99924,-0.0002997359
87.09924,-0.0002994562
87.19924,-0.0002991361
87.29924,-0.0002988243
87.39924,-0.0002985842
87.49924,-0.0002982584
87.59924,-0.000297859
87.69923,-0.0002975134
87.79923,-0.0002972243
87.89923,-0.0002968891
87.99923,-0.000296664
88.09923,-0.0002963184
88.19923,-0.0002960246
88.29922,-0.0002959294
88.39922,-0.0002956215
88.49922,-0.0002952655
88.59922,-0.0002950216
88.69922,-0.000294757
88.79922,-0.000294354
88.89922,-0.0002940375
88.99921,-0.0002937154
89.09921,-0.0002933528
89.19921,-0.0002930355
89.29921,-0.0002927285
89.39921,-0.0002923763
89.49921,-0.000292041
89.59921,-0.0002918339
89.6992,-0.0002915862
89.7992,-0.0002912622
89.8992,-0.0002909731
89.9992,-0.0002907452
90.0992,-0.0002903845
90.1992,-0.0002900323
90.29919,-0.0002897423
90.39919,-0.0002894014
90.49919,-0.0002891838
90.59919,-0.0002888796
90.69919,-0.0002884917
90.79919,-0.0002882459
90.89919,-0.0002879539
90.99918,-0.0002875914
91.09918,-0.000287291
91.19918,-0.0002869623
91.29918,-0.0002866449
91.39918,-0.0002863803
91.49918,-0.0002860818
91.59917,-0.0002857719
91.69917,-0.0002854348
91.79917,-0.000285125
91.89917,-0.0002847972
91.99917,-0.0002845882
92.09917,-0.0002843188
92.19917,-0.000283929
92.29916,-0.0002835673
92.39916,-0.0002833442
92.49916,-0.0002829995
92.59916,-0.0002826501
92.69916,-0.0002823864
92.79916,-0.0002821001
92.89915,-0.0002817602
92.99915,-0.0002814673
93.09915,-0.000281181
93.19915,-0.0002808259
93.29915,-0.000280534
93.39915,-0.0002802685
93.49915,-0.000279921
93.59914,-0.0002796234
93.69914,-0.000279322
93.79914,-0.0002789717
93.89914,-0.0002786826
93.99914,-0.0002783907
94.09914,-0.0002780592
94.19913,-0.0002777296
94.29913,-0.0002775158
94.39913,-0.0002772361
94.49913,-0.0002768584
94.59913,-0.0002766042
94.69913,-0.0002763085
94.79913,-0.0002761201
94.89912,-0.0002759092
94.99912,-0.0002755504
95.09912,-0.0002752227
95.19912,-0.00027504
95.29912,-0.0002746953
95.39912,-0.0002742932
95.49911,-0.0002740116
95.59911,-0.000273714
95.69911,-0.0002733835
95.79911,-0.0002731169
95.89911,-0.0002728542
95.99911,-0.000272567
96.09911,-0.0002723871
96.1991,-0.0002721582
96.2991,-0.0002717741
96.3991,-0.0002714463
96.4991,-0.0002713634
96.5991,-0.0002709877
96.6991,-0.0002705828
96.7991,-0.0002703907
96.89909,-0.0002700912
96.99909,-0.0002697833
97.09909,-0.0002695346
97.19909,-0.0002692304
97.29909,-0.0002689338
97.39909,-0.0002686833
97.49908,-0.0002684149
97.59908,-0.0002681041
97.69908,-0.0002678461
97.79908,-0.0002675946
97.89908,-0.000267298
97.99908,-0.0002670202
98.09908,-0.0002667895
98.19907,-0.0002664608
98.29907,-0.0002661566
98.39907,-0.000265957
98.49907,-0.0002656678
98.59907,-0.000265358
98.69907,-0.000265116
98.79906,-0.0002648655
98.89906,-0.0002645623
98.99906,-0.0002643325
99.09906,-0.0002640631
99.19906,-0.0002637703
99.29906,-0.0002635725
99.39906,-0.0002632683
99.49905,-0.0002629528
99.59905,-0.0002627296
99.69905,-0.0002624452
99.79905,-0.0002621044
99.89905,-0.0002618294
99.99905,-0.00026161
100.099,-0.0002613124
100.199,-0.0002610063
100.299,-0.0002607775
100.399,-0.0002605024
100.499,-0.0002602162
100.599,-0.0002599553
100.699,-0.0002596643
100.799,-0.000259396
100.899,-0.0002591407
100.999,-0.000258813
101.099,-0.0002585211
101.199,-0.0002583026
101.299,-0.0002580106
101.399,-0.0002577423
101.499,-0.0002574541
101.599,-0.0002572007
101.699,-0.0002569192
101.799,-0.0002566781
101.899,-0.0002564097
101.999,-0.0002561498
102.099,-0.0002559116
102.199,-0.0002556751
102.299,-0.0002553964
102.399,-0.0002551026
102.499,-0.0002548879
102.599,-0.0002546044
102.699,-0.0002543106
102.799,-0.0002541185
102.899,-0.0002538124
102.999,-0.0002534894
103.099,-0.0002532944
103.199,-0.0002530308
103.299,-0.0002527774
103.399,-0.0002525345
103.499,-0.0002522859
103.599,-0.0002520071
103.699,-0.0002517764
103.799,-0.0002514939
103.899,-0.0002512179
103.999,-0.0002509872
104.099,-0.0002507546
104.199,-0.0002504532
104.299,-0.0002502065
104.399,-0.0002499391
104.499,-0.0002496829
104.599,-0.0002494277
104.699,-0.000249148
104.799,-0.0002488825
104.899,-0.0002486178
104.999,-0.0002483786
105.099,-0.0002481036
105.199,-0.0002478221
105.299,-0.0002476224
105.399,-0.0002473493
105.499,-0.0002470367
105.599,-0.0002468059
105.699,-0.000246563
105.799,-0.0002462578
105.899,-0.0002460158
105.999,-0.0002457389
106.099,-0.0002454771
106.199,-0.0002452455
106.299,-0.0002450053
106.3989,-0.0002447614
106.4989,-0.0002444733
106.5989,-0.000244251
106.6989,-0.0002440033
106.7989,-0.0002437142
106.8989,-0.0002434656
106.9989,-0.0002432283
107.0989,-0.0002429392
107.1989,-0.0002427056
107.2989,-0.0002424645
107.3989,-0.000242215
107.4989,-0.000241988
107.5989,-0.0002417215
107.6989,-0.0002414814
107.7989,-0.0002412855
107.8989,-0.0002410105
107.9989,-0.0002407195
108.0989,-0.000240485
108.1989,-0.0002402524
108.2989,-0.0002399802
108.3989,-0.000239726
108.4989,-0.0002395009
108.5989,-0.0002392457
108.6989,-0.000239014
108.7989,-0.0002387664
108.8989,-0.0002385206
108.9989,-0.0002382672
109.0989,-0.0002380506
109.1989,-0.0002377785
109.2989,-0.0002375666
109.3989,-0.0002373133
109.4989,-0.0002370835
109.5989,-0.0002368245
109.6989,-0.0002366173
109.7989,-0.0002363489
109.8989,-0.0002360956
109.9989,-0.0002358555
110.0989,-0.0002356078
110.1989,-0.0002353724
110.2989,-0.0002351181
110.3989,-0.0002349194
110.4989,-0.0002346576
110.5989,-0.0002344052
110.6989,-0.0002341905
110.7989,-0.0002339485
110.8989,-0.0002336914
110.9989,-0.0002334757
111.0989,-0.0002332346
111.1989,-0.0002330274
111.2989,-0.0002328212
111.3989,-0.0002325547
111.4989,-0.0002322854
111.5989,-0.0002321516
111.6989,-0.0002319049
111.7989,-0.0002315998
111.8989,-0.0002314265
111.9989,-0.0002311958
112.0989,-0.0002309086
112.1989,-0.0002306759
112.2989,-0.0002304688
112.3989,-0.0002302107
112.4989,-0.0002299762
112.5989,-0.0002297841
112.6989,-0.0002295176
112.7989,-0.0002293123
112.8988,-0.0002291306
112.9988,-0.0002289111
113.0988,-0.0002286588
113.1988,-0.0002284139
113.2988,-0.0002282208
113.3988,-0.0002279948
113.4988,-0.0002277603
113.5988,-0.0002275117
113.6988,-0.0002272857
113.7988,-0.0002270531
113.8988,-0.0002268346
113.9988,-0.0002265822
114.0988,-0.0002263788
114.1988,-0.0002261679
114.2988,-0.0002259362
114.3988,-0.0002257281
114.4988,-0.000225536
114.5988,-0.0002253147
114.6988,-0.0002250774
114.7988,-0.0002248381
114.8988,-0.000224615
114.9988,-0.0002243814
115.0988,-0.0002241554
115.1988,-0.0002239209
115.2988,-0.0002236968
115.3988,-0.0002234971
115.4988,-0.0002232447
115.5988,-0.0002230394
115.6988,-0.0002228549
115.7988,-0.0002225968
115.8988,-0.0002223567
115.9988,-0.0002221702
116.0988,-0.0002219621
116.1988,-0.0002216965
116.2988,-0.0002215072
116.3988,-0.0002213161
116.4988,-0.0002210044
116.5988,-0.000220848
116.6988,-0.0002206945
116.7988,-0.000220477
116.8988,-0.0002202425
116.9988,-0.00022004
117.0988,-0.0002198169
117.1988,-0.0002195353
117.2988,-0.0002193017
117.3988,-0.0002190908
117.4988,-0.0002189165
117.5988,-0.000218731
117.6988,-0.0002184626
117.7988,-0.0002182573
117.8988,-0.0002180897
117.9988,-0.0002178637
118.0988,-0.0002176424
118.1988,-0.00021747
118.2988,-0.0002172544
118.3988,-0.0002170284
118.4988,-0.0002168127
118.5988,-0.0002165509
118.6988,-0.0002163305
118.7988,-0.0002161026
118.8988,-0.0002158898
118.9988,-0.0002156695
119.0988,-0.0002154679
119.1988,-0.0002152457
119.2988,-0.0002150545
119.3988,-0.0002148257
119.4987,-0.0002146675
119.5987,-0.000214465
119.6987,-0.0002142484
119.7987,-0.0002141062
119.8987,-0.0002138877
119.9987,-0.0002136711
120.0987,-0.0002135261
120.1987,-0.0002132775
120.2987,-0.0002129931
120.3987,-0.000212833
120.4987,-0.0002125947
120.5987,-0.0002123527
120.6987,-0.000212186
120.7987,-0.0002120023
120.8987,-0.0002118084
120.9987,-0.0002116012
121.0987,-0.0002113855
121.1987,-0.0002111463
121.2987,-0.0002109683
121.3987,-0.0002108158
121.4987,-0.0002106124
121.5987,-0.0002104494
121.6987,-0.0002103327
121.7987,-0.000210052
121.8987,-0.0002097742
121.9987,-0.000209568
122.0987,-0.0002093608
122.1987,-0.0002091207
122.2987,-0.0002089323
122.3987,-0.0002087487
122.4987,-0.0002085528
122.5987,-0.0002083757
122.6987,-0.0002082241
122.7987,-0.0002079925
122.8987,-0.0002077401
122.9987,-0.0002075461
123.0987,-0.0002073587
123.1987,-0.0002071628
123.2987,-0.0002070988
123.3987,-0.000206917
123.4987,-0.0002067814
123.5987,-0.0002066882
123.6987,-0.0002064998
123.7987,-0.0002062455
123.8987,-0.0002060807
123.9987,-0.0002057474
124.0987,-0.000205543
124.1987,-0.0002053179
124.2987,-0.000205107
124.3987,-0.0002048904
124.4987,-0.000204703
124.5987,-0.0002045627
124.6987,-0.0002043527
124.7987,-0.0002041267
124.8987,-0.0002041059
124.9987,-0.0002039082
125.0987,-0.0002035927
125.1987,-0.0002034449
125.2987,-0.0002032235
125.3987,-0.0002029909
125.4987,-0.0002027677
125.5987,-0.0002025756
125.6987,-0.0002023769
125.7987,-0.0002022018
125.8987,-0.0002020012
125.9986,-0.0002017573
126.0986,-0.0002015661
126.1986,-0.0002013937
126.2986,-0.0002011772
126.3986,-0.0002009417
126.4986,-0.0002008136
126.5986,-0.000200598
126.6986,-0.0002003456
126.7986,-0.0002001827
126.8986,-0.0001999925
126.9986,-0.0001997241
127.0986,-0.0001995404
127.1986,-0.0001993342
127.2986,-0.0001991176
127.3986,-0.0001989603
127.4986,-0.0001987786
127.5986,-0.0001985516
127.6986,-0.0001983463
127.7986,-0.0001981664
127.8986,-0.0001979706
127.9986,-0.000197753
128.0986,-0.0001975543
128.1986,-0.0001973744
128.2986,-0.0001971644
128.3986,-0.0001969639
128.4986,-0.0001967199
128.5986,-0.0001965147
128.6987,-0.0001963649
128.7987,-0.0001961163
128.8987,-0.0001959364
128.9987,-0.0001958479
129.0987,-0.0001956435
129.1987,-0.0001954411
129.2987,-0.0001952678
129.3987,-0.0001950889
129.4987,-0.0001949184
129.5987,-0.0001947263
129.6987,-0.0001945577
129.7987,-0.0001943091
129.8987,-0.0001941076
129.9987,-0.0001939644
130.0987,-0.0001937337
130.1987,-0.0001934851
130.2988,-0.0001933467
130.3988,-0.0001931282
130.4988,-0.0001929342
130.5988,-0.0001927769
130.6988,-0.0001925434
130.7988,-0.0001923579
130.8988,-0.0001922363
130.9988,-0.0001920518
131.0988,-0.0001918502
131.1988,-0.000191709
131.2988,-0.0001915103
131.3988,-0.0001913003
131.4988,-0.0001911929
131.5988,-0.0001909641
131.6988,-0.0001907192
131.7988,-0.0001905299
131.8988,-0.0001903491
131.9989,-0.0001901419
132.0989,-0.0001899498
132.1989,-0.0001897897
132.2989,-0.0001895797
132.3989,-0.0001893848
132.4989,-0.0001892285
132.5989,-0.0001890608
132.6989,-0.0001888499
132.7989,-0.0001886531
132.8989,-0.0001884751
132.9989,-0.0001883037
133.0989,-0.0001881069
133.1989,-0.0001879458
133.2989,-0.0001877274
133.3989,-0.0001875842
133.4989,-0.0001874053
133.599,-0.0001872066
133.699,-0.0001870408
133.799,-0.00018686
133.899,-0.0001866962
133.999,-0.0001864805
134.099,-0.0001863355
134.199,-0.0001861744
134.299,-0.0001859371
134.399,-0.0001857742
134.499,-0.0001855698
134.599,-0.0001853448
134.699,-0.0001852327
134.799,-0.0001850509
134.899,-0.0001848108
134.999,-0.0001846432
135.099,-0.0001845095
135.1991,-0.0001842881
135.2991,-0.0001840941
135.3991,-0.0001839435
135.4991,-0.0001837862
135.5991,-0.0001835818
135.6991,-0.0001834001
135.7991,-0.0001832212
135.8991,-0.0001830469
135.9991,-0.0001828953
136.0991,-0.0001826787
136.1991,-0.0001824857
136.2991,-0.0001823246
136.3991,-0.0001821457
136.4991,-0.0001819479
136.5991,-0.0001817615
136.6991,-0.0001815976
136.7991,-0.0001814074
136.8992,-0.0001812416
136.9992,-0.0001810495
137.0992,-0.0001808536
137.1992,-0.0001806935
137.2992,-0.0001805316
137.3992,-0.0001803423
137.4992,-0.0001801652
137.5992,-0.0001800061
137.6992,-0.0001797998
137.7992,-0.0001796294
137.8992,-0.0001794938
137.9992,-0.0001792866
138.0992,-0.0001791218
138.1992,-0.0001789438
138.2992,-0.0001787555
138.3992,-0.0001785794
138.4993,-0.0001784353
138.5993,-0.0001782347
138.6993,-0.0001780605
138.7993,-0.0001779088
138.8993,-0.0001777497
138.9993,-0.0001775293
139.0993,-0.000177405
139.1993,-0.0001772525
139.2993,-0.0001770519
139.3993,-0.0001770293
139.4993,-0.0001768108
139.5993,-0.0001765754
139.6993,-0.0001764124
139.7993,-0.0001762335
139.8993,-0.0001760508
139.9993,-0.0001758465
140.0993,-0.0001756996
140.1994,-0.000175515
140.2994,-0.0001753615
140.3994,-0.0001752061
140.4994,-0.0001749942
140.5994,-0.0001748153
140.6994,-0.000174691
140.7994,-0.0001745196
140.8994,-0.0001743378
140.9994,-0.0001742201
141.0994,-0.0001740581
141.1994,-0.0001738594
141.2994,-0.0001736861
141.3994,-0.0001735383
141.4994,-0.0001733273
141.5994,-0.000173171
141.6994,-0.0001729779
141.7995,-0.0001728009
141.8995,-0.0001726785
141.9995,-0.0001725033
142.0995,-0.0001723263
142.1995,-0.0001721794
142.2995,-0.0001720664
142.3995,-0.0001718225
142.4995,-0.0001716746
142.5995,-0.0001715399
142.6995,-0.000171329
142.7995,-0.0001711727
142.8995,-0.0001710879
142.9995,-0.0001709334
143.0995,-0.0001707225
143.1995,-0.0001705615
143.2995,-0.0001704419
143.3996,-0.000170245
143.4996,-0.000170084
143.5996,-0.0001699446
143.6996,-0.0001697582
143.7996,-0.0001696009
143.8996,-0.000169438
143.9996,-0.0001692619
144.0996,-0.0001691103
144.1996,-0.0001689596
144.2996,-0.0001687844
144.3996,-0.0001686243
144.4996,-0.000168501
144.5996,-0.000168322
144.6996,-0.0001681356
144.7996,-0.0001679924
144.8996,-0.0001678304
144.9996,-0.0001676506
145.0997,-0.0001674999
145.1997,-0.0001673219
145.2997,-0.0001671618
145.3997,-0.0001670366
145.4997,-0.0001668736
145.5997,-0.0001667164
145.6997,-0.0001665949
145.7997,-0.0001663952
145.8997,-0.000166221
145.9997,-0.0001660741
146.0997,-0.0001659168
146.1997,-0.0001657106
146.2997,-0.0001655722
146.3997,-0.0001654385
146.4997,-0.000165267
146.5997,-0.0001651145
146.6998,-0.0001650109
146.7998,-0.0001648348
146.8998,-0.0001647058
146.9998,-0.0001645447
147.0998,-0.000164412
147.1998,-0.0001642632
147.2998,-0.0001642048
147.3998,-0.0001640211
147.4998,-0.0001638253
147.5998,-0.0001637311
147.6998,-0.0001635164
147.7998,-0.000163345
147.8998,-0.0001631981
147.9998,-0.0001630512
148.0998,-0.0001628835
148.1998,-0.0001627187
148.2999,-0.0001625812
148.3999,-0.0001623948
148.4999,-0.0001622253
148.5999,-0.0001621009
148.6999,-0.0001619361
148.7999,-0.0001617384
148.8999,-0.0001616094
148.9999,-0.0001614756
149.0999,-0.0001612703
149.1999,-0.0001611206
149.2999,-0.0001609906
149.3999,-0.0001608079
149.4999,-0.0001606789
149.5999,-0.0001605377
149.6999,-0.0001603955
149.7999,-0.0001602034
149.8999,-0.0001601243
150,-0.0001599604
150.1,-0.000159756
150.2,-0.0001596449
150.3,-0.0001594735
150.4,-0.0001592946
150.5,-0.0001591759
150.6,-0.0001590139
150.7,-0.0001588388
150.8,-0.0001587748
150.9,-0.0001586561
151,-0.0001584489
151.1,-0.000158285
151.2,-0.0001581325
151.3,-0.000157995
151.4,-0.0001579573
151.5,-0.0001579498
151.6001,-0.000157752
151.7001,-0.0001576673
151.8001,-0.0001575788
151.9001,-0.0001573923
152.0001,-0.0001572143
152.1001,-0.0001571004
152.2001,-0.0001569742
152.3001,-0.0001568141
152.4001,-0.0001567077
152.5001,-0.0001566323
152.6001,-0.000156444
152.7001,-0.0001563328
152.8001,-0.0001562264
152.9001,-0.0001560513
153.0001,-0.0001558733
153.1001,-0.0001557019
153.2001,-0.0001555088
153.3002,-0.0001553591
153.4002,-0.0001552357
153.5002,-0.000155054
153.6002,-0.0001548675
153.7002,-0.0001547385
153.8002,-0.0001545972
153.9002,-0.0001544174
154.0002,-0.0001542883
154.1002,-0.0001541791
154.2002,-0.000154002
154.3002,-0.0001538429
154.4002,-0.0001536903
154.5002,-0.0001535227
154.6002,-0.0001534248
154.7002,-0.0001532534
154.8002,-0.0001530462
154.9003,-0.0001529615
155.0003,-0.0001528042
155.1003,-0.0001526092
155.2003,-0.0001524736
155.3003,-0.0001523465
155.4003,-0.0001521958
155.5003,-0.0001520273
155.6003,-0.0001519114
155.7003,-0.000151788
155.8003,-0.000151627
155.9003,-0.0001514792
156.0003,-0.0001513304
156.1003,-0.0001511467
156.2003,-0.000150997
156.3003,-0.0001508567
156.4003,-0.0001506909
156.5004,-0.000150577
156.6004,-0.0001504056
156.7004,-0.0001502427
156.8004,-0.0001501315
156.9004,-0.0001499733
157.0004,-0.0001498038
157.1004,-0.0001497209
157.2004,-0.0001495891
157.3004,-0.0001494017
157.4004,-0.0001493019
157.5004,-0.0001491992
157.6004,-0.0001489883
157.7004,-0.0001488263
157.8004,-0.0001487143
157.9004,-0.00014854
158.0004,-0.0001483667
158.1004,-0.0001482471
158.2005,-0.0001480899
158.3005,-0.0001479411
158.4005,-0.0001478347
158.5005,-0.000147667
158.6005,-0.0001474985
158.7005,-0.0001474231
158.8005,-0.0001472658
158.9005,-0.000147102
159.0005,-0.0001469767
159.1005,-0.0001468703
159.2005,-0.0001467055
159.3005,-0.000146536
159.4005,-0.0001464145
159.5005,-0.0001462789
159.6005,-0.0001461009
159.7005,-0.0001459785
159.8006,-0.0001458542
159.9006,-0.0001456706
160.0006,-0.0001455491
160.1006,-0.0001453909
160.2006,-0.00014526
160.3006,-0.0001451385
160.4006,-0.0001449746
160.5006,-0.0001448381
160.6006,-0.0001447721
160.7006,-0.00014458
160.8006,-0.0001444209
160.9006,-0.0001443286
161.0006,-0.000144192
161.1006,-0.0001439839
161.2006,-0.0001438596
161.3006,-0.0001437513
161.4007,-0.0001435592
161.5007,-0.000143434
161.6007,-0.0001433388
161.7007,-0.0001431646
161.8007,-0.0001429942
161.9007,-0.0001429593
162.0007,-0.0001428369
162.1007,-0.0001426448
162.2007,-0.0001425082
162.3007,-0.0001423717
162.4007,-0.0001422153
162.5007,-0.0001421306
162.6007,-0.0001419931
162.7007,-0.0001418132
162.8007,-0.0001416899
162.9007,-0.0001415759
163.0007,-0.000141445
163.1008,-0.0001412962
163.2008,-0.0001411907
163.3008,-0.0001410589
163.4008,-0.0001408922
163.5008,-0.0001408103
163.6008,-0.0001406417
163.7008,-0.0001404929
163.8008,-0.0001404129
163.9008,-0.000140233
164.0008,-0.0001400851
164.1008,-0.0001399769
164.2008,-0.0001398469
164.3008,-0.0001396783
164.4008,-0.000139554
164.5008,-0.0001394608
164.6008,-0.0001392941
164.7009,-0.0001391528
164.8009,-0.0001390493
164.9009,-0.000138908
165.0009,-0.0001387677
165.1009,-0.00013865
165.2009,-0.0001385238
165.3009,-0.000138375
165.4009,-0.0001382789
165.5009,-0.000138132
165.6009,-0.0001379672
165.7009,-0.0001378532
165.8009,-0.0001377525
165.9009,-0.0001375999
166.0009,-0.0001374653
166.1009,-0.0001373353
166.2009,-0.0001371931
166.3009,-0.0001370744
166.401,-0.0001369558
166.501,-0.0001368004
166.601,-0.000136662
166.701,-0.0001365678
166.801,-0.0001364341
166.901,-0.0001362937
167.001,-0.0001361807
167.101,-0.0001360564
167.201,-0.0001359133
167.301,-0.0001358361
167.401,-0.0001356948
167.501,-0.0001355328
167.601,-0.0001354132
167.701,-0.0001353228
167.801,-0.0001351392
167.901,-0.0001349951
168.0011,-0.000134884
168.1011,-0.0001347229
168.2011,-0.0001345939
168.3011,-0.0001345035
168.4011,-0.0001343688
168.5011,-0.0001342266
168.6011,-0.0001341315
168.7011,-0.000133995
168.8011,-0.0001338556
168.9011,-0.000133768
169.0011,-0.0001336588
169.1011,-0.0001334874
169.2011,-0.0001333942
169.3011,-0.0001333066
169.4011,-0.0001331747
169.5011,-0.0001330457
169.6012,-0.0001329516
169.7012,-0.0001328348
169.8012,-0.0001327406
169.9012,-0.00013254
170.0012,-0.000132411
170.1012,-0.0001323131
170.2012,-0.0001321812
170.3012,-0.0001320484
170.4012,-0.0001319279
170.5012,-0.0001318544
170.6012,-0.0001316962
170.7012,-0.0001315813
170.8012,-0.0001315003
170.9012,-0.000131393
171.0012,-0.0001312809
171.1012,-0.0001311811
171.2012,-0.0001310879
171.3013,-0.0001309325
171.4013,-0.0001308336
171.5013,-0.0001307121
171.6013,-0.0001305916
171.7013,-0.0001304663
171.8013,-0.0001303985
171.9013,-0.0001302328
172.0013,-0.0001300633
172.1013,-0.0001299549
172.2013,-0.000129841
172.3013,-0.0001297082
172.4013,-0.0001295895
172.5013,-0.0001294671
172.6013,-0.0001293645
172.7013,-0.0001292261
172.8013,-0.0001291168
172.9014,-0.0001289887
173.0014,-0.000128855
173.1014,-0.0001287203
173.2014,-0.0001285838
173.3014,-0.0001284943
173.4014,-0.0001283578
173.5014,-0.0001282109
173.6014,-0.0001281016
173.7014,-0.0001280093
173.8014,-0.0001278521
173.9014,-0.0001277852
174.0014,-0.000127691
174.1014,-0.0001275667
174.2014,-0.0001274744
174.3014,-0.0001273981
174.4014,-0.0001272927
174.5014,-0.0001271458
174.6015,-0.000127029
174.7015,-0.0001269216
174.8015,-0.0001267907
174.9015,-0.0001266768
175.0015,-0.0001265666
175.1015,-0.0001264348
175.2015,-0.0001263349
175.3015,-0.0001262248
175.4015,-0.0001260684
175.5015,-0.0001259564
175.6015,-0.0001258942
175.7015,-0.0001257539
175.8015,-0.0001256126
175.9015,-0.0001255345
176.0015,-0.0001254111
176.1015,-0.0001252538
176.2016,-0.0001251719
176.3016,-0.0001250287
176.4016,-0.0001248922
176.5016,-0.0001247886
176.6016,-0.0001247189
176.7016,-0.0001245645
176.8016,-0.0001244251
176.9016,-0.0001243592
177.0016,-0.0001242019
177.1016,-0.000124088
177.2016,-0.0001239957
177.3016,-0.0001238252
177.4016,-0.0001237094
177.5016,-0.0001236529
177.6016,-0.0001235135
177.7016,-0.0001234061
177.8017,-0.0001233261
177.9017,-0.0001231858
178.0017,-0.0001230586
178.1017,-0.0001230153
178.2017,-0.0001228722
178.3017,-0.0001227149
178.4017,-0.0001226057
178.5017,-0.000122535
178.6017,-0.00012239
178.7017,-0.0001222516
178.8017,-0.0001221791
178.9017,-0.0001220369
179.0017,-0.0001218796
179.1017,-0.0001217911
179.2017,-0.0001216875
179.3017,-0.0001215396
179.4017,-0.0001214568
179.5018,-0.0001213174
179.6018,-0.0001211771
179.7018,-0.0001210904
179.8018,-0.0001209906
179.9018,-0.0001208672
180.0018,-0.0001207382
180.1018,-0.0001206638
180.2018,-0.0001205546
180.3018,-0.0001204444
180.4018,-0.0001203333
180.5018,-0.0001202212
180.6018,-0.0001200978
180.7018,-0.0001200027
180.8018,-0.0001198888
180.9018,-0.0001197748
181.0018,-0.0001196863
181.1019,-0.0001195667
181.2019,-0.0001194697
181.3019,-0.0001193595
181.4019,-0.0001192399
181.5019,-0.0001191203
181.6019,-0.0001190535
181.7019,-0.0001189009
181.8019,-0.000118737
181.9019,-0.0001186787
182.0019,-0.0001185666
182.1019,-0.0001184018
182.2019,-0.0001183038
182.3019,-0.0001182087
182.4019,-0.0001181014
182.5019,-0.0001179903
182.6019,-0.0001179036
182.702,-0.0001178038
182.802,-0.0001177134
182.902,-0.0001176993
183.002,-0.000117558
183.102,-0.000117396
183.202,-0.0001173461
183.302,-0.0001171992
183.402,-0.0001170269
183.502,-0.000116944
183.602,-0.0001168479
183.702,-0.0001167104
183.802,-0.0001166587
183.902,-0.0001165456
184.002,-0.000116395
184.102,-0.0001163008
184.202,-0.0001161981
184.302,-0.0001160795
184.4021,-0.0001159514
184.5021,-0.0001158742
184.6021,-0.000115781
184.7021,-0.0001156331
184.8021,-0.0001155587
184.9021,-0.0001154909
185.0021,-0.0001153525
185.1021,-0.000115247
185.2021,-0.0001151312
185.3021,-0.0001150323
185.4021,-0.0001149645
185.5021,-0.0001148496
185.6021,-0.0001146998
185.7021,-0.0001146066
185.8021,-0.0001145218
185.9021,-0.0001143947
186.0022,-0.0001142977
186.1022,-0.0001141988
186.2022,-0.0001140924
186.3022,-0.0001139785
186.4022,-0.0001138881
186.5022,-0.0001137864
186.6022,-0.0001136432
186.7022,-0.0001135717
186.8022,-0.0001134709
186.9022,-0.000113339
187.0022,-0.0001132449
187.1022,-0.0001131196
187.2022,-0.0001130386
187.3022,-0.0001129689
187.4022,-0.0001128465
187.5022,-0.000112725
187.6022,-0.0001126412
187.7023,-0.0001125113
187.8023,-0.0001124133
187.9023,-0.0001123304
188.0023,-0.0001122419
188.1023,-0.0001120799
188.2023,-0.0001119641
188.3023,-0.000111901
188.4023,-0.0001117824
188.5023,-0.0001116694
188.6023,-0.0001115771
188.7023,-0.0001114659
188.8023,-0.0001113463
188.9023,-0.0001112606
189.0023,-0.0001111335
189.1023,-0.0001110459
189.2023,-0.0001110035
189.3024,-0.0001108811
189.4024,-0.0001107728
189.5024,-0.0001106382
189.6024,-0.00011056
189.7024,-0.0001104121
189.8024,-0.000110285
189.9024,-0.0001102276
190.0024,-0.0001101324
190.1024,-0.0001100185
190.2024,-0.0001099968
190.3024,-0.0001099224
190.4024,-0.0001097802
190.5024,-0.0001097284
190.6024,-0.0001096559
190.7024,-0.0001094968
190.8024,-0.0001094054
190.9025,-0.0001093433
191.0025,-0.00010917
191.1025,-0.0001090542
191.2025,-0.0001089666
191.3025,-0.0001088347
191.4025,-0.0001087274
191.5025,-0.0001086728
191.6025,-0.0001086031
191.7025,-0.0001084722
191.8025,-0.0001083978
191.9025,-0.0001082744
192.0025,-0.0001081718
192.1025,-0.0001080955
192.2025,-0.0001079938
192.3025,-0.0001078685
192.4025,-0.0001077913
192.5025,-0.0001077075
192.6026,-0.0001075935
192.7026,-0.0001074928
192.8026,-0.0001074033
192.9026,-0.0001072846
193.0026,-0.0001071905
193.1026,-0.0001071142
193.2026,-0.0001070144
193.3026,-0.0001069324
193.4026,-0.0001068533
193.5026,-0.0001067535
193.6026,-0.0001066217
193.7026,-0.0001065332
193.8026,-0.0001064277
193.9026,-0.0001063297
194.0026,-0.0001062403
194.1026,-0.0001061395
194.2027,-0.0001060435
194.3027,-0.0001059446
194.4027,-0.0001058278
194.5027,-0.0001057054
194.6027,-0.000105647
194.7027,-0.0001055283
194.8027,-0.0001054247
194.9027,-0.0001053663
195.0027,-0.0001052769
195.1027,-0.0001051545
195.2027,-0.0001050575
195.3027,-0.0001049906
195.4027,-0.0001048823
195.5027,-0.0001047966
195.6027,-0.0001047335
195.7027,-0.0001046384
195.8027,-0.000104516
195.9028,-0.0001044698
196.0028,-0.0001043512
196.1028,-0.0001042071
196.2028,-0.0001041204
196.3028,-0.0001040376
196.4028,-0.0001039293
196.5028,-0.0001038455
196.6028,-0.0001037805
196.7028,-0.0001036486
196.8028,-0.0001035497
196.9028,-0.000103465
197.0028,-0.0001034028
197.1028,-0.0001032719
197.2028,-0.0001031825
197.3028,-0.0001030723
197.4028,-0.0001029706
197.5029,-0.0001029282
197.6029,-0.0001028067
197.7029,-0.000102721
197.8029,-0.0001027069
197.9029,-0.0001025958
198.0029,-0.0001024498
198.1029,-0.0001024008
198.2029,-0.000102318
198.3029,-0.0001021541
198.4029,-0.0001020439
198.5029,-0.0001019601
198.6029,-0.0001018509
198.7029,-0.0001017623
198.8029,-0.0001017143
198.9029,-0.0001016117
199.0029,-0.0001015118
199.103,-0.0001014365
199.203,-0.0001013678
199.303,-0.0001012576
199.403,-0.0001011756
199.503,-0.0001011107
199.603,-0.0001010316
199.703,-0.0001009412
199.803,-0.0001009091
199.903,-0.0001008121
200.003,-0.000100733
200.103,-0.0001006549
200.203,-0.0001005287
200.303,-0.0001004288
200.403,-0.00010033
200.503,-0.0001001944
200.603,-0.0001000936
200.703,-0.000100039
200.8031,-9.996363E-05
200.9031,-9.985251E-05
201.0031,-9.980071E-05
201.1031,-9.970843E-05
201.2031,-9.960389E-05
201.3031,-9.954362E-05
201.4031,-9.946922E-05
201.5031,-9.936281E-05
201.6031,-9.930725E-05
201.7031,-9.926298E-05
201.8031,-9.913774E-05
201.9031,-9.904074E-05
202.0031,-9.896445E-05
202.1031,-9.887217E-05
202.2031,-9.87488E-05
202.3031,-9.868099E-05
202.4032,-9.858776E-05
202.5032,-9.852844E-05
202.6032,-9.840696E-05
202.7032,-9.831843E-05
202.8032,-9.826192E-05
202.9032,-9.815362E-05
203.0032,-9.804909E-05
203.1032,-9.797658E-05
203.2032,-9.786169E-05
203.3032,-9.777599E-05
203.4032,-9.767711E-05
203.5032,-9.757164E-05
203.6032,-9.750666E-05
203.7032,-9.742002E-05
203.8032,-9.731549E-05
203.9032,-9.724768E-05
204.0033,-9.714786E-05
204.1033,-9.709041E-05
204.2033,-9.702166E-05
204.3033,-9.692184E-05
204.4033,-9.679659E-05
204.5033,-9.670807E-05
204.6033,-9.663462E-05
204.7033,-9.653291E-05
204.8033,-9.643778E-05
204.9033,-9.636716E-05
205.0033,-9.628241E-05
205.1033,-9.619482E-05
205.2033,-9.612419E-05
205.3033,-9.603285E-05
205.4033,-9.591324E-05
205.5033,-9.589347E-05
205.6033,-9.578705E-05
205.7034,-9.566934E-05
205.8034,-9.560624E-05
205.9034,-9.552149E-05
206.0034,-9.54226E-05
206.1034,-9.534727E-05
206.2034,-9.524273E-05
206.3034,-9.516834E-05
206.4034,-9.507981E-05
206.5034,-9.499976E-05
206.6034,-9.49103E-05
206.7034,-9.484062E-05
206.8034,-9.474456E-05
206.9034,-9.464286E-05
207.0034,-9.457504E-05
207.1034,-9.448746E-05
207.2034,-9.439235E-05
207.3035,-9.427086E-05
207.4035,-9.422849E-05
207.5035,-9.41475E-05
207.6035,-9.403544E-05
207.7035,-9.395351E-05
207.8035,-9.385745E-05
207.9035,-9.378023E-05
208.0035,-9.370864E-05
208.1035,-9.361825E-05
208.2035,-9.350806E-05
208.3035,-9.349205E-05
208.4035,-9.338282E-05
208.5035,-9.326321E-05
208.6035,-9.323779E-05
208.7035,-9.314926E-05
208.8035,-9.302684E-05
208.9035,-9.293455E-05
209.0036,-9.28884E-05
209.1036,-9.278952E-05
209.2036,-9.268217E-05
209.3036,-9.258705E-05
209.4036,-9.250606E-05
209.5036,-9.243543E-05
209.6036,-9.235444E-05
209.7036,-9.223296E-05
209.8036,-9.213878E-05
209.9036,-9.209359E-05
210.0036,-9.199847E-05
210.1036,-9.188169E-05
210.2036,-9.179788E-05
210.3036,-9.172537E-05
210.4036,-9.162836E-05
210.5036,-9.153796E-05
210.6037,-9.144002E-05
210.7037,-9.133926E-05
210.8037,-9.131101E-05
210.9037,-9.120929E-05
211.0037,-9.110477E-05
211.1037,-9.106992E-05
211.2037,-9.098798E-05
211.3037,-9.088817E-05
211.4037,-9.081754E-05
211.5037,-9.074597E-05
211.6037,-9.066027E-05
211.7037,-9.056421E-05
211.8037,-9.050017E-05
211.9037,-9.042671E-05
212.0037,-9.033443E-05
212.1037,-9.027886E-05
212.2038,-9.017623E-05
212.3038,-9.009051E-05
212.4038,-9.003967E-05
212.5038,-8.99389E-05
212.6038,-8.988052E-05
212.7038,-8.985602E-05
212.8038,-8.971665E-05
212.9038,-8.961117E-05
213.0038,-8.957633E-05
213.1038,-8.946144E-05
213.2038,-8.934184E-05
213.3038,-8.927781E-05
213.4038,-8.918081E-05
213.5038,-8.909794E-05
213.6038,-8.901318E-05
213.7038,-8.893501E-05
213.8038,-8.883237E-05
213.9039,-8.876645E-05
214.0039,-8.871371E-05
214.1039,-8.860258E-05
214.2039,-8.852818E-05
214.3039,-8.848205E-05
214.4039,-8.840011E-05
214.5039,-8.828333E-05
214.6039,-8.820235E-05
214.7039,-8.816374E-05
214.8039,-8.806485E-05
214.9039,-8.795749E-05
215.0039,-8.790853E-05
215.1039,-8.784638E-05
215.2039,-8.773431E-05
215.3039,-8.767875E-05
215.4039,-8.761376E-05
215.504,-8.751959E-05
215.604,-8.745744E-05
215.704,-8.735856E-05
215.804,-8.728699E-05
215.904,-8.723896E-05
216.004,-8.711089E-05
216.104,-8.707133E-05
216.204,-8.702142E-05
216.304,-8.692253E-05
216.404,-8.682083E-05
216.504,-8.676715E-05
216.604,-8.66645E-05
216.704,-8.658163E-05
216.804,-8.650535E-05
216.904,-8.645262E-05
217.004,-8.633867E-05
217.104,-8.626897E-05
217.2041,-8.62134E-05
217.3041,-8.611736E-05
217.4041,-8.60326E-05
217.5041,-8.5994E-05
217.6041,-8.591865E-05
217.7041,-8.580658E-05
217.8041,-8.577645E-05
217.9041,-8.572183E-05
218.0041,-8.559092E-05
218.1041,-8.554667E-05
218.2041,-8.546568E-05
218.3041,-8.536962E-05
218.4041,-8.532159E-05
218.5041,-8.523119E-05
218.6041,-8.514454E-05
218.7041,-8.509747E-05
218.8042,-8.502118E-05
218.9042,-8.494019E-05
219.0042,-8.484696E-05
219.1042,-8.48253E-05
219.2042,-8.475656E-05
219.3042,-8.467651E-05
219.4042,-8.459081E-05
219.5042,-8.451736E-05
219.6042,-8.440717E-05
219.7042,-8.435538E-05
219.8042,-8.429417E-05
219.9042,-8.420658E-05
220.0042,-8.412371E-05
220.1042,-8.404178E-05
220.2042,-8.39768E-05
220.3042,-8.391276E-05
220.4043,-8.381765E-05
220.5043,-8.372724E-05
220.6043,-8.367827E-05
220.7043,-8.360011E-05
220.8043,-8.349746E-05
220.9043,-8.344754E-05
221.0043,-8.338445E-05
221.1043,-8.32997E-05
221.2043,-8.31961E-05
221.3043,-8.315562E-05
221.4043,-8.308875E-05
221.5043,-8.299269E-05
221.6043,-8.293054E-05
221.7043,-8.288251E-05
221.8043,-8.278269E-05
221.9043,-8.271488E-05
222.0043,-8.265367E-05
222.1044,-8.256703E-05
222.2044,-8.251429E-05
222.3044,-8.245968E-05
222.4044,-8.235043E-05
222.5044,-8.230711E-05
222.6044,-8.223084E-05
222.7044,-8.214796E-05
222.8044,-8.208016E-05
222.9044,-8.202271E-05
223.0044,-8.194454E-05
223.1044,-8.184001E-05
223.2044,-8.179669E-05
223.3044,-8.172607E-05
223.4044,-8.161589E-05
223.5044,-8.156691E-05
223.6044,-8.151888E-05
223.7045,-8.142189E-05
223.8045,-8.137009E-05
223.9045,-8.129004E-05
224.0045,-8.123825E-05
224.1045,-8.11648E-05
224.2045,-8.105273E-05
224.3045,-8.102636E-05
224.4045,-8.096985E-05
224.5045,-8.087944E-05
224.6045,-8.077679E-05
224.7045,-8.072594E-05
224.8045,-8.06685E-05
224.9045,-8.05715E-05
225.0045,-8.050369E-05
225.1045,-8.042082E-05
225.2045,-8.03549E-05
225.3046,-8.030123E-05
225.4046,-8.025319E-05
225.5046,-8.013831E-05
225.6046,-8.008369E-05
225.7046,-8.006014E-05
225.8046,-7.995089E-05
225.9046,-7.987462E-05
226.0046,-7.983884E-05
226.1046,-7.97795E-05
226.2046,-7.971829E-05
226.3046,-7.969287E-05
226.4046,-7.962318E-05
226.5046,-7.952994E-05
226.6046,-7.955066E-05
226.7046,-7.942918E-05
226.8046,-7.933783E-05
226.9046,-7.933312E-05
227.0047,-7.926626E-05
227.1047,-7.915325E-05
227.2047,-7.914195E-05
227.3047,-7.912029E-05
227.4047,-7.900823E-05
227.5047,-7.891029E-05
227.6047,-7.888957E-05
227.7047,-7.879727E-05
227.8047,-7.874737E-05
227.9047,-7.867956E-05
228.0047,-7.863059E-05
228.1047,-7.856843E-05
228.2047,-7.84997E-05
228.3047,-7.845166E-05
228.4047,-7.839892E-05
228.5047,-7.831323E-05
228.6048,-7.825296E-05
228.7048,-7.817009E-05
228.8048,-7.811547E-05
228.9048,-7.804861E-05
229.0048,-7.800433E-05
229.1048,-7.791299E-05
229.2048,-7.786026E-05
229.3048,-7.777456E-05
229.4048,-7.773783E-05
229.5048,-7.765402E-05
229.6048,-7.758998E-05
229.7048,-7.753159E-05
229.8048,-7.74798E-05
229.9048,-7.74393E-05
230.0048,-7.736114E-05
230.1048,-7.72792E-05
230.2048,-7.723871E-05
230.3049,-7.714831E-05
230.4049,-7.708521E-05
230.5049,-7.70353E-05
230.6049,-7.69562E-05
230.7049,-7.685825E-05
230.8049,-7.684601E-05
230.9049,-7.673771E-05
231.0049,-7.664825E-05
231.1049,-7.66153E-05
231.2049,-7.656444E-05
231.3049,-7.647215E-05
231.4049,-7.640811E-05
231.5049,-7.639021E-05
231.6049,-7.626308E-05
231.7049,-7.619716E-05
231.8049,-7.618774E-05
231.905,-7.608415E-05
232.005,-7.599469E-05
232.105,-7.597868E-05
232.205,-7.595419E-05
232.305,-7.583648E-05
232.405,-7.581011E-05
232.505,-7.578656E-05
232.605,-7.568863E-05
232.705,-7.565566E-05
232.805,-7.559068E-05
232.905,-7.551251E-05
233.005,-7.555113E-05
233.105,-7.547015E-05
233.205,-7.533265E-05
233.305,-7.527897E-05
233.405,-7.523188E-05
233.5051,-7.512829E-05
233.6051,-7.503506E-05
233.7051,-7.500492E-05
233.8051,-7.493806E-05
233.9051,-7.486649E-05
234.0051,-7.483258E-05
234.1051,-7.477608E-05
234.2051,-7.470734E-05
234.3051,-7.463953E-05
234.4051,-7.457738E-05
234.5051,-7.453311E-05
234.6051,-7.447285E-05
234.7051,-7.439563E-05
234.8051,-7.434007E-05
234.9051,-7.433629E-05
235.0051,-7.42958E-05
235.1051,-7.424401E-05
235.2052,-7.411875E-05
235.3052,-7.409992E-05
235.4052,-7.404059E-05
235.5052,-7.393888E-05
235.6052,-7.391252E-05
235.7052,-7.383341E-05
235.8052,-7.374301E-05
235.9052,-7.370439E-05
236.0052,-7.361494E-05
236.1052,-7.356879E-05
236.2052,-7.351228E-05
236.3052,-7.345483E-05
236.4052,-7.336914E-05
236.5052,-7.331828E-05
236.6052,-7.325708E-05
236.7052,-7.320528E-05
236.8053,-7.315442E-05
236.9053,-7.308945E-05
237.0053,-7.299904E-05
237.1053,-7.29463E-05
237.2053,-7.293595E-05
237.3053,-7.28267E-05
237.4053,-7.274948E-05
237.5053,-7.274854E-05
237.6053,-7.267037E-05
237.7053,-7.259409E-05
237.8053,-7.25244E-05
237.9053,-7.248297E-05
238.0053,-7.238879E-05
238.1053,-7.23436E-05
238.2053,-7.227108E-05
238.3053,-7.220327E-05
238.4053,-7.215619E-05
238.5054,-7.212041E-05
238.6054,-7.204883E-05
238.7054,-7.20234E-05
238.8054,-7.194241E-05
238.9054,-7.188873E-05
239.0054,-7.184353E-05
239.1054,-7.179645E-05
239.2054,-7.172581E-05
239.3054,-7.16712E-05
239.4054,-7.162223E-05
239.5054,-7.155631E-05
239.6054,-7.150733E-05
239.7054,-7.146778E-05
239.8054,-7.145271E-05
239.9054,-7.140563E-05
240.0054,-7.1335E-05
240.1055,-7.134912E-05
240.2055,-7.125118E-05
240.3055,-7.114571E-05
240.4055,-7.113064E-05
240.5055,-7.103458E-05
240.6055,-7.09489E-05
240.7055,-7.093287E-05
240.8055,-7.089804E-05
240.9055,-7.077279E-05
241.0055,-7.0737E-05
241.1055,-7.068615E-05
241.2055,-7.061646E-05
241.3055,-7.057974E-05
241.4055,-7.051852E-05
241.5055,-7.046956E-05
241.6055,-7.038668E-05
241.7056,-7.035184E-05
241.8056,-7.028309E-05
241.9056,-7.021622E-05
242.0056,-7.018043E-05
242.1056,-7.01211E-05
242.2056,-7.008438E-05
242.3056,-7.009285E-05
242.4056,-7.000809E-05
242.5056,-6.994123E-05
242.6056,-6.994406E-05
242.7056,-6.985742E-05
242.8056,-6.975665E-05
242.9056,-6.968321E-05
243.0056,-6.965683E-05
243.1056,-6.954101E-05
243.2056,-6.948638E-05
243.3056,-6.947602E-05
243.4057,-6.941293E-05
243.5057,-6.936395E-05
243.6057,-6.935736E-05
243.7057,-6.927731E-05
243.8057,-6.919632E-05
243.9057,-6.915395E-05
244.0057,-6.911722E-05
244.1057,-6.904471E-05
244.2057,-6.906731E-05
244.3057,-6.900421E-05
244.4057,-6.892888E-05
244.5057,-6.890722E-05
244.6057,-6.889309E-05
244.7057,-6.879515E-05
244.8057,-6.872923E-05
244.9057,-6.871321E-05
245.0058,-6.863788E-05
245.1058,-6.852392E-05
245.2058,-6.85164E-05
245.3058,-6.846365E-05
245.4058,-6.837797E-05
245.5058,-6.832899E-05
245.6058,-6.831111E-05
245.7058,-6.823764E-05
245.8058,-6.817831E-05
245.9058,-6.811898E-05
246.0058,-6.807096E-05
246.1058,-6.802199E-05
246.2058,-6.79862E-05
246.3058,-6.791181E-05
246.4058,-6.782423E-05
246.5058,-6.781481E-05
246.6059,-6.776867E-05
246.7059,-6.76971E-05
246.8059,-6.767637E-05
246.9059,-6.762458E-05
247.0059,-6.755113E-05
247.1059,-6.754265E-05
247.2059,-6.747767E-05
247.3059,-6.740044E-05
247.4059,-6.736278E-05
247.5059,-6.734583E-05
247.6059,-6.726108E-05
247.7059,-6.720174E-05
247.8059,-6.717726E-05
247.9059,-6.710945E-05
248.0059,-6.706048E-05
248.1059,-6.701057E-05
248.2059,-6.693428E-05
248.306,-6.688061E-05
248.406,-6.684294E-05
248.506,-6.678738E-05
248.606,-6.676572E-05
248.706,-6.672428E-05
248.806,-6.668002E-05
248.906,-6.662634E-05
249.006,-6.655759E-05
249.106,-6.651993E-05
249.206,-6.644082E-05
249.306,-6.638243E-05
249.406,-6.636926E-05
249.506,-6.632028E-05
249.606,-6.623835E-05
249.706,-6.620727E-05
249.806,-6.619314E-05
249.9061,-6.610556E-05
250.0061,-6.60387E-05
250.1061,-6.601799E-05
250.2061,-6.598125E-05
250.3061,-6.588992E-05
250.4061,-6.587578E-05
250.5061,-6.582304E-05
250.6061,-6.573828E-05
250.7061,-6.573075E-05
250.8061,-6.568932E-05
250.9061,-6.559891E-05
251.0061,-6.556595E-05
251.1061,-6.555277E-05
251.2061,-6.549815E-05
251.3061,-6.546142E-05
251.4061,-6.540115E-05
251.5061,-6.532298E-05
251.6062,-6.527214E-05
251.7062,-6.521657E-05
251.8062,-6.516289E-05
251.9062,-6.51497E-05
252.0062,-6.510262E-05
252.1062,-6.503387E-05
252.2062,-6.49689E-05
252.3062,-6.493876E-05
252.4062,-6.485212E-05
252.5062,-6.479656E-05
252.6062,-6.474665E-05
252.7062,-6.469015E-05
252.8062,-6.467979E-05
252.9062,-6.466095E-05
253.0062,-6.461574E-05
253.1062,-6.457807E-05
253.2063,-6.450085E-05
253.3063,-6.446884E-05
253.4063,-6.439161E-05
253.5063,-6.433793E-05
253.6063,-6.435583E-05
253.7063,-6.428143E-05
253.8063,-6.416559E-05
253.9063,-6.416559E-05
254.0063,-6.407707E-05
254.1063,-6.399515E-05
254.2063,-6.398572E-05
254.3063,-6.3949E-05
254.4063,-6.38699E-05
254.5063,-6.382939E-05
254.6063,-6.380774E-05
254.7063,-6.373899E-05
254.8064,-6.366837E-05
254.9064,-6.365895E-05
255.0064,-6.361563E-05
255.1064,-6.354311E-05
255.2064,-6.352239E-05
255.3064,-6.348284E-05
255.4064,-6.339997E-05
255.5064,-6.337266E-05
255.6064,-6.331898E-05
255.7064,-6.329167E-05
255.8064,-6.322481E-05
255.9064,-6.319091E-05
256.0064,-6.314665E-05
256.1064,-6.307413E-05
256.2064,-6.304117E-05
256.3064,-6.300445E-05
256.4064,-6.292722E-05
256.5064,-6.288202E-05
256.6064,-6.283305E-05
256.7065,-6.278596E-05
256.8065,-6.274359E-05
256.9065,-6.269085E-05
257.0065,-6.26334E-05
257.1065,-6.26334E-05
257.2065,-6.252887E-05
257.3065,-6.248931E-05
257.4065,-6.250438E-05
257.5065,-6.247236E-05
257.6065,-6.23782E-05
257.7065,-6.230285E-05
257.8065,-6.229344E-05
257.9065,-6.22633E-05
258.0065,-6.216631E-05
258.1065,-6.210415E-05
258.2065,-6.206083E-05
258.3065,-6.200809E-05
258.4066,-6.197419E-05
258.5066,-6.190356E-05
258.6066,-6.187343E-05
258.7066,-6.18367E-05
258.8066,-6.177078E-05
258.9066,-6.171898E-05
259.0066,-6.169543E-05
259.1066,-6.162575E-05
259.2066,-6.159655E-05
259.3066,-6.156642E-05
259.4066,-6.15052E-05
259.5066,-6.144682E-05
259.6066,-6.140067E-05
259.7066,-6.137148E-05
259.8066,-6.131121E-05
259.9066,-6.126883E-05
260.0067,-6.125753E-05
260.1067,-6.119726E-05
260.2067,-6.110874E-05
260.3067,-6.110215E-05
260.4067,-6.106448E-05
260.5067,-6.097784E-05
260.6067,-6.095523E-05
260.7067,-6.094488E-05
260.8067,-6.084882E-05
260.9067,-6.083093E-05
261.0067,-6.082245E-05
261.1067,-6.075276E-05
261.2067,-6.069531E-05
261.3067,-6.070191E-05
261.4067,-6.063316E-05
261.5067,-6.055029E-05
261.6068,-6.054558E-05
261.7068,-6.049096E-05
261.8068,-6.040715E-05
261.9068,-6.039114E-05
262.0068,-6.034311E-05
262.1068,-6.032145E-05
262.2068,-6.028378E-05
262.3068,-6.02188E-05
262.4068,-6.01736E-05
262.5068,-6.010109E-05
262.6068,-6.008978E-05
262.7068,-6.007283E-05
262.8068,-6.001727E-05
262.9068,-5.994758E-05
263.0068,-5.98939E-05
263.1068,-5.987695E-05
263.2068,-5.984211E-05
263.3069,-5.976489E-05
263.4069,-5.971874E-05
263.5069,-5.972251E-05
263.6069,-5.962174E-05
263.7069,-5.954923E-05
263.8069,-5.9569E-05
263.9069,-5.953605E-05
264.0069,-5.945788E-05
264.1069,-5.941739E-05
264.2069,-5.94155E-05
264.3069,-5.934299E-05
264.4069,-5.929402E-05
264.5069,-5.931756E-05
264.6069,-5.924788E-05
264.7069,-5.91829E-05
264.8069,-5.917536E-05
264.907,-5.911792E-05
265.007,-5.904258E-05
265.107,-5.904635E-05
265.207,-5.90002E-05
265.307,-5.893616E-05
265.407,-5.8955E-05
265.507,-5.891168E-05
265.607,-5.883728E-05
265.707,-5.881185E-05
265.807,-5.878831E-05
265.907,-5.871015E-05
266.007,-5.865082E-05
266.107,-5.862351E-05
266.207,-5.855571E-05
266.307,-5.853216E-05
266.407,-5.851427E-05
266.507,-5.845306E-05
266.6071,-5.842104E-05
266.7071,-5.842104E-05
266.8071,-5.838619E-05
266.9071,-5.832027E-05
267.0071,-5.826377E-05
267.1071,-5.826377E-05
267.2071,-5.820726E-05
267.3071,-5.816865E-05
267.4071,-5.816489E-05
267.5071,-5.811026E-05
267.6071,-5.807542E-05
267.7071,-5.803304E-05
267.8071,-5.798501E-05
267.9071,-5.793039E-05
268.0071,-5.793134E-05
268.1071,-5.785976E-05
268.2072,-5.782115E-05
268.3072,-5.782586E-05
268.4072,-5.775994E-05
268.5072,-5.772416E-05
268.6072,-5.769402E-05
268.7072,-5.762245E-05
268.8072,-5.75942E-05
268.9072,-5.761868E-05
269.0072,-5.75829E-05
269.1072,-5.751038E-05
269.2072,-5.747648E-05
269.3072,-5.747836E-05
269.4072,-5.739172E-05
269.5072,-5.734276E-05
269.6072,-5.733993E-05
269.7072,-5.728248E-05
269.8073,-5.718266E-05
269.9073,-5.719208E-05
270.0073,-5.71544E-05
270.1073,-5.708472E-05
270.2073,-5.705741E-05
270.3073,-5.702351E-05
270.4073,-5.698584E-05
270.5073,-5.69444E-05
270.6073,-5.695571E-05
270.7073,-5.693969E-05
270.8073,-5.683987E-05
270.9073,-5.682669E-05
271.0073,-5.680126E-05
271.1073,-5.671933E-05
271.2073,-5.66939E-05
271.3073,-5.667978E-05
271.4073,-5.662515E-05
271.5074,-5.658654E-05
271.6074,-5.656017E-05
271.7074,-5.650744E-05
271.8074,-5.650085E-05
271.9074,-5.645187E-05
272.0074,-5.640385E-05
272.1074,-5.639067E-05
272.2074,-5.637277E-05
272.3074,-5.630497E-05
272.4074,-5.626259E-05
272.5074,-5.62381E-05
272.6074,-5.619007E-05
272.7074,-5.612415E-05
272.8074,-5.611662E-05
272.9074,-5.609025E-05
273.0074,-5.602433E-05
273.1075,-5.602904E-05
273.2075,-5.601021E-05
273.3075,-5.590661E-05
273.4075,-5.591321E-05
273.5075,-5.586706E-05
273.6075,-5.58115E-05
273.7075,-5.578984E-05
273.8075,-5.575311E-05
273.9075,-5.571168E-05
274.0075,-5.569472E-05
274.1075,-5.568625E-05
274.2075,-5.563634E-05
274.3075,-5.559019E-05
274.4075,-5.558737E-05
274.5075,-5.556288E-05
274.6075,-5.549225E-05
274.7076,-5.54753E-05
274.8076,-5.544516E-05
274.9076,-5.537077E-05
275.0076,-5.534817E-05
275.1076,-5.531615E-05
275.2076,-5.52879E-05
275.3076,-5.52587E-05
275.4076,-5.522857E-05
275.5076,-5.519278E-05
275.6076,-5.516641E-05
275.7076,-5.508919E-05
275.8076,-5.509013E-05
275.9076,-5.504587E-05
276.0076,-5.501573E-05
276.1076,-5.498466E-05
276.2076,-5.493192E-05
276.3076,-5.489049E-05
276.4077,-5.485282E-05
276.5077,-5.480384E-05
276.6077,-5.477371E-05
276.7077,-5.474546E-05
276.8077,-5.468048E-05
276.9077,-5.466353E-05
277.0077,-5.462963E-05
277.1077,-5.458819E-05
277.2077,-5.456182E-05
277.3077,-5.452604E-05
277.4077,-5.448554E-05
277.5077,-5.446577E-05
277.6077,-5.444599E-05
277.7077,-5.438478E-05
277.8077,-5.438478E-05
277.9077,-5.439796E-05
278.0078,-5.435558E-05
278.1078,-5.425576E-05
278.2078,-5.432074E-05
278.3078,-5.425482E-05
278.4078,-5.418513E-05
278.5078,-5.418607E-05
278.6078,-5.415217E-05
278.7078,-5.409943E-05
278.8078,-5.40514E-05
278.9078,-5.40514E-05
279.0078,-5.399207E-05
279.1078,-5.390544E-05
279.2078,-5.392427E-05
279.3078,-5.388189E-05
279.4078,-5.380278E-05
279.5078,-5.380184E-05
279.6078,-5.380278E-05
279.7079,-5.371897E-05
279.8079,-5.36813E-05
279.9079,-5.368695E-05
280.0079,-5.364081E-05
280.1079,-5.357112E-05
280.2079,-5.356264E-05
280.3079,-5.355699E-05
280.4079,-5.351368E-05
280.5079,-5.346094E-05
280.6079,-5.342986E-05
280.7079,-5.33743E-05
280.8079,-5.339973E-05
280.9079,-5.33404E-05
281.0079,-5.326882E-05
281.1079,-5.326788E-05
281.2079,-5.325752E-05
281.308,-5.321609E-05
281.408,-5.316618E-05
281.508,-5.314546E-05
281.608,-5.311344E-05
281.708,-5.307106E-05
281.808,-5.304469E-05
281.908,-5.301738E-05
282.008,-5.296465E-05
282.108,-5.293451E-05
282.208,-5.291097E-05
282.308,-5.288083E-05
282.408,-5.285164E-05
282.508,-5.278666E-05
282.608,-5.276782E-05
282.708,-5.2765E-05
282.808,-5.268119E-05
282.9081,-5.264069E-05
283.0081,-5.265388E-05
283.1081,-5.264257E-05
283.2081,-5.255782E-05
283.3081,-5.253804E-05
283.4081,-5.254087E-05
283.5081,-5.247306E-05
283.6081,-5.245423E-05
283.7081,-5.245705E-05
283.8081,-5.240337E-05
283.9081,-5.235534E-05
284.0081,-5.232803E-05
284.1081,-5.226682E-05
284.2081,-5.219713E-05
284.3081,-5.221691E-05
284.4081,-5.215476E-05
284.5081,-5.21331E-05
284.6082,-5.210391E-05
284.7082,-5.210202E-05
284.8082,-5.205023E-05
284.9082,-5.20295E-05
285.0082,-5.199278E-05
285.1082,-5.19617E-05
285.2082,-5.190802E-05
285.3082,-5.188824E-05
285.4082,-5.187035E-05
285.5082,-5.184398E-05
285.6082,-5.182421E-05
285.7082,-5.176582E-05
285.8082,-5.171591E-05
285.9082,-5.172156E-05
286.0082,-5.167918E-05
286.1082,-5.162833E-05
286.2083,-5.159254E-05
286.3083,-5.158501E-05
286.4083,-5.152851E-05
286.5083,-5.148236E-05
286.6083,-5.15012E-05
286.7083,-5.14494E-05
286.8083,-5.138348E-05
286.9083,-5.140043E-05
287.0083,-5.137971E-05
287.1083,-5.132886E-05
287.2083,-5.129778E-05
287.3083,-5.128459E-05
287.4083,-5.122997E-05
287.5083,-5.119419E-05
287.6083,-5.116311E-05
287.7083,-5.115746E-05
287.8083,-5.11471E-05
287.9084,-5.111414E-05
288.0084,-5.105387E-05
288.1084,-5.105575E-05
288.2084,-5.101526E-05
288.3084,-5.095687E-05
288.4084,-5.097006E-05
288.5084,-5.092862E-05
288.6084,-5.087871E-05
288.7084,-5.086741E-05
288.8084,-5.086458E-05
288.9084,-5.080808E-05
289.0084,-5.078454E-05
289.1084,-5.075534E-05
289.2084,-5.068471E-05
289.3084,-5.065552E-05
289.4084,-5.064893E-05
289.5085,-5.057453E-05
289.6085,-5.057924E-05
289.7085,-5.058866E-05
289.8085,-5.055381E-05
289.9085,-5.049637E-05
290.0085,-5.047848E-05
290.1085,-5.047376E-05
290.2085,-5.042762E-05
290.3085,-5.038618E-05
290.4085,-5.041161E-05
290.5085,-5.035134E-05
290.6085,-5.029672E-05
290.7085,-5.031461E-05
290.8085,-5.028354E-05
290.9085,-5.021291E-05
291.0085,-5.019972E-05
291.1086,-5.015452E-05
291.2086,-5.010461E-05
291.3086,-5.006223E-05
291.4086,-5.006505E-05
291.5086,-5.001985E-05
291.6086,-4.9969E-05
291.7086,-4.996052E-05
291.8086,-4.99511E-05
291.9086,-4.989837E-05
292.0086,-4.986352E-05
292.1086,-4.983904E-05
292.2086,-4.981455E-05
292.3086,-4.979195E-05
292.4086,-4.972697E-05
292.5086,-4.970532E-05
292.6086,-4.970154E-05
292.7086,-4.968271E-05
292.8087,-4.960737E-05
292.9087,-4.960737E-05
293.0087,-4.959607E-05
293.1087,-4.954239E-05
293.2087,-4.948213E-05
293.3087,-4.946894E-05
293.4087,-4.945858E-05
293.5087,-4.941526E-05
293.6087,-4.94049E-05
293.7087,-4.932486E-05
293.8087,-4.931355E-05
293.9087,-4.932203E-05
294.0087,-4.925611E-05
294.1087,-4.921561E-05
294.2087,-4.921561E-05
294.3087,-4.920808E-05
294.4088,-4.91431E-05
294.5088,-4.916382E-05
294.6088,-4.914027E-05
294.7088,-4.90687E-05
294.8088,-4.909601E-05
294.9088,-4.907247E-05
295.0088,-4.902444E-05
295.1088,-4.898866E-05
295.2088,-4.900089E-05
295.3088,-4.896699E-05
295.4088,-4.887847E-05
295.5088,-4.887094E-05
295.6088,-4.885493E-05
295.7088,-4.879654E-05
295.8088,-4.878242E-05
295.9088,-4.874663E-05
296.0089,-4.869483E-05
296.1089,-4.872591E-05
296.2089,-4.868448E-05
296.3089,-4.861008E-05
296.4089,-4.860914E-05
296.5089,-4.859407E-05
296.6089,-4.853474E-05
296.7089,-4.850555E-05
296.8089,-4.851214E-05
296.9089,-4.848483E-05
297.0089,-4.845658E-05
297.1089,-4.843868E-05
297.2089,-4.841985E-05
297.3089,-4.836523E-05
297.4089,-4.836429E-05
297.5089,-4.834545E-05
297.6089,-4.831532E-05
297.709,-4.831249E-05
297.809,-4.831532E-05
297.909,-4.82607E-05
298.009,-4.819854E-05
298.109,-4.816747E-05
298.209,-4.814957E-05
298.309,-4.81006E-05
298.409,-4.808742E-05
298.509,-4.805446E-05
298.609,-4.80036E-05
298.709,-4.801396E-05
298.809,-4.797064E-05
298.909,-4.793297E-05
299.009,-4.792921E-05
299.109,-4.791132E-05
299.209,-4.78614E-05
299.3091,-4.78727E-05
299.4091,-4.781432E-05
299.5091,-4.777759E-05
299.6091,-4.775216E-05
299.7091,-4.776158E-05
299.8091,-4.771261E-05
299.9091,-4.767964E-05
300.0091,-4.769471E-05
300.1091,-4.765233E-05
300.2091,-4.759489E-05
300.3091,-4.760148E-05
300.4091,-4.757229E-05
300.5091,-4.753274E-05
300.6091,-4.751956E-05
300.7091,-4.748094E-05
300.8091,-4.744892E-05
300.9091,-4.742915E-05
301.0092,-4.738866E-05
301.1092,-4.7383E-05
301.2092,-4.738112E-05
301.3092,-4.737735E-05
301.4092,-4.730578E-05
301.5092,-4.729165E-05
301.6092,-4.73152E-05
301.7092,-4.724834E-05
301.8092,-4.722479E-05
301.9092,-4.720313E-05
302.0092,-4.715416E-05
302.1092,-4.714569E-05
302.2092,-4.712309E-05
302.3092,-4.707694E-05
302.4092,-4.703456E-05
302.5092,-4.702515E-05
302.6093,-4.702232E-05
302.7093,-4.696864E-05
302.8093,-4.692438E-05
302.9093,-4.692532E-05
303.0093,-4.69046E-05
303.1093,-4.688577E-05
303.2093,-4.686317E-05
303.3093,-4.682738E-05
303.4093,-4.680478E-05
303.5093,-4.678218E-05
303.6093,-4.673886E-05
303.7093,-4.672473E-05
303.8093,-4.673603E-05
303.9093,-4.669554E-05
304.0093,-4.662773E-05
304.1093,-4.66833E-05
304.2094,-4.661549E-05
304.3094,-4.6575E-05
304.4094,-4.654581E-05
304.5094,-4.652038E-05
304.6094,-4.649589E-05
304.7094,-4.644787E-05
304.8094,-4.64667E-05
304.9094,-4.640078E-05
305.0094,-4.638006E-05
305.1094,-4.639042E-05
305.2094,-4.634615E-05
305.3094,-4.631414E-05
305.4094,-4.636876E-05
305.5094,-4.63471E-05
305.6094,-4.627929E-05
305.7094,-4.627741E-05
305.8094,-4.62614E-05
305.9095,-4.616534E-05
306.0095,-4.620772E-05
306.1095,-4.616534E-05
306.2095,-4.609377E-05
306.3095,-4.609754E-05
306.4095,-4.609754E-05
306.5095,-4.60335E-05
306.6095,-4.596947E-05
306.7095,-4.600619E-05
306.8095,-4.597323E-05
306.9095,-4.592803E-05
307.0095,-4.594686E-05
307.1095,-4.59478E-05
307.2095,-4.587623E-05
307.3095,-4.590919E-05
307.4095,-4.587811E-05
307.5096,-4.579336E-05
307.6096,-4.581502E-05
307.7096,-4.578017E-05
307.8096,-4.570766E-05
307.9096,-4.570201E-05
308.0096,-4.570484E-05
308.1096,-4.566152E-05
308.2096,-4.56182E-05
308.3096,-4.562761E-05
308.4096,-4.562385E-05
308.5096,-4.55777E-05
308.6096,-4.555134E-05
308.7096,-4.551272E-05
308.8096,-4.547882E-05
308.9096,-4.546752E-05
309.0096,-4.543456E-05
309.1096,-4.538842E-05
309.2097,-4.541102E-05
309.3097,-4.537994E-05
309.4097,-4.533662E-05
309.5097,-4.532438E-05
309.6097,-4.533003E-05
309.7097,-4.527164E-05
309.8097,-4.523209E-05
309.9097,-4.523115E-05
310.0097,-4.520384E-05
310.1097,-4.514922E-05
310.2097,-4.516522E-05
310.3097,-4.513697E-05
310.4097,-4.507576E-05
310.5097,-4.509742E-05
310.6097,-4.507576E-05
310.7097,-4.502208E-05
310.8098,-4.499383E-05
310.9098,-4.500419E-05
311.0098,-4.495522E-05
311.1098,-4.493074E-05
311.2098,-4.494863E-05
311.3098,-4.490625E-05
311.4098,-4.486952E-05
311.5098,-4.491378E-05
311.6098,-4.491661E-05
311.7098,-4.482338E-05
311.8098,-4.482338E-05
311.9098,-4.479701E-05
312.0098,-4.475463E-05
312.1098,-4.475651E-05
312.2098,-4.474427E-05
312.3098,-4.47179E-05
312.4099,-4.470754E-05
312.5099,-4.468212E-05
312.6099,-4.46501E-05
312.7099,-4.465481E-05
312.8099,-4.46162E-05
312.9099,-4.459265E-05
313.0099,-4.45305E-05
313.1099,-4.453332E-05
313.2099,-4.451731E-05
313.3099,-4.447023E-05
313.4099,-4.44853E-05
313.5099,-4.445799E-05
313.6099,-4.443444E-05
313.7099,-4.442031E-05
313.8099,-4.440901E-05
313.9099,-4.438735E-05
314.0099,-4.437417E-05
314.11,-4.43478E-05
314.21,-4.432426E-05
314.31,-4.432709E-05
314.41,-4.430731E-05
314.51,-4.42687E-05
314.61,-4.422161E-05
314.71,-4.424986E-05
314.81,-4.421313E-05
314.91,-4.417264E-05
315.01,-4.418865E-05
315.11,-4.417829E-05
315.21,-4.411896E-05
315.31,-4.409353E-05
315.41,-4.410107E-05
315.51,-4.407093E-05
315.61,-4.40634E-05
315.7101,-4.402949E-05
315.8101,-4.397958E-05
315.9101,-4.397958E-05
316.0101,-4.398618E-05
316.1101,-4.389295E-05
316.2101,-4.389295E-05
316.3101,-4.393438E-05
316.4101,-4.3876E-05
316.5101,-4.383362E-05
316.6101,-4.385151E-05
316.7101,-4.383268E-05
316.8101,-4.378277E-05
316.9101,-4.378653E-05
317.0101,-4.377429E-05
317.1101,-4.372344E-05
317.2101,-4.370178E-05
317.3102,-4.369424E-05
317.4102,-4.365845E-05
317.5102,-4.363962E-05
317.6102,-4.36189E-05
317.7102,-4.358688E-05
317.8102,-4.357181E-05
317.9102,-4.357276E-05
318.0102,-4.352002E-05
318.1102,-4.348141E-05
318.2102,-4.348706E-05
318.3102,-4.345881E-05
318.4102,-4.341832E-05
318.5102,-4.342302E-05
318.6102,-4.338535E-05
318.7102,-4.336087E-05
318.8102,-4.336746E-05
318.9102,-4.332696E-05
319.0103,-4.330531E-05
319.1103,-4.32893E-05
319.2103,-4.32714E-05
319.3103,-4.323468E-05
319.4103,-4.321301E-05
319.5103,-4.321396E-05
319.6103,-4.317346E-05
319.7103,-4.313297E-05
319.8103,-4.314333E-05
319.9103,-4.309907E-05
320.0103,-4.308588E-05
320.1103,-4.308212E-05
320.2103,-4.303032E-05
320.3103,-4.298889E-05
320.4103,-4.302655E-05
320.5103,-4.300301E-05
320.6104,-4.292014E-05
320.7104,-4.293332E-05
320.8104,-4.293897E-05
320.9104,-4.289848E-05
321.0104,-4.286646E-05
321.1104,-4.28674E-05
321.2104,-4.282597E-05
321.3104,-4.279583E-05
321.4104,-4.281278E-05
321.5104,-4.277511E-05
321.6104,-4.273462E-05
321.7104,-4.275157E-05
321.8104,-4.272708E-05
321.9104,-4.269789E-05
322.0104,-4.268188E-05
322.1104,-4.267529E-05
322.2104,-4.266399E-05
322.3105,-4.265363E-05
322.4105,-4.260937E-05
322.5105,-4.259524E-05
322.6105,-4.257547E-05
322.7105,-4.252649E-05
322.8105,-4.250201E-05
322.9105,-4.251519E-05
323.0105,-4.24747E-05
323.1105,-4.242573E-05
323.2105,-4.241443E-05
323.3105,-4.242008E-05
323.4105,-4.235039E-05
323.5105,-4.235604E-05
323.6105,-4.236263E-05
323.7105,-4.232497E-05
323.8105,-4.227976E-05
323.9106,-4.230801E-05
324.0106,-4.228918E-05
324.1106,-4.223079E-05
324.2106,-4.222985E-05
324.3106,-4.222985E-05
324.4106,-4.218653E-05
324.5106,-4.215169E-05
324.6106,-4.215451E-05
324.7106,-4.213944E-05
324.8106,-4.209989E-05
324.9106,-4.208765E-05
325.0106,-4.210931E-05
325.1106,-4.207917E-05
325.2106,-4.208294E-05
325.3106,-4.205187E-05
325.4106,-4.203209E-05
325.5107,-4.20754E-05
325.6107,-4.200195E-05
325.7107,-4.194733E-05
325.8107,-4.20076E-05
325.9107,-4.198312E-05
326.0107,-4.18993E-05
326.1107,-4.186822E-05
326.2107,-4.187576E-05
326.3107,-4.184186E-05
326.4107,-4.184091E-05
326.5107,-4.18249E-05
326.6107,-4.178347E-05
326.7107,-4.175239E-05
326.8107,-4.177782E-05
326.9107,-4.173544E-05
327.0107,-4.169589E-05
327.1107,-4.171095E-05
327.2108,-4.169024E-05
327.3108,-4.165539E-05
327.4108,-4.166198E-05
327.5108,-4.164127E-05
327.6108,-4.161396E-05
327.7108,-4.162337E-05
327.8108,-4.160454E-05
327.9108,-4.158759E-05
328.0108,-4.15584E-05
328.1108,-4.15292E-05
328.2108,-4.150378E-05
328.3108,-4.148494E-05
328.4108,-4.148494E-05
328.5108,-4.14209E-05
328.6108,-4.141055E-05
328.7108,-4.14322E-05
328.8109,-4.139453E-05
328.9109,-4.136157E-05
329.0109,-4.135216E-05
329.1109,-4.134274E-05
329.2109,-4.129188E-05
329.3109,-4.129094E-05
329.4109,-4.124762E-05
329.5109,-4.125139E-05
329.6109,-4.123632E-05
329.7109,-4.122031E-05
329.8109,-4.116475E-05
329.9109,-4.117228E-05
330.0109,-4.116946E-05
330.1109,-4.11252E-05
330.2109,-4.109883E-05
330.3109,-4.111484E-05
330.4109,-4.110919E-05
330.511,-4.105551E-05
330.611,-4.107058E-05
330.711,-4.106116E-05
330.811,-4.103668E-05
330.911,-4.105834E-05
331.011,-4.104421E-05
331.111,-4.101407E-05
331.211,-4.10282E-05
331.311,-4.103103E-05
331.411,-4.098677E-05
331.511,-4.094909E-05
331.611,-4.09086E-05
331.711,-4.089259E-05
331.811,-4.087093E-05
331.911,-4.083044E-05
332.011,-4.083514E-05
332.1111,-4.08342E-05
332.2111,-4.080219E-05
332.3111,-4.07777E-05
332.4111,-4.075887E-05
332.5111,-4.07711E-05
332.6111,-4.071931E-05
332.7111,-4.069577E-05
332.8111,-4.069859E-05
332.9111,-4.067222E-05
333.0111,-4.065151E-05
333.1111,-4.064021E-05
333.2111,-4.064021E-05
333.3111,-4.06063E-05
333.4111,-4.057052E-05
333.5111,-4.057994E-05
333.6111,-4.055075E-05
333.7112,-4.051778E-05
333.8112,-4.05498E-05
333.9112,-4.051872E-05
334.0112,-4.048482E-05
334.1112,-4.047917E-05
334.2112,-4.048482E-05
334.3112,-4.045468E-05
334.4112,-4.042737E-05
334.5112,-4.041042E-05
334.6112,-4.039442E-05
334.7112,-4.035392E-05
334.8112,-4.037746E-05
334.9112,-4.034356E-05
335.0112,-4.033885E-05
335.1112,-4.037464E-05
335.2112,-4.034545E-05
335.3112,-4.032661E-05
335.4113,-4.041137E-05
335.5113,-4.036899E-05
335.6113,-4.030401E-05
335.7113,-4.029082E-05
335.8113,-4.030777E-05
335.9113,-4.02249E-05
336.0113,-4.019948E-05
336.1113,-4.022773E-05
336.2113,-4.018347E-05
336.3113,-4.012414E-05
336.4113,-4.016934E-05
336.5113,-4.01232E-05
336.6113,-4.010436E-05
336.7113,-4.013638E-05
336.8113,-4.011849E-05
336.9113,-4.010059E-05
337.0114,-4.006763E-05
337.1114,-4.010718E-05
337.2114,-4.005539E-05
337.3114,-4.002525E-05
337.4114,-4.004974E-05
337.5114,-4.00036E-05
337.6114,-3.995463E-05
337.7114,-3.996781E-05
337.8114,-3.995745E-05
337.9114,-3.99E-05
338.0114,-3.988494E-05
338.1114,-3.988776E-05
338.2114,-3.987646E-05
338.3114,-3.983126E-05
338.4114,-3.983691E-05
338.5114,-3.983409E-05
338.6115,-3.977005E-05
338.7115,-3.979548E-05
338.8115,-3.978605E-05
338.9115,-3.972672E-05
339.0115,-3.971543E-05
339.1115,-3.97239E-05
339.2115,-3.971919E-05
339.3115,-3.969565E-05
339.4115,-3.967022E-05
339.5115,-3.966552E-05
339.6115,-3.964574E-05
339.7115,-3.963821E-05
339.8115,-3.962031E-05
339.9115,-3.960901E-05
340.0115,-3.96109E-05
340.1115,-3.95704E-05
340.2115,-3.954591E-05
340.3116,-3.956192E-05
340.4116,-3.954215E-05
340.5116,-3.950353E-05
340.6116,-3.952331E-05
340.7116,-3.947999E-05
340.8116,-3.944515E-05
340.9116,-3.944044E-05
341.0116,-3.944986E-05
341.1116,-3.940465E-05
341.2116,-3.937169E-05
341.3116,-3.938865E-05
341.4116,-3.937264E-05
341.5116,-3.933497E-05
341.6116,-3.935192E-05
341.7116,-3.93538E-05
341.8116,-3.932743E-05
341.9117,-3.930954E-05
342.0117,-3.93312E-05
342.1117,-3.929918E-05
342.2117,-3.926057E-05
342.3117,-3.927376E-05
342.4117,-3.924738E-05
342.5117,-3.921348E-05
342.6117,-3.919276E-05
342.7117,-3.918712E-05
342.8117,-3.915321E-05
342.9117,-3.914474E-05
343.0117,-3.914474E-05
343.1117,-3.912214E-05
343.2117,-3.911743E-05
343.3117,-3.908635E-05
343.4117,-3.909106E-05
343.5117,-3.908823E-05
343.6118,-3.908258E-05
343.7118,-3.903738E-05
343.8118,-3.904586E-05
343.9118,-3.902608E-05
344.0118,-3.89837E-05
344.1118,-3.899406E-05
344.2118,-3.898558E-05
344.3118,-3.893944E-05
344.4118,-3.890931E-05
344.5118,-3.891025E-05
344.6118,-3.8898E-05
344.7118,-3.885374E-05
344.8118,-3.886504E-05
344.9118,-3.885751E-05
345.0118,-3.881795E-05
345.1118,-3.878123E-05
345.2119,-3.87897E-05
345.3119,-3.876522E-05
345.4119,-3.876239E-05
345.5119,-3.873697E-05
345.6119,-3.871907E-05
345.7119,-3.870307E-05
345.8119,-3.870401E-05
345.9119,-3.865598E-05
346.0119,-3.866069E-05
346.1119,-3.863714E-05
346.2119,-3.860418E-05
346.3119,-3.859194E-05
346.4119,-3.860701E-05
346.5119,-3.857217E-05
346.6119,-3.852037E-05
346.7119,-3.856652E-05
346.812,-3.856087E-05
346.912,-3.849776E-05
347.012,-3.853638E-05
347.112,-3.850154E-05
347.212,-3.846669E-05
347.312,-3.849023E-05
347.412,-3.848553E-05
347.512,-3.846198E-05
347.612,-3.844315E-05
347.712,-3.846763E-05
347.812,-3.846481E-05
347.912,-3.839324E-05
348.012,-3.836499E-05
348.112,-3.835086E-05
348.212,-3.831413E-05
348.312,-3.831413E-05
348.412,-3.831225E-05
348.5121,-3.828776E-05
348.6121,-3.828305E-05
348.7121,-3.826328E-05
348.8121,-3.822937E-05
348.9121,-3.822937E-05
349.0121,-3.823126E-05
349.1121,-3.821619E-05
349.2121,-3.81691E-05
349.3121,-3.82096E-05
349.4121,-3.81983E-05
349.5121,-3.814745E-05
349.6121,-3.815686E-05
349.7121,-3.812579E-05
349.8121,-3.807681E-05
349.9121,-3.81013E-05
350.0121,-3.806175E-05
350.1122,-3.804385E-05
350.2122,-3.804197E-05
350.3122,-3.80608E-05
350.4122,-3.799017E-05
350.5122,-3.798264E-05
350.6122,-3.801277E-05
350.7122,-3.802502E-05
350.8122,-3.79704E-05
350.9122,-3.796569E-05
351.0122,-3.795816E-05
351.1122,-3.791013E-05
351.2122,-3.789695E-05
351.3122,-3.788753E-05
351.4122,-3.786304E-05
351.5122,-3.78621E-05
351.6122,-3.783102E-05
351.7122,-3.781313E-05
351.8123,-3.780748E-05
351.9123,-3.776133E-05
352.0123,-3.775662E-05
352.1123,-3.775851E-05
352.2123,-3.775945E-05
352.3123,-3.771425E-05
352.4123,-3.771895E-05
352.5123,-3.771895E-05
352.6123,-3.769729E-05
352.7123,-3.765398E-05
352.8123,-3.768411E-05
352.9123,-3.765398E-05
353.0123,-3.763043E-05
353.1123,-3.762196E-05
353.2123,-3.761254E-05
353.3123,-3.756828E-05
353.4124,-3.761065E-05
353.5124,-3.757205E-05
353.6124,-3.75372E-05
353.7124,-3.753908E-05
353.8124,-3.755227E-05
353.9124,-3.74807E-05
354.0124,-3.749671E-05
354.1124,-3.751271E-05
354.2124,-3.74402E-05
354.3124,-3.744209E-05
354.4124,-3.747034E-05
354.5124,-3.743361E-05
354.6124,-3.739783E-05
354.7124,-3.741383E-05
354.8124,-3.738935E-05
354.9124,-3.736015E-05
355.0125,-3.735921E-05
355.1125,-3.734038E-05
355.2125,-3.733002E-05
355.3125,-3.732625E-05
355.4125,-3.730177E-05
355.5125,-3.729612E-05
355.6125,-3.729988E-05
355.7125,-3.728293E-05
355.8125,-3.724526E-05
355.9125,-3.72641E-05
356.0125,-3.728764E-05
356.1125,-3.724809E-05
356.2125,-3.725751E-05
356.3125,-3.727634E-05
356.4125,-3.722455E-05
356.5125,-3.71963E-05
356.6125,-3.721325E-05
356.7126,-3.715486E-05
356.8126,-3.711437E-05
356.9126,-3.711719E-05
357.0126,-3.711248E-05
357.1126,-3.710118E-05
357.2126,-3.707387E-05
357.3126,-3.706445E-05
357.4126,-3.703149E-05
357.5126,-3.700984E-05
357.6126,-3.701454E-05
357.7126,-3.699947E-05
357.8126,-3.699382E-05
357.9126,-3.700795E-05
358.0126,-3.696368E-05
358.1126,-3.69458E-05
358.2126,-3.69458E-05
358.3127,-3.695238E-05
358.4127,-3.689871E-05
358.5127,-3.687799E-05
358.6127,-3.690342E-05
358.7127,-3.685916E-05
358.8127,-3.682525E-05
358.9127,-3.68601E-05
359.0127,-3.684409E-05
359.1127,-3.678287E-05
359.2127,-3.678099E-05
359.3127,-3.679512E-05
359.4127,-3.678005E-05
359.5127,-3.675462E-05
359.6127,-3.674238E-05
359.7127,-3.672354E-05
359.8127,-3.672354E-05
359.9128,-3.672166E-05
360.0128,-3.673014E-05
360.1128,-3.668588E-05
360.2128,-3.665857E-05
360.3128,-3.66708E-05
360.4128,-3.66322E-05
360.5128,-3.663314E-05
360.6128,-3.66096E-05
360.7128,-3.65804E-05
360.8128,-3.659265E-05
360.9128,-3.658134E-05
361.0128,-3.653897E-05
361.1128,-3.65352E-05
361.2128,-3.650883E-05
361.3128,-3.649565E-05
361.4128,-3.651165E-05
361.5128,-3.646928E-05
361.6129,-3.644761E-05
361.7129,-3.645986E-05
361.8129,-3.646269E-05
361.9129,-3.641372E-05
362.0129,-3.639865E-05
362.1129,-3.640995E-05
362.2129,-3.637416E-05
362.3129,-3.636004E-05
362.4129,-3.637793E-05
362.5129,-3.635345E-05
362.6129,-3.631013E-05
362.7129,-3.636945E-05
362.8129,-3.633178E-05
362.9129,-3.629977E-05
363.0129,-3.630259E-05
363.1129,-3.629412E-05
363.213,-3.626398E-05
363.313,-3.625174E-05
363.413,-3.624703E-05
363.513,-3.622914E-05
363.613,-3.620559E-05
363.713,-3.619241E-05
363.813,-3.618393E-05
363.913,-3.616698E-05
364.013,-3.616227E-05
364.113,-3.616887E-05
364.213,-3.612743E-05
364.313,-3.611519E-05
364.413,-3.611519E-05
364.513,-3.608788E-05
364.613,-3.606999E-05
364.713,-3.60681E-05
364.813,-3.60568E-05
364.9131,-3.605963E-05
365.0131,-3.606434E-05
365.1131,-3.60455E-05
365.2131,-3.601065E-05
365.3131,-3.602478E-05
365.4131,-3.600124E-05
365.5131,-3.595039E-05
365.6131,-3.599935E-05
365.7131,-3.596074E-05
365.8131,-3.594191E-05
365.9131,-3.593626E-05
366.0131,-3.591743E-05
366.1131,-3.58807E-05
366.2131,-3.589011E-05
366.3131,-3.587693E-05
366.4131,-3.584868E-05
366.5132,-3.58402E-05
366.6132,-3.584397E-05
366.7132,-3.583173E-05
366.8132,-3.577616E-05
366.9132,-3.581101E-05
367.0132,-3.582796E-05
367.1132,-3.575921E-05
367.2132,-3.576015E-05
367.3132,-3.575921E-05
367.4132,-3.571589E-05
367.5132,-3.570271E-05
367.6132,-3.57385E-05
367.7132,-3.5698E-05
367.8132,-3.567069E-05
367.9132,-3.570742E-05
368.0132,-3.567163E-05
368.1133,-3.566033E-05
368.2133,-3.565186E-05
368.3133,-3.56462E-05
368.4133,-3.560665E-05
368.5133,-3.560477E-05
368.6133,-3.561607E-05
368.7133,-3.557087E-05
368.8133,-3.557181E-05
368.9133,-3.557369E-05
369.0133,-3.551907E-05
369.1133,-3.554544E-05
369.2133,-3.551813E-05
369.3133,-3.54814E-05
369.4133,-3.548423E-05
369.5133,-3.549365E-05
369.6133,-3.543714E-05
369.7133,-3.540983E-05
369.8134,-3.545315E-05
369.9134,-3.545127E-05
370.0134,-3.538723E-05
370.1134,-3.542867E-05
370.2134,-3.541925E-05
370.3134,-3.536557E-05
370.4134,-3.536934E-05
370.5134,-3.537593E-05
370.6134,-3.533261E-05
370.7134,-3.53166E-05
370.8134,-3.531848E-05
370.9134,-3.529023E-05
371.0134,-3.529965E-05
371.1134,-3.525539E-05
371.2134,-3.523749E-05
371.3134,-3.52422E-05
371.4135,-3.523843E-05
371.5135,-3.520265E-05
371.6135,-3.519417E-05
371.7135,-3.52309E-05
371.8135,-3.519323E-05
371.9135,-3.51452E-05
372.0135,-3.519417E-05
372.1135,-3.51744E-05
372.2135,-3.511884E-05
372.3135,-3.514238E-05
372.4135,-3.513484E-05
372.5135,-3.509529E-05
372.6135,-3.507834E-05
372.7135,-3.508964E-05
372.8135,-3.509058E-05
372.9135,-3.503879E-05
373.0135,-3.506045E-05
373.1136,-3.501713E-05
373.2136,-3.49917E-05
373.3136,-3.502843E-05
373.4136,-3.501713E-05
373.5136,-3.497852E-05
373.6136,-3.499641E-05
373.7136,-3.499641E-05
373.8136,-3.49465E-05
373.9136,-3.493802E-05
374.0136,-3.494744E-05
374.1136,-3.491448E-05
374.2136,-3.487116E-05
374.3136,-3.48834E-05
374.4136,-3.487964E-05
374.5136,-3.485609E-05
374.6136,-3.485515E-05
374.7137,-3.484951E-05
374.8137,-3.484951E-05
374.9137,-3.486362E-05
375.0137,-3.482125E-05
375.1137,-3.480806E-05
375.2137,-3.485515E-05
375.3137,-3.479394E-05
375.4137,-3.474591E-05
375.5137,-3.478735E-05
375.6137,-3.476475E-05
375.7137,-3.471483E-05
375.8137,-3.471954E-05
375.9137,-3.471672E-05
376.0137,-3.469694E-05
376.1137,-3.468846E-05
376.2137,-3.466303E-05
376.3138,-3.463667E-05
376.4138,-3.465268E-05
376.5138,-3.463478E-05
376.6138,-3.461219E-05
376.7138,-3.458958E-05
376.8138,-3.460371E-05
376.9138,-3.457357E-05
377.0138,-3.455756E-05
377.1138,-3.457357E-05
377.2138,-3.456321E-05
377.3138,-3.455191E-05
377.4138,-3.458958E-05
377.5138,-3.455568E-05
377.6138,-3.454626E-05
377.7138,-3.458582E-05
377.8138,-3.456321E-05
377.9138,-3.449824E-05
378.0139,-3.449729E-05
378.1139,-3.449447E-05
378.2139,-3.442666E-05
378.3139,-3.443231E-05
378.4139,-3.443702E-05
378.5139,-3.440971E-05
378.6139,-3.438617E-05
378.7139,-3.44276E-05
378.8139,-3.4405E-05
378.9139,-3.43598E-05
379.0139,-3.436922E-05
379.1139,-3.437393E-05
379.2139,-3.433249E-05
379.3139,-3.430236E-05
379.4139,-3.433437E-05
379.5139,-3.430895E-05
379.614,-3.430236E-05
379.714,-3.42854E-05
379.814,-3.427787E-05
379.914,-3.425904E-05
380.014,-3.42515E-05
380.114,-3.427787E-05
380.214,-3.425432E-05
380.314,-3.424867E-05
380.414,-3.424208E-05
380.514,-3.423549E-05
380.614,-3.421289E-05
380.714,-3.420065E-05
380.814,-3.420065E-05
380.914,-3.417993E-05
381.014,-3.41771E-05
381.114,-3.41771E-05
381.2141,-3.414697E-05
381.3141,-3.414132E-05
381.4141,-3.412531E-05
381.5141,-3.412531E-05
381.6141,-3.410365E-05
381.7141,-3.411212E-05
381.8141,-3.413473E-05
381.9141,-3.408576E-05
382.0141,-3.408199E-05
382.1141,-3.40867E-05
382.2141,-3.407257E-05
382.3141,-3.402831E-05
382.4141,-3.404714E-05
382.5141,-3.40462E-05
382.6141,-3.403585E-05
382.7141,-3.399629E-05
382.8141,-3.399253E-05
382.9142,-3.401795E-05
383.0142,-3.396804E-05
383.1142,-3.396239E-05
383.2142,-3.399158E-05
383.3142,-3.400288E-05
383.4142,-3.394638E-05
383.5142,-3.393602E-05
383.6142,-3.39379E-05
383.7142,-3.39219E-05
383.8142,-3.3904E-05
383.9142,-3.390588E-05
384.0142,-3.389835E-05
384.1142,-3.388517E-05
384.2142,-3.386821E-05
384.3142,-3.386162E-05
384.4142,-3.384655E-05
384.5143,-3.386539E-05
384.6143,-3.385127E-05
384.7143,-3.385503E-05
384.8143,-3.385032E-05
384.9143,-3.382207E-05
385.0143,-3.381454E-05
385.1143,-3.382396E-05
385.2143,-3.377593E-05
385.3143,-3.379099E-05
385.4143,-3.375521E-05
385.5143,-3.374956E-05
385.6143,-3.375615E-05
385.7143,-3.374014E-05
385.8143,-3.374673E-05
385.9143,-3.370341E-05
386.0143,-3.36761E-05
386.1143,-3.370812E-05
386.2144,-3.368364E-05
386.3144,-3.364409E-05
386.4144,-3.367045E-05
386.5144,-3.368175E-05
386.6144,-3.363561E-05
386.7144,-3.361583E-05
386.8144,-3.364691E-05
386.9144,-3.362902E-05
387.0144,-3.358381E-05
387.1144,-3.358381E-05
387.2144,-3.358475E-05
387.3144,-3.355933E-05
387.4144,-3.355274E-05
387.5144,-3.356121E-05
387.6144,-3.351977E-05
387.7144,-3.353861E-05
387.8145,-3.35339E-05
387.9145,-3.348964E-05
388.0145,-3.350847E-05
388.1145,-3.34887E-05
388.2145,-3.347457E-05
388.3145,-3.346892E-05
388.4145,-3.346139E-05
388.5145,-3.34435E-05
388.6145,-3.344915E-05
388.7145,-3.341619E-05
388.8145,-3.341619E-05
388.9145,-3.3403E-05
389.0145,-3.339264E-05
389.1145,-3.336721E-05
389.2145,-3.337004E-05
389.3145,-3.338228E-05
389.4146,-3.33465E-05
389.5146,-3.332484E-05
389.6146,-3.33691E-05
389.7146,-3.338134E-05
389.8146,-3.33352E-05
389.9146,-3.334838E-05
390.0146,-3.335403E-05
390.1146,-3.332013E-05
390.2146,-3.332955E-05
390.3146,-3.331448E-05
390.4146,-3.328811E-05
390.5146,-3.332201E-05
390.6146,-3.330129E-05
390.7146,-3.325703E-05
390.8146,-3.328058E-05
390.9146,-3.329376E-05
391.0146,-3.324479E-05
391.1147,-3.323349E-05
391.2147,-3.322031E-05
391.3147,-3.319206E-05
391.4147,-3.315815E-05
391.5147,-3.317981E-05
391.6147,-3.31977E-05
391.7147,-3.316945E-05
391.8147,-3.325797E-05
391.9147,-3.325515E-05
392.0147,-3.31864E-05
392.1147,-3.322784E-05
392.2147,-3.322501E-05
392.3147,-3.319676E-05
392.4147,-3.31751E-05
392.5147,-3.319582E-05
392.6147,-3.318735E-05
392.7148,-3.311483E-05
392.8148,-3.312896E-05
392.9148,-3.313272E-05
393.0148,-3.309788E-05
393.1148,-3.30847E-05
393.2148,-3.311012E-05
393.3148,-3.30668E-05
393.4148,-3.304797E-05
393.5148,-3.305174E-05
393.6148,-3.302348E-05
393.7148,-3.301595E-05
393.8148,-3.301124E-05
393.9148,-3.301877E-05
394.0148,-3.299241E-05
394.1148,-3.297169E-05
394.2148,-3.300088E-05
394.3148,-3.299052E-05
394.4149,-3.297357E-05
394.5149,-3.295379E-05
394.6149,-3.296039E-05
394.7149,-3.298958E-05
394.8149,-3.294061E-05
394.9149,-3.291989E-05
395.0149,-3.297545E-05
395.1149,-3.291801E-05
395.2149,-3.288411E-05
395.3149,-3.294814E-05
395.4149,-3.289823E-05
395.5149,-3.289258E-05
395.6149,-3.28954E-05
395.7149,-3.291613E-05
395.8149,-3.291613E-05
395.9149,-3.291707E-05
396.015,-3.297828E-05
396.115,-3.293967E-05
396.215,-3.291613E-05
396.315,-3.291613E-05
396.415,-3.287469E-05
396.515,-3.283796E-05
396.615,-3.282855E-05
396.715,-3.280406E-05
396.815,-3.279558E-05
396.915,-3.277863E-05
397.015,-3.276074E-05
397.115,-3.275038E-05
397.215,-3.275792E-05
397.315,-3.273814E-05
397.415,-3.270518E-05
397.515,-3.269953E-05
397.6151,-3.272024E-05
397.7151,-3.269105E-05
397.8151,-3.266374E-05
397.9151,-3.269764E-05
398.0151,-3.269764E-05
398.1151,-3.264303E-05
398.2151,-3.26741E-05
398.3151,-3.26402E-05
398.4151,-3.262231E-05
398.5151,-3.26289E-05
398.6151,-3.26336E-05
398.7151,-3.261194E-05
398.8151,-3.258464E-05
398.9151,-3.262513E-05
399.0151,-3.258652E-05
399.1151,-3.258746E-05
399.2151,-3.259688E-05
399.3152,-3.25545E-05
399.4152,-3.254791E-05
399.5152,-3.257145E-05
399.6152,-3.253378E-05
399.7152,-3.25027E-05
399.8152,-3.254885E-05
399.9152,-3.250741E-05
400.0152,-3.248105E-05
400.1152,-3.250648E-05
400.2152,-3.248858E-05
400.3152,-3.246598E-05
400.4152,-3.244714E-05
400.5152,-3.243773E-05
400.6152,-3.242831E-05
400.7152,-3.243208E-05
400.8152,-3.241983E-05
400.9153,-3.239253E-05
401.0153,-3.238781E-05
401.1153,-3.240194E-05
401.2153,-3.236333E-05
401.3153,-3.236333E-05
401.4153,-3.235862E-05
401.5153,-3.233131E-05
401.6153,-3.229835E-05
401.7153,-3.234921E-05
401.8153,-3.236144E-05
401.9153,-3.230683E-05
402.0153,-3.229647E-05
402.1153,-3.231342E-05
402.2153,-3.229741E-05
402.3153,-3.22475E-05
402.4153,-3.228422E-05
402.5154,-3.22588E-05
402.6154,-3.223525E-05
402.7154,-3.22588E-05
402.8154,-3.226256E-05
402.9154,-3.221736E-05
403.0154,-3.221924E-05
403.1154,-3.220417E-05
403.2154,-3.220606E-05
403.3154,-3.220889E-05
403.4154,-3.218346E-05
403.5154,-3.214108E-05
403.6154,-3.21731E-05
403.7154,-3.216368E-05
403.8154,-3.211377E-05
403.9154,-3.211471E-05
404.0154,-3.211942E-05
404.1154,-3.209493E-05
404.2155,-3.210059E-05
404.3155,-3.207893E-05
404.4155,-3.206197E-05
404.5155,-3.206386E-05
404.6155,-3.206951E-05
404.7155,-3.202242E-05
404.8155,-3.200359E-05
404.9155,-3.203843E-05
405.0155,-3.198852E-05
405.1155,-3.198287E-05
405.2155,-3.200736E-05
405.3155,-3.200547E-05
405.4155,-3.196874E-05
405.5155,-3.195839E-05
405.6155,-3.195462E-05
405.7155,-3.192542E-05
405.8156,-3.194708E-05
405.9156,-3.191507E-05
406.0156,-3.189906E-05
406.1156,-3.191036E-05
406.2156,-3.190941E-05
406.3156,-3.188022E-05
406.4156,-3.186609E-05
406.5156,-3.187457E-05
406.6156,-3.185385E-05
406.7156,-3.180488E-05
406.8156,-3.185479E-05
406.9156,-3.18595E-05
407.0156,-3.180017E-05
407.1156,-3.182183E-05
407.2156,-3.183408E-05
407.3156,-3.178982E-05
407.4156,-3.178887E-05
407.5157,-3.179075E-05
407.6157,-3.177852E-05
407.7157,-3.175874E-05
407.8157,-3.177287E-05
407.9157,-3.175026E-05
408.0157,-3.174084E-05
408.1157,-3.172578E-05
408.2157,-3.170223E-05
408.3157,-3.169564E-05
408.4157,-3.169376E-05
408.5157,-3.168905E-05
408.6157,-3.167304E-05
408.7157,-3.16608E-05
408.8157,-3.165232E-05
408.9157,-3.164008E-05
409.0157,-3.165609E-05
409.1158,-3.160712E-05
409.2158,-3.161654E-05
409.3158,-3.163914E-05
409.4158,-3.162501E-05
409.5158,-3.158075E-05
409.6158,-3.158169E-05
409.7158,-3.162125E-05
409.8158,-3.156945E-05
409.9158,-3.152895E-05
410.0158,-3.155909E-05
410.1158,-3.153084E-05
410.2158,-3.151765E-05
410.3158,-3.153178E-05
410.4158,-3.151012E-05
410.5158,-3.148281E-05
410.6158,-3.150164E-05
410.7159,-3.148469E-05
410.8159,-3.145833E-05
410.9159,-3.145833E-05
411.0159,-3.14555E-05
411.1159,-3.143478E-05
411.2159,-3.142066E-05
411.3159,-3.141877E-05
411.4159,-3.140088E-05
411.5159,-3.139994E-05
411.6159,-3.139994E-05
411.7159,-3.135756E-05
411.8159,-3.13877E-05
411.9159,-3.137451E-05
412.0159,-3.136509E-05
412.1159,-3.135285E-05
412.2159,-3.13698E-05
412.3159,-3.137639E-05
412.416,-3.134532E-05
412.516,-3.137922E-05
412.616,-3.134437E-05
412.716,-3.128975E-05
412.816,-3.13246E-05
412.916,-3.131801E-05
413.016,-3.128128E-05
413.116,-3.124926E-05
413.216,-3.127751E-05
413.316,-3.126056E-05
413.416,-3.121819E-05
413.516,-3.124738E-05
413.616,-3.123608E-05
413.716,-3.119182E-05
413.816,-3.119935E-05
413.916,-3.120688E-05
414.0161,-3.118805E-05
414.1161,-3.116922E-05
414.2161,-3.114755E-05
414.3161,-3.114755E-05
414.4161,-3.115038E-05
414.5161,-3.114379E-05
414.6161,-3.109764E-05
414.7161,-3.112118E-05
414.8161,-3.110988E-05
414.9161,-3.107316E-05
415.0161,-3.105432E-05
415.1161,-3.106751E-05
415.2161,-3.105903E-05
415.3161,-3.103266E-05
415.4161,-3.109011E-05
415.5161,-3.108257E-05
415.6161,-3.104867E-05
415.7162,-3.108917E-05
415.8162,-3.108163E-05
415.9162,-3.103455E-05
416.0162,-3.103925E-05
416.1162,-3.10289E-05
416.2162,-3.099311E-05
416.3162,-3.099688E-05
416.4162,-3.101477E-05
416.5162,-3.098369E-05
416.6162,-3.094979E-05
416.7162,-3.097804E-05
416.8162,-3.095732E-05
416.9162,-3.093943E-05
417.0162,-3.093096E-05
417.1162,-3.095827E-05
417.2162,-3.090741E-05
417.3163,-3.094414E-05
417.4163,-3.094132E-05
417.5163,-3.094037E-05
417.6163,-3.092625E-05
417.7163,-3.09206E-05
417.8163,-3.09319E-05
417.9163,-3.08914E-05
418.0163,-3.08801E-05
418.1163,-3.089423E-05
418.2163,-3.085468E-05
418.3163,-3.084055E-05
418.4163,-3.086786E-05
418.5163,-3.082831E-05
418.6163,-3.082737E-05
418.7163,-3.081889E-05
418.8163,-3.080759E-05
418.9164,-3.082454E-05
419.0164,-3.080947E-05
419.1164,-3.077934E-05
419.2164,-3.076992E-05
419.3164,-3.075956E-05
419.4164,-3.075579E-05
419.5164,-3.074261E-05
419.6164,-3.073602E-05
419.7164,-3.074167E-05
419.8164,-3.071813E-05
419.9164,-3.071718E-05
420.0164,-3.069176E-05
420.1164,-3.070588E-05
420.2164,-3.068893E-05
420.3164,-3.06748E-05
420.4164,-3.065597E-05
420.5164,-3.06748E-05
420.6165,-3.064749E-05
420.7165,-3.062772E-05
420.8165,-3.064373E-05
420.9165,-3.064844E-05
421.0165,-3.060418E-05
421.1165,-3.060229E-05
421.2165,-3.062113E-05
421.3165,-3.058911E-05
421.4165,-3.05844E-05
421.5165,-3.062678E-05
421.6165,-3.061548E-05
421.7165,-3.057404E-05
421.8165,-3.059099E-05
421.9165,-3.058722E-05
422.0165,-3.055521E-05
422.1165,-3.05439E-05
422.2166,-3.056368E-05
422.3166,-3.054485E-05
422.4166,-3.053072E-05
422.5166,-3.051565E-05
422.6166,-3.050059E-05
422.7166,-3.047516E-05
422.8166,-3.051094E-05
422.9166,-3.047987E-05
423.0166,-3.044691E-05
423.1166,-3.046291E-05
423.2166,-3.045256E-05
423.3166,-3.042242E-05
423.4166,-3.042996E-05
423.5166,-3.04243E-05
423.6166,-3.040359E-05
423.7166,-3.041112E-05
423.8167,-3.039228E-05
423.9167,-3.038287E-05
424.0167,-3.037063E-05
424.1167,-3.037439E-05
424.2167,-3.036309E-05
424.3167,-3.035273E-05
424.4167,-3.035179E-05
424.5167,-3.033201E-05
424.6167,-3.033484E-05
424.7167,-3.033672E-05
424.8167,-3.032825E-05
424.9167,-3.028493E-05
425.0167,-3.032731E-05
425.1167,-3.03226E-05
425.2167,-3.028587E-05
425.3167,-3.030188E-05
425.4167,-3.030282E-05
425.5168,-3.027834E-05
425.6168,-3.035085E-05
425.7168,-3.031977E-05
425.8168,-3.03113E-05
425.9168,-3.031789E-05
426.0168,-3.036968E-05
426.1168,-3.031883E-05
426.2168,-3.025103E-05
426.3168,-3.026327E-05
426.4168,-3.027739E-05
426.5168,-3.023408E-05
426.6168,-3.022842E-05
426.7168,-3.024255E-05
426.8168,-3.021995E-05
426.9168,-3.017757E-05
427.0168,-3.019452E-05
427.1169,-3.018793E-05
427.2169,-3.015309E-05
427.3169,-3.017192E-05
427.4169,-3.016439E-05
427.5169,-3.012389E-05
427.6169,-3.016344E-05
427.7169,-3.015968E-05
427.8169,-3.012201E-05
427.9169,-3.013142E-05
428.0169,-3.014932E-05
428.1169,-3.011259E-05
428.2169,-3.010977E-05
428.3169,-3.012201E-05
428.4169,-3.008528E-05
428.5169,-3.010035E-05
428.6169,-3.00834E-05
428.7169,-3.007963E-05
428.817,-3.008622E-05
428.917,-3.006362E-05
429.017,-3.003254E-05
429.117,-3.004102E-05
429.217,-3.004667E-05
429.317,-3.003913E-05
429.417,-2.999582E-05
429.517,-3.002972E-05
429.617,-3.001748E-05
429.717,-2.999017E-05
429.817,-2.998734E-05
429.917,-2.998828E-05
430.017,-2.997322E-05
430.117,-2.997698E-05
430.217,-2.996662E-05
430.317,-2.993555E-05
430.4171,-2.997133E-05
430.5171,-2.995438E-05
430.6171,-2.991294E-05
430.7171,-2.991954E-05
430.8171,-2.992613E-05
430.9171,-2.99233E-05
431.0171,-2.989034E-05
431.1171,-2.989694E-05
431.2171,-2.988375E-05
431.3171,-2.987057E-05
431.4171,-2.989694E-05
431.5171,-2.988469E-05
431.6171,-2.986962E-05
431.7171,-2.995815E-05
431.8171,-2.993743E-05
431.9171,-2.987998E-05
432.0172,-2.992895E-05
432.1172,-2.989128E-05
432.2172,-2.984231E-05
432.3172,-2.986021E-05
432.4172,-2.982725E-05
432.5172,-2.98216E-05
432.6172,-2.981124E-05
432.7172,-2.980841E-05
432.8172,-2.979052E-05
432.9172,-2.978299E-05
433.0172,-2.977639E-05
433.1172,-2.975097E-05
433.2172,-2.974626E-05
433.3172,-2.975662E-05
433.4172,-2.973402E-05
433.5172,-2.971706E-05
433.6172,-2.971612E-05
433.7173,-2.971895E-05
433.8173,-2.969352E-05
433.9173,-2.972083E-05
434.0173,-2.973496E-05
434.1173,-2.971706E-05
434.2173,-2.971989E-05
434.3173,-2.974155E-05
434.4173,-2.97133E-05
434.5173,-2.967374E-05
434.6173,-2.971989E-05
434.7173,-2.970012E-05
434.8173,-2.966339E-05
434.9173,-2.966527E-05
435.0173,-2.967186E-05
435.1173,-2.964832E-05
435.2173,-2.964926E-05
435.3174,-2.961818E-05
435.4174,-2.962948E-05
435.5174,-2.959935E-05
435.6174,-2.958805E-05
435.7174,-2.960971E-05
435.8174,-2.958993E-05
435.9174,-2.957204E-05
436.0174,-2.957769E-05
436.1174,-2.957298E-05
436.2174,-2.955509E-05
436.3174,-2.956827E-05
436.4174,-2.958428E-05
436.5174,-2.95419E-05
436.6174,-2.954473E-05
436.7174,-2.956921E-05
436.8174,-2.956356E-05
436.9174,-2.954849E-05
437.0175,-2.955038E-05
437.1175,-2.953625E-05
437.2175,-2.952307E-05
437.3175,-2.951365E-05
437.4175,-2.950329E-05
437.5175,-2.951459E-05
437.6175,-2.948728E-05
437.7175,-2.947786E-05
437.8175,-2.950423E-05
437.9175,-2.949858E-05
438.0175,-2.944867E-05
438.1175,-2.949199E-05
438.2175,-2.94449E-05
438.3175,-2.941854E-05
438.4175,-2.944208E-05
438.5175,-2.944679E-05
438.6176,-2.94223E-05
438.7176,-2.939123E-05
438.8176,-2.941854E-05
438.9176,-2.938934E-05
439.0176,-2.936957E-05
439.1176,-2.938087E-05
439.2176,-2.938652E-05
439.3176,-2.936862E-05
439.4176,-2.936768E-05
439.5176,-2.939782E-05
439.6176,-2.933849E-05
439.7176,-2.936862E-05
439.8176,-2.935638E-05
439.9176,-2.933284E-05
440.0176,-2.933472E-05
440.1176,-2.933943E-05
440.2177,-2.929611E-05
440.3177,-2.930459E-05
440.4177,-2.929799E-05
440.5177,-2.927445E-05
440.6177,-2.928387E-05
440.7177,-2.927445E-05
440.8177,-2.923396E-05
440.9177,-2.923866E-05
441.0177,-2.925938E-05
441.1177,-2.92349E-05
441.2177,-2.920476E-05
441.3177,-2.922266E-05
441.4177,-2.922548E-05
441.5177,-2.918687E-05
441.6177,-2.919723E-05
441.7177,-2.919723E-05
441.8177,-2.918593E-05
441.9178,-2.917369E-05
442.0178,-2.916144E-05
442.1178,-2.914543E-05
442.2178,-2.917651E-05
442.3178,-2.916992E-05
442.4178,-2.91266E-05
442.5178,-2.912377E-05
442.6178,-2.913884E-05
442.7178,-2.912943E-05
442.8178,-2.911624E-05
442.9178,-2.913978E-05
443.0178,-2.909835E-05
443.1178,-2.907198E-05
443.2178,-2.909458E-05
443.3178,-2.909647E-05
443.4178,-2.908987E-05
443.5179,-2.907669E-05
443.6179,-2.906444E-05
443.7179,-2.907669E-05
443.8179,-2.909647E-05
443.9179,-2.90748E-05
444.0179,-2.906162E-05
444.1179,-2.908045E-05
444.2179,-2.903619E-05
444.3179,-2.902112E-05
444.4179,-2.902301E-05
444.5179,-2.901924E-05
444.6179,-2.89957E-05
444.7179,-2.900982E-05
444.8179,-2.903525E-05
444.9179,-2.9007E-05
445.0179,-2.897592E-05
445.118,-2.901453E-05
445.218,-2.898534E-05
445.318,-2.894014E-05
445.418,-2.896274E-05
445.518,-2.896086E-05
445.618,-2.893825E-05
445.718,-2.890906E-05
445.818,-2.894955E-05
445.918,-2.892978E-05
446.018,-2.889022E-05
446.118,-2.893072E-05
446.218,-2.891094E-05
446.318,-2.887798E-05
446.418,-2.892318E-05
446.518,-2.892413E-05
446.618,-2.887798E-05
446.718,-2.888081E-05
446.8181,-2.888834E-05
446.9181,-2.88695E-05
447.0181,-2.884973E-05
447.1181,-2.886762E-05
447.2181,-2.884125E-05
447.3181,-2.88243E-05
447.4181,-2.882336E-05
447.5181,-2.881677E-05
447.6181,-2.8813E-05
447.7181,-2.880453E-05
447.8181,-2.878193E-05
447.9181,-2.879228E-05
448.0181,-2.879793E-05
448.1181,-2.877627E-05
448.2181,-2.876968E-05
448.3181,-2.879888E-05
448.4182,-2.878664E-05
448.5182,-2.876874E-05
448.6182,-2.878098E-05
448.7182,-2.877439E-05
448.8182,-2.877062E-05
448.9182,-2.87791E-05
449.0182,-2.874708E-05
449.1182,-2.874991E-05
449.2182,-2.873295E-05
449.3182,-2.873484E-05
449.4182,-2.869246E-05
449.5182,-2.871412E-05
449.6182,-2.870941E-05
449.7182,-2.867928E-05
449.8182,-2.865667E-05
449.9182,-2.869717E-05
450.0182,-2.869246E-05
450.1183,-2.865762E-05
450.2183,-2.869152E-05
450.3183,-2.869717E-05
450.4183,-2.865762E-05
450.5183,-2.867551E-05
450.6183,-2.867174E-05
450.7183,-2.866327E-05
450.8183,-2.862277E-05
450.9183,-2.864066E-05
451.0183,-2.865667E-05
451.1183,-2.863125E-05
451.2183,-2.86077E-05
451.3183,-2.862466E-05
451.4183,-2.861995E-05
451.5183,-2.860017E-05
451.6183,-2.85738E-05
451.7184,-2.856533E-05
451.8184,-2.858699E-05
451.9184,-2.856533E-05
452.0184,-2.853802E-05
452.1184,-2.855968E-05
452.2184,-2.856156E-05
452.3184,-2.853237E-05
452.4184,-2.853142E-05
452.5184,-2.854838E-05
452.6184,-2.852389E-05
452.7184,-2.849564E-05
452.8184,-2.854555E-05
452.9184,-2.855308E-05
453.0184,-2.849752E-05
453.1184,-2.853519E-05
453.2184,-2.854084E-05
453.3185,-2.850411E-05
453.4185,-2.852578E-05
453.5185,-2.850129E-05
453.6185,-2.84881E-05
453.7185,-2.850506E-05
453.8185,-2.850694E-05
453.9185,-2.848622E-05
454.0185,-2.847116E-05
454.1185,-2.846079E-05
454.2185,-2.84768E-05
454.3185,-2.845703E-05
454.4185,-2.843914E-05
454.5185,-2.843819E-05
454.6185,-2.846362E-05
454.7185,-2.846739E-05
454.8185,-2.844949E-05
454.9185,-2.842972E-05
455.0186,-2.845891E-05
455.1186,-2.8409E-05
455.2186,-2.841559E-05
455.3186,-2.843254E-05
455.4186,-2.841371E-05
455.5186,-2.837886E-05
455.6186,-2.838263E-05
455.7186,-2.838922E-05
455.8186,-2.837039E-05
455.9186,-2.835155E-05
456.0186,-2.835061E-05
456.1186,-2.833931E-05
456.2186,-2.832613E-05
456.3186,-2.835155E-05
456.4186,-2.834402E-05
456.5186,-2.832707E-05
456.6187,-2.832707E-05
456.7187,-2.832048E-05
456.8187,-2.831106E-05
456.9187,-2.830918E-05
457.0187,-2.831106E-05
457.1187,-2.831012E-05
457.2187,-2.826962E-05
457.3187,-2.826774E-05
457.4187,-2.827245E-05
457.5187,-2.826868E-05
457.6187,-2.824325E-05
457.7187,-2.824985E-05
457.8187,-2.822065E-05
457.9187,-2.82442E-05
458.0187,-2.824137E-05
458.1187,-2.821594E-05
458.2188,-2.820653E-05
458.3188,-2.822348E-05
458.4188,-2.821312E-05
458.5188,-2.819523E-05
458.6188,-2.820276E-05
458.7188,-2.820182E-05
458.8188,-2.820276E-05
458.9188,-2.818016E-05
459.0188,-2.818016E-05
459.1188,-2.816415E-05
459.2188,-2.816038E-05
459.3188,-2.81585E-05
459.4188,-2.816792E-05
459.5188,-2.82037E-05
459.6188,-2.816792E-05
459.7188,-2.813684E-05
459.8188,-2.819052E-05
459.9189,-2.813872E-05
460.0189,-2.811895E-05
460.1189,-2.812554E-05
460.2189,-2.813684E-05
460.3189,-2.810011E-05
460.4189,-2.808787E-05
460.5189,-2.811047E-05
460.6189,-2.809164E-05
460.7189,-2.806338E-05
460.8189,-2.808881E-05
460.9189,-2.809258E-05
461.0189,-2.809164E-05
461.1189,-2.810765E-05
461.2189,-2.80907E-05
461.3189,-2.808504E-05
461.4189,-2.807374E-05
461.519,-2.80841E-05
461.619,-2.805491E-05
461.719,-2.804832E-05
461.819,-2.803701E-05
461.919,-2.803607E-05
462.019,-2.803796E-05
462.119,-2.801347E-05
462.219,-2.800311E-05
462.319,-2.801159E-05
462.419,-2.801536E-05
462.519,-2.798522E-05
462.619,-2.795791E-05
462.719,-2.798993E-05
462.819,-2.797769E-05
462.919,-2.79419E-05
463.019,-2.795226E-05
463.119,-2.797863E-05
463.2191,-2.79306E-05
463.3191,-2.792777E-05
463.4191,-2.793908E-05
463.5191,-2.792213E-05
463.6191,-2.78967E-05
463.7191,-2.791365E-05
463.8191,-2.791082E-05
463.9191,-2.788634E-05
464.0191,-2.790235E-05
464.1191,-2.790046E-05
464.2191,-2.787315E-05
464.3191,-2.788351E-05
464.4191,-2.789199E-05
464.5191,-2.784867E-05
464.6191,-2.784679E-05
464.7191,-2.787033E-05
464.8192,-2.782607E-05
464.9192,-2.782701E-05
465.0192,-2.784679E-05
465.1192,-2.783266E-05
465.2192,-2.780441E-05
465.3192,-2.783078E-05
465.4192,-2.783549E-05
465.5192,-2.778746E-05
465.6192,-2.779782E-05
465.7192,-2.783549E-05
465.8192,-2.777427E-05
465.9192,-2.778557E-05
466.0192,-2.777145E-05
466.1192,-2.776862E-05
466.2192,-2.777051E-05
466.3192,-2.773001E-05
466.4193,-2.77253E-05
466.5193,-2.77545E-05
466.6193,-2.775356E-05
466.7193,-2.772624E-05
466.8193,-2.774885E-05
466.9193,-2.776297E-05
467.0193,-2.77479E-05
467.1193,-2.774508E-05
467.2193,-2.778086E-05
467.3193,-2.777616E-05
467.4193,-2.771871E-05
467.5193,-2.77592E-05
467.6193,-2.772719E-05
467.7193,-2.769893E-05
467.8193,-2.769422E-05
467.9193,-2.768387E-05
468.0193,-2.767068E-05
468.1194,-2.768575E-05
468.2194,-2.765561E-05
468.3194,-2.764055E-05
468.4194,-2.765561E-05
468.5194,-2.765844E-05
468.6194,-2.761983E-05
468.7194,-2.763584E-05
468.8194,-2.765373E-05
468.9194,-2.759911E-05
469.0194,-2.760005E-05
469.1194,-2.762171E-05
469.2194,-2.758028E-05
469.3194,-2.757368E-05
469.4194,-2.761983E-05
469.5194,-2.760476E-05
469.6194,-2.757086E-05
469.7195,-2.761889E-05
469.8195,-2.761512E-05
469.9195,-2.758593E-05
470.0195,-2.759346E-05
470.1195,-2.760853E-05
470.2195,-2.760005E-05
470.3195,-2.757274E-05
470.4195,-2.758404E-05
470.5195,-2.755297E-05
470.6195,-2.754732E-05
470.7195,-2.757086E-05
470.8195,-2.754166E-05
470.9195,-2.750494E-05
471.0195,-2.752942E-05
471.1195,-2.75266E-05
471.2195,-2.749081E-05
471.3195,-2.749175E-05
471.4196,-2.750965E-05
471.5196,-2.74748E-05
471.6196,-2.748328E-05
471.7196,-2.747198E-05
471.8196,-2.745314E-05
471.9196,-2.744561E-05
472.0196,-2.748139E-05
472.1196,-2.745597E-05
472.2196,-2.740888E-05
472.3196,-2.743525E-05
472.4196,-2.74522E-05
472.5196,-2.741265E-05
472.6196,-2.73957E-05
472.7196,-2.743337E-05
472.8196,-2.741359E-05
472.9196,-2.740041E-05
473.0197,-2.739852E-05
473.1197,-2.737592E-05
473.2197,-2.737309E-05
473.3197,-2.737121E-05
473.4197,-2.735049E-05
473.5197,-2.737027E-05
473.6197,-2.734296E-05
473.7197,-2.731188E-05
473.8197,-2.735803E-05
473.9197,-2.735803E-05
474.0197,-2.731848E-05
474.1197,-2.731094E-05
474.2197,-2.732978E-05
474.3197,-2.733543E-05
474.4197,-2.730623E-05
474.5197,-2.734296E-05
474.6198,-2.735709E-05
474.7198,-2.731848E-05
474.8198,-2.731094E-05
474.9198,-2.733919E-05
475.0198,-2.728363E-05
475.1198,-2.728646E-05
475.2198,-2.730341E-05
475.3198,-2.726668E-05
475.4198,-2.726762E-05
475.5198,-2.725538E-05
475.6198,-2.725726E-05
475.7198,-2.725161E-05
475.8198,-2.721771E-05
475.9198,-2.722995E-05
476.0198,-2.725067E-05
476.1198,-2.726197E-05
476.2198,-2.722901E-05
476.3199,-2.720923E-05
476.4199,-2.726291E-05
476.5199,-2.72243E-05
476.6199,-2.718569E-05
476.7199,-2.720076E-05
476.8199,-2.722053E-05
476.9199,-2.717157E-05
477.0199,-2.723655E-05
477.1199,-2.722148E-05
477.2199,-2.717816E-05
477.3199,-2.719982E-05
477.4199,-2.719228E-05
477.5199,-2.715273E-05
477.6199,-2.717157E-05
477.7199,-2.716497E-05
477.8199,-2.711883E-05
477.92,-2.715273E-05
478.02,-2.716497E-05
478.12,-2.709905E-05
478.22,-2.712824E-05
478.32,-2.715085E-05
478.42,-2.714614E-05
478.52,-2.709623E-05
478.62,-2.713201E-05
478.72,-2.712919E-05
478.82,-2.709434E-05
478.92,-2.708116E-05
479.02,-2.709717E-05
479.12,-2.709057E-05
479.22,-2.709434E-05
479.32,-2.708775E-05
479.42,-2.707645E-05
479.5201,-2.706044E-05
479.6201,-2.70708E-05
479.7201,-2.705667E-05
479.8201,-2.703501E-05
479.9201,-2.706515E-05
480.0201,-2.704443E-05
480.1201,-2.7019E-05
480.2201,-2.705102E-05
480.3201,-2.700959E-05
480.4201,-2.698228E-05
480.5201,-2.702277E-05
480.6201,-2.701241E-05
480.7201,-2.697474E-05
480.8201,-2.703219E-05
480.9201,-2.702466E-05
481.0201,-2.698887E-05
481.1201,-2.703407E-05
481.2202,-2.702089E-05
481.3202,-2.699358E-05
481.4202,-2.698793E-05
481.5202,-2.701335E-05
481.6202,-2.69738E-05
481.7202,-2.695026E-05
481.8202,-2.697945E-05
481.9202,-2.697286E-05
482.0202,-2.697286E-05
482.1202,-2.697192E-05
482.2202,-2.698039E-05
482.3202,-2.693142E-05
482.4202,-2.696438E-05
482.5202,-2.695026E-05
482.6202,-2.69625E-05
482.7202,-2.701335E-05
482.8203,-2.700394E-05
482.9203,-2.698322E-05
483.0203,-2.708116E-05
483.1203,-2.70256E-05
483.2203,-2.69851E-05
483.3203,-2.699075E-05
483.4203,-2.696062E-05
483.5203,-2.692012E-05
483.6203,-2.69107E-05
483.7203,-2.693331E-05
483.8203,-2.68994E-05
483.9203,-2.686173E-05
484.0203,-2.690788E-05
484.1203,-2.689564E-05
484.2203,-2.687492E-05
484.3203,-2.68881E-05
484.4203,-2.688528E-05
484.5204,-2.687209E-05
484.6204,-2.685703E-05
484.7204,-2.686268E-05
484.8204,-2.685326E-05
484.9204,-2.683537E-05
485.0204,-2.682877E-05
485.1204,-2.686362E-05
485.2204,-2.682124E-05
485.3204,-2.680617E-05
485.4204,-2.684007E-05
485.5204,-2.682595E-05
485.6204,-2.681936E-05
485.7204,-2.680994E-05
485.8204,-2.67977E-05
485.9204,-2.681841E-05
486.0204,-2.679958E-05
486.1205,-2.679205E-05
486.2205,-2.682406E-05
486.3205,-2.680335E-05
486.4205,-2.678357E-05
486.5205,-2.679958E-05
486.6205,-2.681371E-05
486.7205,-2.678546E-05
486.8205,-2.677792E-05
486.9205,-2.681371E-05
487.0205,-2.679581E-05
487.1205,-2.675155E-05
487.2205,-2.679958E-05
487.3205,-2.678451E-05
487.4205,-2.67346E-05
487.5205,-2.675909E-05
487.6205,-2.678169E-05
487.7206,-2.67346E-05
487.8206,-2.67346E-05
487.9206,-2.674496E-05
488.0206,-2.671671E-05
488.1206,-2.671765E-05
488.2206,-2.673178E-05
488.3206,-2.669222E-05
488.4206,-2.668375E-05
488.5206,-2.669881E-05
488.6206,-2.669505E-05
488.7206,-2.666962E-05
488.8206,-2.669222E-05
488.9206,-2.672236E-05
489.0206,-2.66668E-05
489.1206,-2.669881E-05
489.2206,-2.668846E-05
489.3206,-2.667998E-05
489.4207,-2.671859E-05
489.5207,-2.669787E-05
489.6207,-2.669787E-05
489.7207,-2.672707E-05
489.8207,-2.672236E-05
489.9207,-2.669881E-05
490.0207,-2.669505E-05
490.1207,-2.668092E-05
490.2207,-2.668657E-05
490.3207,-2.667715E-05
490.4207,-2.667339E-05
490.5207,-2.66668E-05
490.6207,-2.666868E-05
490.7207,-2.670823E-05
490.8207,-2.667151E-05
490.9207,-2.666586E-05
491.0208,-2.665455E-05
491.1208,-2.665738E-05
491.2208,-2.662442E-05
491.3208,-2.662536E-05
491.4208,-2.664325E-05
491.5208,-2.663666E-05
491.6208,-2.659052E-05
491.7208,-2.663666E-05
491.8208,-2.660464E-05
491.9208,-2.658863E-05
492.0208,-2.661594E-05
492.1208,-2.660182E-05
492.2208,-2.657827E-05
492.3208,-2.656603E-05
492.4208,-2.659428E-05
492.5208,-2.656226E-05
492.6208,-2.65519E-05
492.7209,-2.657545E-05
492.8209,-2.655473E-05
492.9209,-2.654343E-05
493.0209,-2.655661E-05
493.1209,-2.652365E-05
493.2209,-2.652459E-05
493.3209,-2.654531E-05
493.4209,-2.652742E-05
493.5209,-2.651518E-05
493.6209,-2.653872E-05
493.7209,-2.652836E-05
493.8209,-2.650764E-05
493.9209,-2.65519E-05
494.0209,-2.65519E-05
494.1209,-2.653966E-05
494.2209,-2.654626E-05
494.321,-2.657922E-05
494.421,-2.655285E-05
494.521,-2.657733E-05
494.621,-2.659428E-05
494.721,-2.656509E-05
494.821,-2.65519E-05
494.921,-2.658863E-05
495.021,-2.655002E-05
495.121,-2.656132E-05
495.221,-2.65585E-05
495.321,-2.657262E-05
495.421,-2.655285E-05
495.521,-2.652836E-05
495.621,-2.656226E-05
495.721,-2.650388E-05
495.821,-2.649352E-05
495.9211,-2.650859E-05
496.0211,-2.646244E-05
496.1211,-2.646432E-05
496.2211,-2.649258E-05
496.3211,-2.649446E-05
496.4211,-2.646338E-05
496.5211,-2.649163E-05
496.6211,-2.647751E-05
496.7211,-2.646432E-05
496.8211,-2.647374E-05
496.9211,-2.651329E-05
497.0211,-2.649258E-05
497.1211,-2.650388E-05
497.2211,-2.650294E-05
497.3211,-2.64954E-05
497.4211,-2.649258E-05
497.5211,-2.64954E-05
497.6212,-2.645867E-05
497.7212,-2.643795E-05
497.8212,-2.647751E-05
497.9212,-2.643042E-05
498.0212,-2.646244E-05
498.1212,-2.645867E-05
498.2212,-2.647186E-05
498.3212,-2.644361E-05
498.4212,-2.643419E-05
498.5212,-2.64615E-05
498.6212,-2.641159E-05
498.7212,-2.640688E-05
498.8212,-2.643325E-05
498.9212,-2.639935E-05
499.0212,-2.637204E-05
499.1212,-2.641253E-05
499.2213,-2.644078E-05
499.3213,-2.639935E-05
499.4213,-2.639087E-05
499.5213,-2.640688E-05
499.6213,-2.640123E-05
499.7213,-2.642006E-05
499.8213,-2.639558E-05
499.9213,-2.638145E-05
500.0213,-2.640782E-05
500.1213,-2.640782E-05
500.2213,-2.637769E-05
500.3213,-2.63758E-05
500.4213,-2.638899E-05
500.5213,-2.638428E-05
500.6213,-2.635038E-05
500.7213,-2.637863E-05
500.8214,-2.639463E-05
500.9214,-2.634472E-05
501.0214,-2.638522E-05
501.1214,-2.639652E-05
501.2214,-2.638899E-05
501.3214,-2.639463E-05
501.4214,-2.642289E-05
501.5214,-2.642289E-05
501.6214,-2.637204E-05
501.7214,-2.639463E-05
501.8214,-2.63984E-05
501.9214,-2.635226E-05
502.0214,-2.636356E-05
502.1214,-2.640311E-05
502.2214,-2.638428E-05
502.3214,-2.638239E-05
502.4214,-2.638616E-05
502.5215,-2.637015E-05
502.6215,-2.634755E-05
502.7215,-2.63419E-05
502.8215,-2.634284E-05
502.9215,-2.631647E-05
503.0215,-2.632212E-05
503.1215,-2.633342E-05
503.2215,-2.633907E-05
503.3215,-2.629858E-05
503.4215,-2.63127E-05
503.5215,-2.630423E-05
503.6215,-2.630611E-05
503.7215,-2.631365E-05
503.8215,-2.631742E-05
503.9215,-2.630423E-05
504.0215,-2.628916E-05
504.1216,-2.62741E-05
504.2216,-2.628634E-05
504.3216,-2.629199E-05
504.4216,-2.62675E-05
504.5216,-2.62741E-05
504.6216,-2.62741E-05
504.7216,-2.626656E-05
504.8216,-2.627221E-05
504.9216,-2.626844E-05
505.0216,-2.624302E-05
505.1216,-2.624302E-05
505.2216,-2.624019E-05
505.3216,-2.623737E-05
505.4216,-2.622701E-05
505.5216,-2.622983E-05
505.6216,-2.625714E-05
505.7216,-2.62562E-05
505.8217,-2.622041E-05
505.9217,-2.623737E-05
506.0217,-2.623642E-05
506.1217,-2.622324E-05
506.2217,-2.622418E-05
506.3217,-2.621194E-05
506.4217,-2.621947E-05
506.5217,-2.62223E-05
506.6217,-2.619311E-05
506.7217,-2.620911E-05
506.8217,-2.621382E-05
506.9217,-2.618086E-05
507.0217,-2.617804E-05
507.1217,-2.619122E-05
507.2217,-2.619122E-05
507.3217,-2.615355E-05
507.4218,-2.615073E-05
507.5218,-2.61705E-05
507.6218,-2.615355E-05
507.7218,-2.6114E-05
507.8218,-2.615544E-05
507.9218,-2.618369E-05
508.0218,-2.616297E-05
508.1218,-2.614037E-05
508.2218,-2.616203E-05
508.3218,-2.613284E-05
508.4218,-2.613189E-05
508.5218,-2.614979E-05
508.6218,-2.61479E-05
508.7218,-2.613848E-05
508.8218,-2.61479E-05
508.9218,-2.614225E-05
509.0219,-2.61366E-05
509.1219,-2.614319E-05
509.2219,-2.613095E-05
509.3219,-2.612059E-05
509.4219,-2.60914E-05
509.5219,-2.607539E-05
509.6219,-2.608481E-05
509.7219,-2.608575E-05
509.8219,-2.606503E-05
509.9219,-2.605561E-05
510.0219,-2.60575E-05
510.1219,-2.605279E-05
510.2219,-2.60283E-05
510.3219,-2.603395E-05
510.4219,-2.605373E-05
510.5219,-2.601512E-05
510.6219,-2.599817E-05
510.722,-2.606597E-05
510.822,-2.607445E-05
510.922,-2.603207E-05
511.022,-2.59944E-05
511.122,-2.602642E-05
511.222,-2.601888E-05
511.322,-2.599722E-05
511.422,-2.602925E-05
511.522,-2.602925E-05
511.622,-2.59718E-05
511.722,-2.599628E-05
511.822,-2.600758E-05
511.922,-2.597839E-05
512.022,-2.596615E-05
512.122,-2.597933E-05
512.222,-2.595955E-05
512.322,-2.595673E-05
512.4219,-2.593884E-05
512.5219,-2.59379E-05
512.6219,-2.594355E-05
512.7219,-2.594166E-05
512.8218,-2.591435E-05
512.9218,-2.591906E-05
513.0218,-2.592753E-05
513.1218,-2.591247E-05
513.2217,-2.588798E-05
513.3217,-2.591341E-05
513.4217,-2.591059E-05
513.5217,-2.589269E-05
513.6216,-2.589646E-05
513.7216,-2.587763E-05
513.8216,-2.587292E-05
513.9216,-2.588139E-05
514.0215,-2.590682E-05
514.1215,-2.587292E-05
514.2215,-2.588233E-05
514.3215,-2.58748E-05
514.4214,-2.586162E-05
514.5214,-2.587574E-05
514.6214,-2.586821E-05
514.7214,-2.587292E-05
514.8214,-2.585408E-05
514.9213,-2.588516E-05
515.0213,-2.588139E-05
515.1213,-2.586821E-05
515.2213,-2.589929E-05
515.3212,-2.587951E-05
515.4212,-2.586821E-05
515.5212,-2.588798E-05
515.6212,-2.585126E-05
515.7211,-2.583336E-05
515.8211,-2.582206E-05
515.9211,-2.58296E-05
516.0211,-2.579287E-05
516.121,-2.581076E-05
516.221,-2.583902E-05
516.321,-2.580888E-05
516.421,-2.579664E-05
516.5209,-2.581924E-05
516.6209,-2.578251E-05
516.7209,-2.577592E-05
516.8209,-2.580229E-05
516.9208,-2.577686E-05
517.0208,-2.577404E-05
517.1208,-2.575708E-05
517.2208,-2.576179E-05
517.3207,-2.574107E-05
517.4207,-2.574955E-05
517.5207,-2.578251E-05
517.6207,-2.573919E-05
517.7206,-2.572883E-05
517.8206,-2.578063E-05
517.9206,-2.572883E-05
518.0206,-2.572507E-05
518.1205,-2.573637E-05
518.2205,-2.571847E-05
518.3205,-2.570246E-05
518.4205,-2.568457E-05
518.5204,-2.571188E-05
518.6204,-2.571659E-05
518.7204,-2.566385E-05
518.8204,-2.572318E-05
518.9203,-2.568551E-05
519.0203,-2.56469E-05
519.1203,-2.567139E-05
519.2203,-2.569587E-05
519.3203,-2.565632E-05
519.4202,-2.563843E-05
519.5202,-2.56582E-05
519.6202,-2.564313E-05
519.7202,-2.562053E-05
519.8201,-2.56469E-05
519.9201,-2.563466E-05
520.0201,-2.562524E-05
520.1201,-2.561488E-05
520.22,-2.560923E-05
520.32,-2.560264E-05
520.42,-2.560641E-05
520.52,-2.560452E-05
520.6199,-2.55791E-05
520.7199,-2.562713E-05
520.8199,-2.558946E-05
520.9199,-2.558852E-05
521.0198,-2.56017E-05
521.1198,-2.556591E-05
521.2198,-2.556309E-05
521.3198,-2.556026E-05
521.4197,-2.555461E-05
521.5197,-2.554048E-05
521.6197,-2.555932E-05
521.7197,-2.555085E-05
521.8196,-2.552165E-05
521.9196,-2.557156E-05
522.0196,-2.556215E-05
522.1196,-2.552259E-05
522.2195,-2.553578E-05
522.3195,-2.555367E-05
522.4195,-2.552071E-05
522.5195,-2.551977E-05
522.6194,-2.553672E-05
522.7194,-2.55273E-05
522.8194,-2.550282E-05
522.9194,-2.550376E-05
523.0193,-2.551788E-05
523.1193,-2.547174E-05
523.2193,-2.549999E-05
523.3193,-2.551412E-05
523.4193,-2.548587E-05
523.5192,-2.544725E-05
523.6192,-2.551788E-05
523.7192,-2.551694E-05
523.8192,-2.547739E-05
523.9191,-2.550187E-05
524.0191,-2.550847E-05
524.1191,-2.547833E-05
524.2191,-2.549151E-05
524.319,-2.548869E-05
524.419,-2.545196E-05
524.519,-2.54595E-05
524.619,-2.547551E-05
524.7189,-2.545008E-05
524.8189,-2.543878E-05
524.9189,-2.545102E-05
525.0189,-2.544349E-05
525.1188,-2.542748E-05
525.2188,-2.545667E-05
525.3188,-2.544631E-05
525.4188,-2.542277E-05
525.5187,-2.544819E-05
525.6187,-2.545102E-05
525.7187,-2.5419E-05
525.8187,-2.540205E-05
525.9186,-2.541429E-05
526.0186,-2.539734E-05
526.1186,-2.539075E-05
526.2186,-2.540394E-05
526.3185,-2.539734E-05
526.4185,-2.537568E-05
526.5185,-2.539828E-05
526.6185,-2.538981E-05
526.7184,-2.533142E-05
526.8184,-2.536438E-05
526.9184,-2.537286E-05
527.0184,-2.534649E-05
527.1183,-2.534555E-05
527.2183,-2.535402E-05
527.3183,-2.532577E-05
527.4183,-2.530129E-05
527.5182,-2.53399E-05
527.6182,-2.532577E-05
527.7182,-2.530976E-05
527.8182,-2.534461E-05
527.9182,-2.533613E-05
528.0181,-2.530411E-05
528.1181,-2.533896E-05
528.2181,-2.530976E-05
528.3181,-2.529658E-05
528.418,-2.531165E-05
528.518,-2.531353E-05
528.618,-2.526079E-05
528.718,-2.524008E-05
528.8179,-2.529658E-05
528.9179,-2.526738E-05
529.0179,-2.527303E-05
529.1179,-2.52655E-05
529.2178,-2.52655E-05
529.3178,-2.524667E-05
529.4178,-2.526644E-05
529.5178,-2.528245E-05
529.6177,-2.524667E-05
529.7177,-2.528151E-05
529.8177,-2.529187E-05
529.9177,-2.524949E-05
530.0176,-2.525514E-05
530.1176,-2.526833E-05
530.2176,-2.526267E-05
530.3176,-2.522689E-05
530.4175,-2.522312E-05
530.5175,-2.524667E-05
530.6175,-2.520711E-05
530.7175,-2.5209E-05
530.8174,-2.521371E-05
530.9174,-2.517792E-05
531.0174,-2.51685E-05
531.1174,-2.51798E-05
531.2173,-2.51572E-05
531.3173,-2.517698E-05
531.4173,-2.514308E-05
531.5173,-2.515249E-05
531.6172,-2.516944E-05
531.7172,-2.519016E-05
531.8172,-2.513554E-05
531.9172,-2.516097E-05
532.0172,-2.517792E-05
532.1171,-2.513554E-05
532.2171,-2.510917E-05
532.3171,-2.517227E-05
532.4171,-2.513083E-05
532.517,-2.508846E-05
532.617,-2.512518E-05
532.717,-2.510917E-05
532.817,-2.505926E-05
532.9169,-2.509693E-05
533.0169,-2.512142E-05
533.1169,-2.507998E-05
533.2169,-2.506585E-05
533.3168,-2.510164E-05
533.4168,-2.509316E-05
533.5168,-2.508375E-05
533.6168,-2.508563E-05
533.7167,-2.509034E-05
533.8167,-2.509316E-05
533.9167,-2.512047E-05
534.0167,-2.511482E-05
534.1166,-2.508657E-05
534.2166,-2.50828E-05
534.3166,-2.508563E-05
534.4166,-2.50489E-05
534.5165,-2.502159E-05
534.6165,-2.503101E-05
534.7165,-2.503572E-05
534.8165,-2.500841E-05
534.9164,-2.501029E-05
535.0164,-2.503195E-05
535.1164,-2.500652E-05
535.2164,-2.498581E-05
535.3163,-2.49924E-05
535.4163,-2.501312E-05
535.5163,-2.501123E-05
535.6163,-2.501217E-05
535.7162,-2.49924E-05
535.8162,-2.498392E-05
535.9162,-2.498392E-05
536.0162,-2.499334E-05
536.1161,-2.497356E-05
536.2161,-2.496791E-05
536.3161,-2.497827E-05
536.4161,-2.496603E-05
536.5161,-2.497262E-05
536.616,-2.496038E-05
536.716,-2.496509E-05
536.816,-2.493872E-05
536.916,-2.493589E-05
537.0159,-2.492271E-05
537.1159,-2.494249E-05
537.2159,-2.492648E-05
537.3159,-2.490293E-05
537.4158,-2.49293E-05
537.5158,-2.492365E-05
537.6158,-2.488033E-05
537.7158,-2.487845E-05
537.8157,-2.490388E-05
537.9157,-2.488692E-05
538.0157,-2.486715E-05
538.1157,-2.487374E-05
538.2156,-2.489446E-05
538.3156,-2.485961E-05
538.4156,-2.485867E-05
538.5156,-2.483984E-05
538.6155,-2.484926E-05
538.7155,-2.488222E-05
538.8155,-2.485585E-05
538.9155,-2.482383E-05
539.0154,-2.483984E-05
539.1154,-2.484172E-05
539.2154,-2.482383E-05
539.3154,-2.481253E-05
539.4153,-2.485491E-05
539.5153,-2.483136E-05
539.6153,-2.480311E-05
539.7153,-2.481629E-05
539.8152,-2.48323E-05
539.9152,-2.478898E-05
540.0152,-2.481535E-05
540.1152,-2.481441E-05
540.2151,-2.477486E-05
540.3151,-2.478522E-05
540.4151,-2.477863E-05
540.5151,-2.480123E-05
540.6151,-2.478522E-05
540.715,-2.47532E-05
540.815,-2.478239E-05
540.915,-2.47984E-05
541.015,-2.477297E-05
541.1149,-2.475885E-05
541.2149,-2.476921E-05
541.3149,-2.478051E-05
541.4149,-2.473813E-05
541.5148,-2.473719E-05
541.6148,-2.477297E-05
541.7148,-2.474284E-05
541.8148,-2.471365E-05
541.9147,-2.475225E-05
542.0147,-2.473342E-05
542.1147,-2.469387E-05
542.2147,-2.474943E-05
542.3146,-2.473625E-05
542.4146,-2.467504E-05
542.5146,-2.471365E-05
542.6146,-2.473531E-05
542.7145,-2.466279E-05
542.8145,-2.469104E-05
542.9145,-2.473248E-05
543.0145,-2.472589E-05
543.1144,-2.470611E-05
543.2144,-2.471553E-05
543.3144,-2.472777E-05
543.4144,-2.469952E-05
543.5143,-2.469575E-05
543.6143,-2.468728E-05
543.7143,-2.467786E-05
543.8143,-2.467033E-05
543.9142,-2.467127E-05
544.0142,-2.465243E-05
544.1142,-2.464678E-05
544.2142,-2.466373E-05
544.3141,-2.464961E-05
544.4141,-2.463266E-05
544.5141,-2.463831E-05
544.6141,-2.467033E-05
544.7141,-2.460346E-05
544.814,-2.463643E-05
544.914,-2.466468E-05
545.014,-2.460535E-05
545.114,-2.460911E-05
545.2139,-2.462324E-05
545.3139,-2.459028E-05
545.4139,-2.458557E-05
545.5139,-2.462324E-05
545.6138,-2.456109E-05
545.7138,-2.456297E-05
545.8138,-2.459499E-05
545.9138,-2.457898E-05
546.0137,-2.457615E-05
546.1137,-2.457615E-05
546.2137,-2.456485E-05
546.3137,-2.454978E-05
546.4136,-2.456485E-05
546.5136,-2.458369E-05
546.6136,-2.454602E-05
546.7136,-2.456674E-05
546.8135,-2.455638E-05
546.9135,-2.454225E-05
547.0135,-2.453095E-05
547.1135,-2.451965E-05
547.2134,-2.454225E-05
547.3134,-2.451777E-05
547.4134,-2.453001E-05
547.5134,-2.452907E-05
547.6133,-2.449611E-05
547.7133,-2.450458E-05
547.8133,-2.451588E-05
547.9133,-2.448763E-05
548.0132,-2.448386E-05
548.1132,-2.45027E-05
548.2132,-2.449799E-05
548.3132,-2.449422E-05
548.4131,-2.448292E-05
548.5131,-2.447445E-05
548.6131,-2.446409E-05
548.7131,-2.44622E-05
548.813,-2.446974E-05
548.913,-2.445467E-05
549.013,-2.444714E-05
549.113,-2.444808E-05
549.213,-2.442453E-05
549.3129,-2.443207E-05
549.4129,-2.442171E-05
549.5129,-2.442924E-05
549.6129,-2.441512E-05
549.7128,-2.444149E-05
549.8128,-2.442077E-05
549.9128,-2.439534E-05
550.0128,-2.441041E-05
550.1127,-2.443301E-05
550.2127,-2.439346E-05
550.3127,-2.440287E-05
550.4127,-2.441041E-05
550.5126,-2.440287E-05
550.6126,-2.437745E-05
550.7126,-2.438027E-05
550.8126,-2.43831E-05
550.9125,-2.438216E-05
551.0125,-2.436238E-05
551.1125,-2.435484E-05
551.2125,-2.437086E-05
551.3124,-2.435202E-05
551.4124,-2.435767E-05
551.5124,-2.438498E-05
551.6124,-2.436238E-05
551.7123,-2.435484E-05
551.8123,-2.435108E-05
551.9123,-2.436991E-05
552.0123,-2.43426E-05
552.1122,-2.435579E-05
552.2122,-2.436426E-05
552.3122,-2.43652E-05
552.4122,-2.432942E-05
552.5121,-2.438498E-05
552.6121,-2.435767E-05
552.7121,-2.431529E-05
552.8121,-2.43426E-05
552.912,-2.431623E-05
553.012,-2.431812E-05
553.112,-2.428798E-05
553.212,-2.432754E-05
553.312,-2.430588E-05
553.4119,-2.427574E-05
553.5119,-2.430211E-05
553.6119,-2.430964E-05
553.7119,-2.427197E-05
553.8118,-2.429175E-05
553.9118,-2.430399E-05
554.0118,-2.425031E-05
554.1118,-2.425691E-05
554.2117,-2.42861E-05
554.3117,-2.425502E-05
554.4117,-2.42343E-05
554.5117,-2.426161E-05
554.6116,-2.425408E-05
554.7116,-2.422677E-05
554.8116,-2.425408E-05
554.9116,-2.424655E-05
555.0115,-2.420888E-05
555.1115,-2.423148E-05
555.2115,-2.425031E-05
555.3115,-2.421735E-05
555.4114,-2.425408E-05
555.5114,-2.423995E-05
555.6114,-2.423901E-05
555.7114,-2.42343E-05
555.8113,-2.424843E-05
555.9113,-2.422395E-05
556.0113,-2.421735E-05
556.1113,-2.420417E-05
556.2112,-2.419946E-05
556.3112,-2.420134E-05
556.4112,-2.417592E-05
556.5112,-2.417968E-05
556.6111,-2.417121E-05
556.7111,-2.416368E-05
556.8111,-2.415991E-05
556.9111,-2.415049E-05
557.011,-2.417592E-05
557.111,-2.413825E-05
557.211,-2.413919E-05
557.311,-2.418062E-05
557.4109,-2.419758E-05
557.5109,-2.417215E-05
557.6109,-2.417497E-05
557.7109,-2.41552E-05
557.8109,-2.415143E-05
557.9108,-2.417215E-05
558.0108,-2.417592E-05
558.1108,-2.415143E-05
558.2108,-2.416933E-05
558.3107,-2.418533E-05
558.4107,-2.414578E-05
558.5107,-2.413636E-05
558.6107,-2.417968E-05
558.7106,-2.413354E-05
558.8106,-2.41213E-05
558.9106,-2.412601E-05
559.0106,-2.413072E-05
559.1105,-2.410058E-05
559.2105,-2.409775E-05
559.3105,-2.413072E-05
559.4105,-2.408739E-05
559.5104,-2.409304E-05
559.6104,-2.410905E-05
559.7104,-2.408457E-05
559.8104,-2.406103E-05
559.9103,-2.409964E-05
560.0103,-2.409493E-05
560.1103,-2.40582E-05
560.2103,-2.408363E-05
560.3102,-2.408363E-05
560.4102,-2.404502E-05
560.5102,-2.405537E-05
560.6102,-2.408174E-05
560.7101,-2.404502E-05
560.8101,-2.405443E-05
560.9101,-2.407515E-05
561.0101,-2.404125E-05
561.11,-2.404502E-05
561.21,-2.40356E-05
561.31,-2.403183E-05
561.41,-2.402147E-05
561.5099,-2.404219E-05
561.6099,-2.403466E-05
561.7099,-2.401488E-05
561.8099,-2.409399E-05
561.9099,-2.408739E-05
562.0098,-2.404313E-05
562.1098,-2.408834E-05
562.2098,-2.410058E-05
562.3098,-2.406103E-05
562.4097,-2.403748E-05
562.5097,-2.404972E-05
562.6097,-2.404596E-05
562.7097,-2.399416E-05
562.8096,-2.404784E-05
562.9096,-2.404784E-05
563.0096,-2.399134E-05
563.1096,-2.402241E-05
563.2095,-2.401017E-05
563.3095,-2.397627E-05
563.4095,-2.395555E-05
563.5095,-2.397439E-05
563.6094,-2.397815E-05
563.7094,-2.394614E-05
563.8094,-2.397815E-05
563.9094,-2.396968E-05
564.0093,-2.394614E-05
564.1093,-2.395649E-05
564.2093,-2.39273E-05
564.3093,-2.394048E-05
564.4092,-2.395744E-05
564.5092,-2.392918E-05
564.6092,-2.390847E-05
564.7092,-2.391318E-05
564.8091,-2.394331E-05
564.9091,-2.390658E-05
565.0091,-2.389622E-05
565.1091,-2.391506E-05
565.209,-2.389434E-05
565.309,-2.389999E-05
565.409,-2.389434E-05
565.509,-2.388963E-05
565.6089,-2.392259E-05
565.7089,-2.389622E-05
565.8089,-2.387362E-05
565.9089,-2.387645E-05
566.0089,-2.389151E-05
566.1088,-2.388586E-05
566.2088,-2.38529E-05
566.3088,-2.388586E-05
566.4088,-2.38981E-05
566.5087,-2.385667E-05
566.6087,-2.386797E-05
566.7087,-2.388021E-05
566.8087,-2.386044E-05
566.9086,-2.384349E-05
567.0086,-2.386044E-05
567.1086,-2.387174E-05
567.2086,-2.385196E-05
567.3085,-2.381806E-05
567.4085,-2.385102E-05
567.5085,-2.38416E-05
567.6085,-2.382653E-05
567.7084,-2.381806E-05
567.8084,-2.383595E-05
567.9084,-2.383407E-05
568.0084,-2.381806E-05
568.1083,-2.381429E-05
568.2083,-2.384914E-05
568.3083,-2.381994E-05
568.4083,-2.380205E-05
568.5082,-2.383595E-05
568.6082,-2.383124E-05
568.7082,-2.382183E-05
568.8082,-2.382842E-05
568.9081,-2.381147E-05
569.0081,-2.381524E-05
569.1081,-2.380864E-05
569.2081,-2.382842E-05
569.308,-2.378981E-05
569.408,-2.37851E-05
569.508,-2.381618E-05
569.608,-2.38077E-05
569.7079,-2.37851E-05
569.8079,-2.382371E-05
569.9079,-2.37851E-05
570.0079,-2.377286E-05
570.1078,-2.378698E-05
570.2078,-2.379546E-05
570.3078,-2.376815E-05
570.4078,-2.374837E-05
570.5078,-2.379075E-05
570.6077,-2.378604E-05
570.7077,-2.372671E-05
570.8077,-2.379169E-05
570.9077,-2.376815E-05
571.0076,-2.374272E-05
571.1076,-2.375873E-05
571.2076,-2.375591E-05
571.3076,-2.373142E-05
571.4075,-2.371164E-05
571.5075,-2.374743E-05
571.6075,-2.373707E-05
571.7075,-2.372106E-05
571.8074,-2.373142E-05
571.9074,-2.374649E-05
572.0074,-2.370223E-05
572.1074,-2.372577E-05
572.2073,-2.37173E-05
572.3073,-2.367774E-05
572.4073,-2.370411E-05
572.5073,-2.372389E-05
572.6072,-2.371447E-05
572.7072,-2.370128E-05
572.8072,-2.369658E-05
572.9072,-2.370034E-05
573.0071,-2.369563E-05
573.1071,-2.367021E-05
573.2071,-2.369469E-05
573.3071,-2.368904E-05
573.407,-2.368339E-05
573.507,-2.369469E-05
573.607,-2.367397E-05
573.707,-2.368057E-05
573.8069,-2.366738E-05
573.9069,-2.366456E-05
574.0069,-2.367115E-05
574.1069,-2.365231E-05
574.2068,-2.364196E-05
574.3068,-2.366362E-05
574.4068,-2.367492E-05
574.5068,-2.364761E-05
574.6068,-2.361464E-05
574.7067,-2.364666E-05
574.8067,-2.363913E-05
574.9067,-2.361182E-05
575.0067,-2.364949E-05
575.1066,-2.366173E-05
575.2066,-2.362312E-05
575.3066,-2.364761E-05
575.4066,-2.363725E-05
575.5065,-2.360994E-05
575.6065,-2.363442E-05
575.7065,-2.363725E-05
575.8065,-2.360711E-05
575.9064,-2.361653E-05
576.0064,-2.363725E-05
576.1064,-2.362124E-05
576.2064,-2.360711E-05
576.3063,-2.360994E-05
576.4063,-2.362312E-05
576.5063,-2.359205E-05
576.6063,-2.359675E-05
576.7062,-2.361653E-05
576.8062,-2.359769E-05
576.9062,-2.364478E-05
577.0062,-2.363442E-05
577.1061,-2.361276E-05
577.2061,-2.366738E-05
577.3061,-2.364007E-05
577.4061,-2.360429E-05
577.506,-2.363913E-05
577.606,-2.364007E-05
577.706,-2.356944E-05
577.806,-2.358074E-05
577.9059,-2.362124E-05
578.0059,-2.359675E-05
578.1059,-2.357698E-05
578.2059,-2.359864E-05
578.3058,-2.359581E-05
578.4058,-2.356568E-05
578.5058,-2.35911E-05
578.6058,-2.360617E-05
578.7057,-2.357792E-05
578.8057,-2.359487E-05
578.9057,-2.359393E-05
579.0057,-2.357603E-05
579.1057,-2.35685E-05
579.2056,-2.355343E-05
579.3056,-2.356097E-05
579.4056,-2.354401E-05
579.5056,-2.353648E-05
579.6055,-2.35346E-05
579.7055,-2.354119E-05
579.8055,-2.354025E-05
579.9055,-2.353271E-05
580.0054,-2.351294E-05
580.1054,-2.353271E-05
580.2054,-2.353083E-05
580.3054,-2.350258E-05
580.4053,-2.350352E-05
580.5053,-2.352518E-05
580.6053,-2.351859E-05
580.7053,-2.34828E-05
580.8052,-2.350446E-05
580.9052,-2.349599E-05
581.0052,-2.346868E-05
581.1052,-2.349034E-05
581.2051,-2.349034E-05
581.3051,-2.348374E-05
581.4051,-2.349881E-05
581.5051,-2.346303E-05
581.605,-2.34828E-05
581.705,-2.34941E-05
581.805,-2.34376E-05
581.905,-2.345832E-05
582.0049,-2.348939E-05
582.1049,-2.348939E-05
582.2049,-2.346397E-05
582.3049,-2.346303E-05
582.4048,-2.347244E-05
582.5048,-2.345361E-05
582.6048,-2.343101E-05
582.7048,-2.346397E-05
582.8047,-2.347904E-05
582.9047,-2.343666E-05
583.0047,-2.345549E-05
583.1047,-2.347056E-05
583.2047,-2.342818E-05
583.3046,-2.345172E-05
583.4046,-2.347433E-05
583.5046,-2.344419E-05
583.6046,-2.348469E-05
583.7045,-2.344796E-05
583.8045,-2.346585E-05
583.9045,-2.35007E-05
584.0045,-2.34715E-05
584.1044,-2.346114E-05
584.2044,-2.346397E-05
584.3044,-2.345926E-05
584.4044,-2.343854E-05
584.5043,-2.342348E-05
584.6043,-2.344231E-05
584.7043,-2.344231E-05
584.8043,-2.340746E-05
584.9042,-2.343948E-05
585.0042,-2.343666E-05
585.1042,-2.338392E-05
585.2042,-2.340558E-05
585.3041,-2.343289E-05
585.4041,-2.33632E-05
585.5041,-2.336791E-05
585.6041,-2.342442E-05
585.704,-2.339428E-05
585.804,-2.335755E-05
585.904,-2.339334E-05
586.004,-2.340181E-05
586.1039,-2.336132E-05
586.2039,-2.338769E-05
586.3039,-2.34037E-05
586.4039,-2.337921E-05
586.5038,-2.339145E-05
586.6038,-2.341123E-05
586.7038,-2.339616E-05
586.8038,-2.33971E-05
586.9037,-2.340558E-05
587.0037,-2.3415E-05
587.1037,-2.340276E-05
587.2037,-2.338957E-05
587.3036,-2.339899E-05
587.4036,-2.337639E-05
587.5036,-2.337827E-05
587.6036,-2.336226E-05
587.7036,-2.339051E-05
587.8035,-2.341594E-05
587.9035,-2.336791E-05
588.0035,-2.337545E-05
588.1035,-2.339616E-05
588.2034,-2.334154E-05
588.3034,-2.335284E-05
588.4034,-2.336791E-05
588.5034,-2.334814E-05
588.6033,-2.333307E-05
588.7033,-2.334625E-05
588.8033,-2.33811E-05
588.9033,-2.332742E-05
589.0032,-2.333119E-05
589.1032,-2.335473E-05
589.2032,-2.331706E-05
589.3032,-2.330011E-05
589.4031,-2.335473E-05
589.5031,-2.333966E-05
589.6031,-2.331423E-05
589.7031,-2.333401E-05
589.803,-2.336132E-05
589.903,-2.33406E-05
590.003,-2.333024E-05
590.103,-2.331423E-05
590.2029,-2.332177E-05
590.3029,-2.331423E-05
590.4029,-2.331141E-05
590.5029,-2.332177E-05
590.6028,-2.331517E-05
590.7028,-2.333024E-05
590.8028,-2.330576E-05
590.9028,-2.332082E-05
591.0027,-2.333589E-05
591.1027,-2.329351E-05
591.2027,-2.329163E-05
591.3027,-2.330011E-05
591.4026,-2.329163E-05
591.5026,-2.329069E-05
591.6026,-2.328127E-05
591.7026,-2.331517E-05
591.8026,-2.328316E-05
591.9025,-2.325961E-05
592.0025,-2.329634E-05
592.1025,-2.32728E-05
592.2025,-2.324831E-05
592.3024,-2.329822E-05
592.4024,-2.328786E-05
592.5024,-2.324925E-05
592.6024,-2.328786E-05
592.7023,-2.329351E-05
592.8023,-2.32502E-05
592.9023,-2.327091E-05
593.0023,-2.32728E-05
593.1022,-2.324643E-05
593.2022,-2.32323E-05
593.3022,-2.325961E-05
593.4022,-2.326338E-05
593.5021,-2.323889E-05
593.6021,-2.324172E-05
593.7021,-2.325208E-05
593.8021,-2.322383E-05
593.902,-2.322383E-05
594.002,-2.324266E-05
594.102,-2.323324E-05
594.202,-2.324078E-05
594.3019,-2.324172E-05
594.4019,-2.323136E-05
594.5019,-2.323419E-05
594.6019,-2.323324E-05
594.7018,-2.321818E-05
594.8018,-2.322006E-05
594.9018,-2.322948E-05
595.0018,-2.321441E-05
595.1017,-2.321723E-05
595.2017,-2.324643E-05
595.3017,-2.321723E-05
595.4017,-2.321253E-05
595.5016,-2.325585E-05
595.6016,-2.323701E-05
595.7016,-2.31758E-05
595.8016,-2.324454E-05
595.9016,-2.322383E-05
596.0015,-2.318522E-05
596.1015,-2.320405E-05
596.2015,-2.322477E-05
596.3015,-2.316921E-05
596.4014,-2.321347E-05
596.5014,-2.323419E-05
596.6014,-2.321912E-05
596.7014,-2.318239E-05
596.8013,-2.322948E-05
596.9013,-2.324643E-05
597.0013,-2.319275E-05
597.1013,-2.321158E-05
597.2012,-2.323795E-05
597.3012,-2.319181E-05
597.4012,-2.317862E-05
597.5012,-2.3221E-05
597.6011,-2.316638E-05
597.7011,-2.317956E-05
597.8011,-2.320876E-05
597.9011,-2.319557E-05
598.001,-2.317956E-05
598.101,-2.318992E-05
598.201,-2.319275E-05
598.301,-2.316921E-05
598.4009,-2.320217E-05
598.5009,-2.319275E-05
598.6009,-2.318239E-05
598.7009,-2.319934E-05
598.8008,-2.318992E-05
598.9008,-2.318333E-05
599.0008,-2.320311E-05
599.1008,-2.317203E-05
599.2007,-2.31758E-05
599.3007,-2.316544E-05
599.4007,-2.317486E-05
599.5007,-2.315791E-05
599.6006,-2.314943E-05
599.7006,-2.317486E-05
599.8006,-2.314284E-05
599.9006,-2.315226E-05
600.0005,-2.318992E-05
