EXPID. 0265
[电化学]: i-t : @ 0(V) X 600(sec)
起始电位 (V),0
静置时间 (秒),0
运行时间 (秒),600
记录间隔,0.1
电解液 信息:
HNO3,0.4
0.1,-0.002812416
0.2,0.002459831
0.3,-0.0004216704
0.4,-0.002967438
0.5,-0.002714725
0.6,-0.00245314
0.7,-0.002248897
0.8000001,-0.002088597
0.9000001,-0.001959718
1,-0.001854608
1.1,-0.001766652
1.2,-0.001692212
1.3,-0.001627932
1.4,-0.001572233
1.5,-0.001522722
1.6,-0.001478849
1.7,-0.001439637
1.8,-0.001403707
1.9,-0.001371987
2,-0.00134233
2.1,-0.001314867
2.2,-0.001289942
2.3,-0.00126642
2.4,-0.001244849
2.5,-0.00122474
2.6,-0.001205765
2.7,-0.001187571
2.799999,-0.001170303
2.899999,-0.001154108
2.999999,-0.001138765
3.099999,-0.0011243
3.199999,-0.001110477
3.299999,-0.001097125
3.399999,-0.001084729
3.499999,-0.001072682
3.599999,-0.001061095
3.699999,-0.001050129
3.799999,-0.001039374
3.899998,-0.00102886
3.999998,-0.001019077
4.099998,-0.001009421
4.199998,-0.001000302
4.299998,-0.0009914857
4.399998,-0.0009828726
4.499998,-0.0009746136
4.599998,-0.0009667341
4.699998,-0.0009590694
4.799998,-0.0009516532
4.899998,-0.0009442832
4.999998,-0.000937935
5.099998,-0.0009312374
5.199997,-0.0009247019
5.299997,-0.0009186455
5.399997,-0.0009124941
5.499997,-0.0009064011
5.599997,-0.0009004889
5.699997,-0.0008947632
5.799997,-0.000889078
5.899997,-0.0008833956
5.999997,-0.000878185
6.099997,-0.0008727936
6.199996,-0.0008675049
6.299996,-0.0008625608
6.399996,-0.000857547
6.499996,-0.0008526217
6.599996,-0.0008477906
6.699996,-0.0008431018
6.799996,-0.0008384449
6.899996,-0.0008339585
6.999996,-0.0008296585
7.099996,-0.0008254773
7.199996,-0.0008212762
7.299995,-0.0008172512
7.399995,-0.0008132903
7.499995,-0.0008092672
7.599995,-0.0008052988
7.699995,-0.0008014904
7.799995,-0.0007976208
7.899995,-0.0007938718
7.999995,-0.0007902122
8.099995,-0.0007868097
8.199995,-0.0007835589
8.299995,-0.0007806207
8.399996,-0.0007777776
8.499996,-0.0007746266
8.599997,-0.0007714614
8.699997,-0.0007684064
8.799997,-0.0007651932
8.899998,-0.0007623408
8.999998,-0.0007596022
9.099998,-0.0007567035
9.199999,-0.0007540959
9.299999,-0.0007514411
9.4,-0.0007487554
9.5,-0.0007460422
9.6,-0.0007436229
9.700001,-0.0007408985
9.800001,-0.0007379302
9.900002,-0.0007351738
10,-0.0007321988
10.1,-0.0007292455
10.2,-0.0007267113
10.3,-0.0007240414
10.4,-0.0007213528
10.5,-0.0007188648
10.6,-0.0007164502
10.7,-0.0007140488
10.8,-0.0007114797
10.90001,-0.0007092723
11.00001,-0.0007068426
11.10001,-0.0007042774
11.20001,-0.0007018336
11.30001,-0.0006993493
11.40001,-0.0006969441
11.50001,-0.0006945992
11.60001,-0.0006922552
11.70001,-0.000690027
11.80001,-0.0006878281
11.90001,-0.0006857027
12.00001,-0.0006835554
12.10001,-0.000681447
12.20001,-0.0006794288
12.30001,-0.0006773401
12.40001,-0.0006751806
12.50001,-0.0006731559
12.60001,-0.0006711718
12.70001,-0.0006691781
12.80001,-0.0006672429
12.90001,-0.0006652737
13.00001,-0.0006634298
13.10001,-0.0006615312
13.20001,-0.000659773
13.30001,-0.0006579913
13.40001,-0.0006561351
13.50002,-0.0006543439
13.60002,-0.0006527138
13.70002,-0.000650788
13.80002,-0.0006490015
13.90002,-0.0006472546
14.00002,-0.0006455642
14.10002,-0.0006439255
14.20002,-0.000642334
14.30002,-0.0006405918
14.40002,-0.0006389833
14.50002,-0.0006372412
14.60002,-0.0006354594
14.70002,-0.0006337031
14.80002,-0.0006321144
14.90002,-0.0006304607
15.00002,-0.0006287891
15.10002,-0.0006272418
15.20002,-0.0006256418
15.30002,-0.0006239806
15.40002,-0.0006224795
15.50002,-0.0006208946
15.60002,-0.0006192541
15.70002,-0.000617769
15.80002,-0.0006162791
15.90002,-0.0006147535
16.00002,-0.0006131752
16.10003,-0.0006117306
16.20003,-0.0006102606
16.30003,-0.0006087981
16.40003,-0.000607376
16.50003,-0.0006059587
16.60003,-0.0006045838
16.70003,-0.0006033303
16.80003,-0.000601978
16.90003,-0.0006006153
17.00003,-0.0005992602
17.10003,-0.0005978316
17.20003,-0.0005965217
17.30003,-0.0005951768
17.40003,-0.0005937934
17.50003,-0.0005924816
17.60003,-0.0005911264
17.70003,-0.0005898202
17.80003,-0.0005885217
17.90003,-0.0005871307
18.00003,-0.0005858386
18.10003,-0.0005845089
18.20003,-0.0005831745
18.30003,-0.0005818843
18.40003,-0.0005806958
18.50003,-0.0005794151
18.60003,-0.000578188
18.70004,-0.0005770532
18.80004,-0.0005759015
18.90004,-0.0005748495
19.00004,-0.0005737807
19.10004,-0.0005725574
19.20004,-0.0005713181
19.30004,-0.0005700731
19.40004,-0.0005689129
19.50004,-0.0005677913
19.60004,-0.0005666819
19.70004,-0.0005655669
19.80004,-0.0005643897
19.90004,-0.0005632333
20.00004,-0.00056201
20.10004,-0.0005607829
20.20004,-0.0005594682
20.30004,-0.0005583307
20.40004,-0.0005571309
20.50004,-0.0005559509
20.60004,-0.000554867
20.70004,-0.0005537086
20.80004,-0.0005524919
20.90004,-0.0005514127
21.00004,-0.0005502817
21.10004,-0.000549113
21.20004,-0.000547965
21.30005,-0.0005468773
21.40005,-0.0005457689
21.50005,-0.0005446266
21.60005,-0.0005435634
21.70005,-0.0005424474
21.80005,-0.0005413587
21.90005,-0.0005403078
22.00005,-0.0005392446
22.10005,-0.0005382228
22.20005,-0.0005371143
22.30005,-0.0005360531
22.40005,-0.0005350228
22.50005,-0.0005339945
22.60005,-0.0005329275
22.70005,-0.0005319188
22.80005,-0.0005308604
22.90005,-0.0005298941
23.00005,-0.0005289307
23.10005,-0.0005279146
23.20005,-0.0005269983
23.30005,-0.0005260688
23.40005,-0.0005250706
23.50005,-0.0005241939
23.60005,-0.0005232295
23.70005,-0.0005222501
23.80005,-0.0005212877
23.90005,-0.0005203318
24.00006,-0.0005193646
24.10006,-0.0005183758
24.20006,-0.0005174558
24.30006,-0.0005165196
24.40006,-0.0005155789
24.50006,-0.0005147576
24.60006,-0.0005139534
24.70006,-0.000513007
24.80006,-0.0005122828
24.90006,-0.0005114937
25.00006,-0.0005104869
25.10006,-0.0005097279
25.20006,-0.0005088578
25.30006,-0.0005079424
25.40006,-0.0005070609
25.50006,-0.0005062915
25.60006,-0.0005054685
25.70006,-0.0005045296
25.80006,-0.0005036509
25.90006,-0.0005026677
26.00006,-0.0005017486
26.10006,-0.0005009557
26.20006,-0.0005000874
26.30006,-0.0004992192
26.40006,-0.0004983151
26.50006,-0.0004974402
26.60007,-0.0004965682
26.70007,-0.0004956923
26.80007,-0.0004948118
26.90007,-0.0004939341
27.00007,-0.0004930536
27.10007,-0.0004922239
27.20007,-0.0004913039
27.30007,-0.0004904874
27.40007,-0.0004897001
27.50007,-0.0004887923
27.60007,-0.0004879768
27.70007,-0.0004872064
27.80007,-0.0004863409
27.90007,-0.0004855414
28.00007,-0.0004847532
28.10007,-0.0004839358
28.20007,-0.0004831598
28.30007,-0.0004825175
28.40007,-0.0004817698
28.50007,-0.0004810418
28.60007,-0.0004802207
28.70007,-0.0004797422
28.80007,-0.0004788288
28.90007,-0.0004779878
29.00007,-0.0004772833
29.10007,-0.0004764913
29.20008,-0.0004756193
29.30008,-0.0004749008
29.40008,-0.0004741314
29.50008,-0.0004733093
29.60008,-0.0004725643
29.70008,-0.0004717611
29.80008,-0.000470971
29.90008,-0.0004701837
30.00008,-0.0004694115
30.10008,-0.0004687466
30.20008,-0.0004680713
30.30008,-0.0004673999
30.40008,-0.000466623
30.50008,-0.0004657971
30.60008,-0.0004651313
30.70008,-0.0004643807
30.80008,-0.0004636518
30.90008,-0.0004630491
31.00008,-0.0004623673
31.10008,-0.0004616685
31.20008,-0.0004609528
31.30008,-0.0004602597
31.40008,-0.0004595063
31.50008,-0.0004587143
31.60008,-0.0004579779
31.70008,-0.0004572282
31.80009,-0.0004564767
31.90009,-0.0004557648
32.00008,-0.0004550133
32.10008,-0.000454324
32.20008,-0.0004535856
32.30008,-0.0004529961
32.40008,-0.0004523576
32.50008,-0.0004516899
32.60007,-0.0004510175
32.70007,-0.0004503169
32.80007,-0.0004495494
32.90007,-0.0004488695
33.00007,-0.0004482037
33.10007,-0.0004474569
33.20007,-0.0004468268
33.30006,-0.0004461309
33.40006,-0.0004453568
33.50006,-0.000444723
33.60006,-0.0004441071
33.70006,-0.0004433208
33.80006,-0.0004426456
33.90005,-0.0004420551
34.00005,-0.0004414439
34.10005,-0.0004407197
34.20005,-0.0004400812
34.30005,-0.0004394079
34.40005,-0.0004386893
34.50005,-0.0004380329
34.60004,-0.0004374189
34.70004,-0.0004366863
34.80004,-0.0004361015
34.90004,-0.000435479
35.00004,-0.0004348
35.10004,-0.0004342679
35.20004,-0.0004337057
35.30003,-0.0004330182
35.40003,-0.0004323835
35.50003,-0.0004317818
35.60003,-0.0004311404
35.70003,-0.0004304501
35.80003,-0.0004298484
35.90002,-0.0004291986
36.00002,-0.0004285714
36.10002,-0.0004279668
36.20002,-0.0004274347
36.30002,-0.0004267369
36.40002,-0.0004262105
36.50002,-0.0004255701
36.60001,-0.0004248845
36.70001,-0.0004242959
36.80001,-0.0004236678
36.90001,-0.0004231385
37.00001,-0.0004225857
37.10001,-0.0004220311
37.2,-0.0004215036
37.3,-0.0004210102
37.4,-0.0004207399
37.5,-0.0004202267
37.6,-0.0004197935
37.7,-0.0004194093
37.8,-0.0004188791
37.89999,-0.0004182688
37.99999,-0.0004177377
38.09999,-0.0004171312
38.19999,-0.0004165925
38.29999,-0.0004159861
38.39999,-0.0004154738
38.49998,-0.0004148296
38.59998,-0.0004140772
38.69998,-0.0004134999
38.79998,-0.0004128643
38.89998,-0.0004122022
38.99998,-0.0004116824
39.09998,-0.0004112576
39.19997,-0.0004107388
39.29997,-0.0004101888
39.39997,-0.0004096143
39.49997,-0.000408909
39.59997,-0.000408327
39.69997,-0.0004078184
39.79996,-0.0004073579
39.89996,-0.0004067336
39.99996,-0.0004063135
40.09996,-0.0004057118
40.19996,-0.0004051223
40.29996,-0.000404771
40.39996,-0.0004042295
40.49995,-0.0004035053
40.59995,-0.0004030006
40.69995,-0.0004023046
40.79995,-0.0004016981
40.89995,-0.0004012028
40.99995,-0.0004006368
41.09995,-0.0004000576
41.19994,-0.0003995058
41.29994,-0.0003990151
41.39994,-0.0003984821
41.49994,-0.0003978832
41.59994,-0.000397401
41.69994,-0.0003968237
41.79993,-0.0003962982
41.89993,-0.0003958396
41.99993,-0.0003952623
42.09993,-0.0003947293
42.19993,-0.0003942584
42.29993,-0.0003937066
42.39993,-0.0003931689
42.49992,-0.0003926019
42.59992,-0.0003921094
42.69992,-0.0003915444
42.79992,-0.0003909681
42.89992,-0.0003905339
42.99992,-0.0003899491
43.09991,-0.0003894095
43.19991,-0.0003889688
43.29991,-0.0003884442
43.39991,-0.0003879987
43.49991,-0.0003876165
43.59991,-0.0003870985
43.69991,-0.0003865513
43.7999,-0.0003862707
43.8999,-0.0003858384
43.9999,-0.0003853337
44.0999,-0.0003848609
44.1999,-0.0003845944
44.2999,-0.000384036
44.39989,-0.000383502
44.49989,-0.0003830923
44.59989,-0.0003825744
44.69989,-0.0003820593
44.79989,-0.0003815941
44.89989,-0.0003810733
44.99989,-0.0003805318
45.09988,-0.0003800929
45.19988,-0.0003796399
45.29988,-0.0003791729
45.39988,-0.0003786634
45.49988,-0.0003782707
45.59988,-0.0003778714
45.69987,-0.000377312
45.79987,-0.0003768948
45.89987,-0.0003764729
45.99987,-0.0003759841
46.09987,-0.0003756254
46.19987,-0.00037526
46.29987,-0.0003747637
46.39986,-0.0003744058
46.49986,-0.0003739867
46.59986,-0.0003735253
46.69986,-0.0003730055
46.79986,-0.0003725223
46.89986,-0.0003720562
46.99986,-0.0003716107
47.09985,-0.0003711682
47.19985,-0.0003707613
47.29985,-0.0003702952
47.39985,-0.0003699477
47.49985,-0.0003695964
47.59985,-0.000369199
47.69984,-0.0003687441
47.79984,-0.000368327
47.89984,-0.0003678617
47.99984,-0.0003675236
48.09984,-0.0003673127
48.19984,-0.0003671742
48.29984,-0.0003670876
48.39983,-0.0003672703
48.49983,-0.0003672006
48.59983,-0.0003666686
48.69983,-0.0003661016
48.79983,-0.0003654104
48.89983,-0.0003648293
48.99982,-0.000364318
49.09982,-0.0003637878
49.19982,-0.0003632698
49.29982,-0.0003626879
49.39982,-0.0003621501
49.49982,-0.0003616162
49.59982,-0.0003611321
49.69981,-0.000360583
49.79981,-0.0003601179
49.89981,-0.0003596291
49.99981,-0.0003591027
50.09981,-0.0003586186
50.19981,-0.000358193
50.2998,-0.0003577796
50.3998,-0.0003572936
50.4998,-0.0003567813
50.5998,-0.000356382
50.6998,-0.0003559055
50.7998,-0.000355444
50.8998,-0.0003550702
50.99979,-0.0003546445
51.09979,-0.0003542669
51.19979,-0.0003539119
51.29979,-0.0003534532
51.39979,-0.0003529871
51.49979,-0.0003526518
51.59978,-0.0003522742
51.69978,-0.0003518947
51.79978,-0.0003514803
51.89978,-0.0003512195
51.99978,-0.000350774
52.09978,-0.0003503069
52.19978,-0.0003500084
52.29977,-0.0003495629
52.39977,-0.0003491081
52.49977,-0.0003487596
52.59977,-0.0003483867
52.69977,-0.0003479554
52.79977,-0.0003475947
52.89977,-0.0003472312
52.99976,-0.000346782
53.09976,-0.0003464185
53.19976,-0.0003460606
53.29976,-0.0003456548
53.39976,-0.0003452121
53.49976,-0.0003448797
53.59975,-0.0003444729
53.69975,-0.0003440453
53.79975,-0.0003437345
53.89975,-0.0003433023
53.99975,-0.0003429106
54.09975,-0.0003425904
54.19975,-0.0003421609
54.29974,-0.000341804
54.39974,-0.0003414377
54.49974,-0.0003410591
54.59974,-0.0003407239
54.69974,-0.000340285
54.79974,-0.0003399337
54.89973,-0.0003395485
54.99973,-0.0003391267
55.09973,-0.0003387999
55.19973,-0.0003384251
55.29973,-0.0003379843
55.39973,-0.0003376952
55.49973,-0.0003373082
55.59972,-0.0003368703
55.69972,-0.0003365746
55.79972,-0.0003362544
55.89972,-0.0003358127
55.99972,-0.0003354925
56.09972,-0.0003351535
56.19971,-0.0003347505
56.29971,-0.0003343653
56.39971,-0.0003340959
56.49971,-0.0003337353
56.59971,-0.0003333576
56.69971,-0.0003331015
56.79971,-0.000332705
56.8997,-0.0003323236
56.9997,-0.0003320816
57.0997,-0.00033172
57.1997,-0.0003312698
57.2997,-0.0003310711
57.3997,-0.0003306511
57.49969,-0.0003302904
57.59969,-0.0003299956
57.69969,-0.0003296557
57.79969,-0.0003293581
57.89969,-0.0003290003
57.99969,-0.0003286593
58.09969,-0.0003283664
58.19968,-0.000327986
58.29968,-0.0003276696
58.39968,-0.0003273503
58.49968,-0.0003269774
58.59968,-0.0003267005
58.69968,-0.0003263568
58.79967,-0.0003260149
58.89967,-0.000325771
58.99967,-0.000325416
59.09967,-0.0003250233
59.19967,-0.0003247427
59.29967,-0.0003243782
59.39967,-0.0003239761
59.49966,-0.0003236578
59.59966,-0.0003233442
59.69966,-0.0003229995
59.79966,-0.0003226567
59.89966,-0.0003222951
59.99966,-0.0003220145
60.09966,-0.0003216849
60.19965,-0.0003214146
60.29965,-0.0003212517
60.39965,-0.0003208759
60.49965,-0.0003205284
60.59965,-0.0003202996
60.69965,-0.0003200189
60.79964,-0.000319711
60.89964,-0.0003194595
60.99964,-0.0003191996
61.09964,-0.0003189058
61.19964,-0.0003186261
61.29964,-0.0003183549
61.39964,-0.0003180121
61.49963,-0.0003177155
61.59963,-0.0003174452
61.69963,-0.0003171495
61.79963,-0.0003168189
61.89963,-0.000316495
61.99963,-0.0003161965
62.09962,-0.0003159686
62.19962,-0.0003157312
62.29962,-0.0003154694
62.39962,-0.000315121
62.49962,-0.0003148912
62.59962,-0.0003146078
62.69962,-0.0003143601
62.79961,-0.0003141209
62.89961,-0.0003138129
62.99961,-0.0003136124
63.09961,-0.0003134692
63.19961,-0.000313214
63.29961,-0.000312955
63.3996,-0.0003127281
63.4996,-0.0003124484
63.5996,-0.0003121489
63.6996,-0.0003118033
63.7996,-0.0003114916
63.8996,-0.0003112156
63.9996,-0.000311
64.09959,-0.000310725
64.19959,-0.0003104152
64.29959,-0.0003101562
64.39959,-0.000309884
64.49959,-0.0003095959
64.59959,-0.0003092917
64.69958,-0.0003090845
64.79958,-0.0003087681
64.89958,-0.0003084121
64.99958,-0.0003082021
65.09958,-0.0003078885
65.19958,-0.0003075834
65.29958,-0.0003074704
65.39957,-0.0003071172
65.49957,-0.0003067933
65.59957,-0.0003065371
65.69957,-0.000306215
65.79957,-0.0003059344
65.89957,-0.0003056227
65.99957,-0.000305294
66.09956,-0.0003049964
66.19956,-0.0003047092
66.29956,-0.0003044427
66.39956,-0.0003041357
66.49956,-0.0003038777
66.59956,-0.0003035754
66.69955,-0.0003032373
66.79955,-0.0003029661
66.89955,-0.0003026704
66.99955,-0.0003023426
67.09955,-0.0003020272
67.19955,-0.0003017804
67.29955,-0.0003014536
67.39954,-0.0003011739
67.49954,-0.0003009734
67.59954,-0.0003007238
67.69954,-0.0003004017
67.79954,-0.0003001239
67.89954,-0.0002998301
67.99953,-0.0002995815
68.09953,-0.0002992669
68.19953,-0.0002990098
68.29953,-0.0002987189
68.39953,-0.0002984128
68.49953,-0.0002981642
68.59953,-0.0002978732
68.69952,-0.0002975445
68.79952,-0.0002973515
68.89952,-0.0002970709
68.99952,-0.0002967959
69.09952,-0.0002965096
69.19952,-0.0002962308
69.29951,-0.000295985
69.39951,-0.0002957157
69.49951,-0.0002954623
69.59951,-0.0002951855
69.69951,-0.0002948804
69.79951,-0.0002945894
69.89951,-0.0002943295
69.9995,-0.0002940488
70.0995,-0.0002937973
70.1995,-0.0002935403
70.2995,-0.0002933284
70.3995,-0.0002930478
70.4995,-0.0002927596
70.59949,-0.0002924846
70.69949,-0.0002922567
70.79949,-0.0002920109
70.89949,-0.0002917218
70.99949,-0.0002914647
71.09949,-0.0002912585
71.19949,-0.0002909185
71.29948,-0.0002906557
71.39948,-0.0002904241
71.49948,-0.0002901595
71.59948,-0.0002898694
71.69948,-0.0002896387
71.79948,-0.00028944
71.89948,-0.0002891565
71.99947,-0.0002889992
72.09947,-0.0002887864
72.19947,-0.0002885567
72.29947,-0.0002884549
72.39947,-0.0002884399
72.49947,-0.0002884399
72.59946,-0.0002883683
72.69946,-0.0002883881
72.79946,-0.0002882873
72.89946,-0.000288002
72.99946,-0.0002876733
73.09946,-0.0002875047
73.19946,-0.0002873136
73.29945,-0.0002872288
73.39945,-0.0002870875
73.49945,-0.0002868643
73.59945,-0.0002866318
73.69945,-0.0002863719
73.79945,-0.0002859735
73.89944,-0.0002856618
73.99944,-0.0002853434
74.09944,-0.0002850101
74.19944,-0.0002847304
74.29944,-0.0002844648
74.39944,-0.0002842124
74.49944,-0.0002839582
74.59943,-0.0002837632
74.69943,-0.0002835805
74.79943,-0.000283411
74.89943,-0.0002831398
74.99943,-0.0002829552
75.09943,-0.0002827801
75.19942,-0.0002825032
75.29942,-0.0002822791
75.39942,-0.0002820926
75.49942,-0.000281795
75.59942,-0.0002815059
75.69942,-0.0002812761
75.79942,-0.0002809795
75.89941,-0.0002806621
75.99941,-0.0002804323
76.09941,-0.0002801583
76.19941,-0.0002798682
76.29941,-0.0002797044
76.39941,-0.0002795481
76.4994,-0.0002793653
76.5994,-0.0002791224
76.6994,-0.0002788125
76.7994,-0.0002786251
76.8994,-0.0002783812
76.9994,-0.0002780742
77.0994,-0.0002778435
77.19939,-0.0002777022
77.29939,-0.0002774791
77.39939,-0.0002773096
77.49939,-0.0002771994
77.59939,-0.0002768829
77.69939,-0.000276607
77.79939,-0.0002764912
77.89938,-0.0002761898
77.99938,-0.0002759233
78.09938,-0.0002757971
78.19938,-0.0002755184
78.29938,-0.0002753074
78.39938,-0.0002751021
78.49937,-0.000274845
78.59937,-0.0002746614
78.69937,-0.0002744109
78.79937,-0.0002741981
78.89937,-0.0002739815
78.99937,-0.0002736895
79.09937,-0.000273456
79.19936,-0.0002732064
79.29936,-0.0002729324
79.39936,-0.0002727328
79.49936,-0.0002724907
79.59936,-0.0002723259
79.69936,-0.0002721065
79.79935,-0.0002718974
79.89935,-0.0002716611
79.99935,-0.00027142
80.09935,-0.0002711563
80.19935,-0.0002709105
80.29935,-0.0002706619
80.39935,-0.000270465
80.49934,-0.0002702286
80.59934,-0.0002699687
80.69934,-0.0002697757
80.79934,-0.0002695054
80.89934,-0.0002692832
80.99934,-0.0002691089
81.09933,-0.0002688415
81.19933,-0.0002686277
81.29933,-0.000268477
81.39933,-0.0002682802
81.49933,-0.0002681041
81.59933,-0.0002678998
81.69933,-0.0002677453
81.79932,-0.000267508
81.89932,-0.0002672528
81.99932,-0.000267087
82.09932,-0.0002668591
82.19932,-0.000266651
82.29932,-0.0002664778
82.39931,-0.0002662677
82.49931,-0.0002660304
82.59931,-0.0002658326
82.69931,-0.0002656368
82.79931,-0.0002654456
82.89931,-0.0002652243
82.99931,-0.0002650275
83.0993,-0.0002648165
83.1993,-0.0002645773
83.2993,-0.0002644558
83.3993,-0.0002642214
83.4993,-0.0002640613
83.5993,-0.0002640245
83.6993,-0.0002638079
83.79929,-0.000263532
83.89929,-0.0002633832
83.99929,-0.0002631506
84.09929,-0.0002628964
84.19929,-0.0002626637
84.29929,-0.0002624471
84.39928,-0.0002622748
84.49928,-0.0002620262
84.59928,-0.0002618868
84.69928,-0.0002616966
84.79928,-0.000261495
84.89928,-0.0002613839
84.99928,-0.0002612219
85.09927,-0.0002609686
85.19927,-0.0002607501
85.29927,-0.0002605769
85.39927,-0.0002603951
85.49927,-0.0002601578
85.59927,-0.0002600099
85.69926,-0.0002598131
85.79926,-0.0002596558
85.89926,-0.000259524
85.99926,-0.0002594656
86.09926,-0.0002592904
86.19926,-0.0002590616
86.29926,-0.0002588611
86.39925,-0.0002587377
86.49925,-0.0002585276
86.59925,-0.0002583544
86.69925,-0.0002581707
86.79925,-0.0002580144
86.89925,-0.0002577818
86.99924,-0.0002575482
87.09924,-0.0002573477
87.19924,-0.0002571084
87.29924,-0.0002568787
87.39924,-0.0002566621
87.49924,-0.0002564935
87.59924,-0.0002562562
87.69923,-0.0002560424
87.79923,-0.0002559332
87.89923,-0.0002556563
87.99923,-0.0002554039
88.09923,-0.000255273
88.19923,-0.0002550301
88.29922,-0.0002547965
88.39922,-0.0002546166
88.49922,-0.000254384
88.59922,-0.0002541364
88.69922,-0.0002539678
88.79922,-0.000253754
88.89922,-0.0002535064
88.99921,-0.0002533378
89.09921,-0.0002531748
89.19921,-0.0002529648
89.29921,-0.0002527322
89.39921,-0.0002525816
89.49921,-0.0002523631
89.59921,-0.0002521427
89.6992,-0.0002520373
89.7992,-0.000251863
89.8992,-0.0002516464
89.9992,-0.0002515344
90.0992,-0.0002513498
90.1992,-0.0002511228
90.29919,-0.0002509929
90.39919,-0.000250861
90.49919,-0.0002506491
90.59919,-0.0002504146
90.69919,-0.000250215
90.79919,-0.0002500191
90.89919,-0.0002498665
90.99918,-0.0002497168
91.09918,-0.00024952
91.19918,-0.0002493373
91.29918,-0.0002491169
91.39918,-0.0002489022
91.49918,-0.0002487139
91.59917,-0.0002484813
91.69917,-0.0002483004
91.79917,-0.0002481149
91.89917,-0.0002479388
91.99917,-0.0002478249
92.09917,-0.0002476412
92.19917,-0.0002474454
92.29916,-0.0002472579
92.39916,-0.000247048
92.49916,-0.0002469265
92.59916,-0.0002468021
92.69916,-0.0002466788
92.79916,-0.0002465385
92.89915,-0.000246417
92.99915,-0.0002461561
93.09915,-0.0002459593
93.19915,-0.0002457785
93.29915,-0.0002457625
93.39915,-0.0002455016
93.49915,-0.0002452662
93.59914,-0.0002451447
93.69914,-0.0002449874
93.79914,-0.0002447501
93.89914,-0.0002446004
93.99914,-0.0002444243
94.09914,-0.0002442303
94.19913,-0.0002440457
94.29913,-0.0002438639
94.39913,-0.0002436568
94.49913,-0.0002434515
94.59913,-0.0002433404
94.69913,-0.0002432236
94.79913,-0.0002430136
94.89912,-0.0002428177
94.99912,-0.0002426849
95.09912,-0.0002424909
95.19912,-0.0002424146
95.29912,-0.0002422545
95.39912,-0.0002420003
95.49911,-0.000241907
95.59911,-0.0002417253
95.69911,-0.0002415369
95.79911,-0.0002413354
95.89911,-0.0002411612
95.99911,-0.0002409418
96.09911,-0.0002407223
96.1991,-0.0002406121
96.2991,-0.0002404624
96.3991,-0.0002402854
96.4991,-0.0002401356
96.5991,-0.0002399661
96.6991,-0.0002398315
96.7991,-0.0002396441
96.89909,-0.0002394454
96.99909,-0.0002392626
97.09909,-0.0002391035
97.19909,-0.0002389444
97.29909,-0.0002387748
97.39909,-0.0002386477
97.49908,-0.000238513
97.59908,-0.0002383285
97.69908,-0.0002382013
97.79908,-0.0002381354
97.89908,-0.0002379084
97.99908,-0.0002377276
98.09908,-0.0002377286
98.19907,-0.0002375252
98.29907,-0.000237237
98.39907,-0.0002370816
98.49907,-0.0002369385
98.59907,-0.0002367633
98.69907,-0.000236623
98.79906,-0.0002365071
98.89906,-0.0002363555
98.99906,-0.0002362425
99.09906,-0.0002361822
99.19906,-0.000236202
99.29906,-0.0002360674
99.39906,-0.0002358583
99.49905,-0.0002357199
99.59905,-0.0002355645
99.69905,-0.0002353856
99.79905,-0.0002352255
99.89905,-0.0002351219
99.99905,-0.0002350767
100.099,-0.0002348384
100.199,-0.0002347056
100.299,-0.0002345549
100.399,-0.0002343308
100.499,-0.0002342009
100.599,-0.0002340078
100.699,-0.0002339635
100.799,-0.0002338308
100.899,-0.0002336471
100.999,-0.0002337177
101.099,-0.000233649
101.199,-0.0002335162
101.299,-0.0002334503
101.399,-0.000233358
101.499,-0.0002331904
101.599,-0.0002329907
101.699,-0.0002327543
101.799,-0.0002325801
101.899,-0.0002323805
101.999,-0.0002322298
102.099,-0.0002320443
102.199,-0.0002317976
102.299,-0.0002316356
102.399,-0.000231435
102.499,-0.0002311722
102.599,-0.0002309952
102.699,-0.0002308351
102.799,-0.0002306383
102.899,-0.0002304886
102.999,-0.0002302861
103.099,-0.0002300553
103.199,-0.0002298858
103.299,-0.0002297022
103.399,-0.0002294903
103.499,-0.0002293029
103.599,-0.0002291306
103.699,-0.0002289658
103.799,-0.0002287671
103.899,-0.0002286371
103.999,-0.0002284497
104.099,-0.000228284
104.199,-0.0002281455
104.299,-0.0002279327
104.399,-0.0002277641
104.499,-0.00022767
104.599,-0.0002274627
104.699,-0.0002273064
104.799,-0.0002271755
104.899,-0.0002270493
104.999,-0.0002268864
105.099,-0.0002267583
105.199,-0.0002266491
105.299,-0.0002265191
105.399,-0.0002263459
105.499,-0.0002262602
105.599,-0.0002260341
105.699,-0.00022581
105.799,-0.0002256697
105.899,-0.0002255247
105.999,-0.0002253279
106.099,-0.0002252233
106.199,-0.0002250576
106.299,-0.0002248815
106.3989,-0.0002247233
106.4989,-0.0002245556
106.5989,-0.0002243758
106.6989,-0.0002242016
106.7989,-0.0002240226
106.8989,-0.0002238766
106.9989,-0.0002237288
107.0989,-0.0002235612
107.1989,-0.0002234077
107.2989,-0.0002232156
107.3989,-0.0002231138
107.4989,-0.000222949
107.5989,-0.0002227795
107.6989,-0.0002226778
107.7989,-0.0002225017
107.8989,-0.0002223793
107.9989,-0.0002222559
108.0989,-0.0002220968
108.1989,-0.0002220195
108.2989,-0.0002218755
108.3989,-0.0002217502
108.4989,-0.0002215929
108.5989,-0.0002214818
108.6989,-0.000221301
108.7989,-0.0002211513
108.8989,-0.0002210562
108.9989,-0.0002211343
109.0989,-0.0002210006
109.1989,-0.0002210298
109.2989,-0.0002211249
109.3989,-0.0002210599
109.4989,-0.000220913
109.5989,-0.0002207849
109.6989,-0.0002206201
109.7989,-0.0002204704
109.8989,-0.0002203885
109.9989,-0.0002203329
110.0989,-0.0002201907
110.1989,-0.0002199468
110.2989,-0.0002198055
110.3989,-0.000219653
110.4989,-0.0002194025
110.5989,-0.0002192132
110.6989,-0.0002190343
110.7989,-0.0002187979
110.8989,-0.0002186472
110.9989,-0.0002184918
111.0989,-0.0002183185
111.1989,-0.0002181349
111.2989,-0.0002179353
111.3989,-0.0002177902
111.4989,-0.0002176254
111.5989,-0.0002174889
111.6989,-0.0002173128
111.7989,-0.0002171188
111.8989,-0.0002169625
111.9989,-0.0002167713
112.0989,-0.0002166451
112.1989,-0.0002164869
112.2989,-0.0002163334
112.3989,-0.000216113
112.4989,-0.0002159962
112.5989,-0.0002158041
112.6989,-0.0002156497
112.7989,-0.0002155188
112.8988,-0.0002153822
112.9988,-0.000215225
113.0988,-0.0002151035
113.1988,-0.0002149641
113.2988,-0.0002148445
113.3988,-0.0002147145
113.4988,-0.0002146354
113.5988,-0.0002144424
113.6988,-0.0002142653
113.7988,-0.0002141712
113.8988,-0.0002139838
113.9988,-0.0002137916
114.0988,-0.0002136899
114.1988,-0.0002135195
114.2988,-0.0002133481
114.3988,-0.0002132247
114.4988,-0.0002130703
114.5988,-0.0002129017
114.6988,-0.000212736
114.7988,-0.000212638
114.8988,-0.0002124544
114.9988,-0.000212267
115.0988,-0.0002122058
115.1988,-0.0002120457
115.2988,-0.0002118988
115.3988,-0.0002118583
115.4988,-0.0002117971
115.5988,-0.0002116407
115.6988,-0.0002114515
115.7988,-0.0002113676
115.8988,-0.0002112122
115.9988,-0.0002110484
116.0988,-0.0002109175
116.1988,-0.0002107706
116.2988,-0.0002106406
116.3988,-0.0002105135
116.4988,-0.0002103204
116.5988,-0.000210165
116.6988,-0.0002100643
116.7988,-0.0002098778
116.8988,-0.0002096791
116.9988,-0.0002096151
117.0988,-0.000209487
117.1988,-0.000209261
117.2988,-0.0002091338
117.3988,-0.0002090679
117.4988,-0.0002089276
117.5988,-0.0002087958
117.6988,-0.0002086573
117.7988,-0.0002085114
117.8988,-0.0002083842
117.9988,-0.0002083079
118.0988,-0.000208177
118.1988,-0.0002080235
118.2988,-0.0002080113
118.3988,-0.0002078145
118.4988,-0.0002076214
118.5988,-0.0002075706
118.6988,-0.0002074416
118.7988,-0.0002073606
118.8988,-0.0002073813
118.9988,-0.0002072805
119.0988,-0.0002071731
119.1988,-0.0002071741
119.2988,-0.0002071016
119.3988,-0.0002069255
119.4987,-0.000206771
119.5987,-0.0002066835
119.6987,-0.0002065168
119.7987,-0.0002063472
119.8987,-0.0002062493
119.9987,-0.0002060704
120.0987,-0.0002058868
120.1987,-0.0002058095
120.2987,-0.0002056372
120.3987,-0.0002054338
120.4987,-0.000205285
120.5987,-0.0002051673
120.6987,-0.0002049686
120.7987,-0.0002048066
120.8987,-0.0002046465
120.9987,-0.0002044902
121.0987,-0.0002043677
121.1987,-0.0002042359
121.2987,-0.0002040843
121.3987,-0.0002039148
121.4987,-0.0002038074
121.5987,-0.0002036878
121.6987,-0.0002035192
121.7987,-0.0002034721
121.8987,-0.0002033413
121.9987,-0.0002031614
122.0987,-0.0002030484
122.1987,-0.0002029043
122.2987,-0.0002027432
122.3987,-0.0002026406
122.4987,-0.000202473
122.5987,-0.0002023327
122.6987,-0.0002022178
122.7987,-0.0002021085
122.8987,-0.000201972
122.9987,-0.0002018222
123.0987,-0.0002017168
123.1987,-0.0002015858
123.2987,-0.0002014757
123.3987,-0.0002014211
123.4987,-0.0002013467
123.5987,-0.0002011941
123.6987,-0.0002011649
123.7987,-0.0002011065
123.8987,-0.0002009662
123.9987,-0.0002008635
124.0987,-0.0002007618
124.1987,-0.0002006517
124.2987,-0.0002004972
124.3987,-0.0002003465
124.4987,-0.0002002561
124.5987,-0.0002001572
124.6987,-0.0002000744
124.7987,-0.0001999699
124.8987,-0.0001998032
124.9987,-0.0001997024
125.0987,-0.0001995254
125.1987,-0.0001993436
125.2987,-0.0001992249
125.3987,-0.0001991336
125.4987,-0.0001990121
125.5987,-0.0001988436
125.6987,-0.0001987607
125.7987,-0.0001986533
125.8987,-0.0001985121
125.9986,-0.000198465
126.0986,-0.0001983312
126.1986,-0.0001982098
126.2986,-0.0001981438
126.3986,-0.000197996
126.4986,-0.0001977907
126.5986,-0.0001977125
126.6986,-0.0001975477
126.7986,-0.0001973858
126.8986,-0.0001972652
126.9986,-0.0001971324
127.0986,-0.000196993
127.1986,-0.0001968433
127.2986,-0.0001967416
127.3986,-0.0001966003
127.4986,-0.0001964581
127.5986,-0.0001963734
127.6986,-0.0001962867
127.7986,-0.0001961587
127.8986,-0.0001960927
127.9986,-0.000195959
128.0986,-0.0001957773
128.1986,-0.0001956558
128.2986,-0.00019549
128.3986,-0.0001953648
128.4986,-0.0001952442
128.5986,-0.0001950964
128.6987,-0.0001949551
128.7987,-0.0001948836
128.8987,-0.0001947527
128.9987,-0.000194618
129.0987,-0.0001944805
129.1987,-0.000194392
129.2987,-0.0001942592
129.3987,-0.0001941772
129.4987,-0.0001941019
129.5987,-0.000194004
129.6987,-0.0001938138
129.7987,-0.0001937083
129.8987,-0.0001935764
129.9987,-0.0001934116
130.0987,-0.0001933043
130.1987,-0.0001931771
130.2988,-0.0001930265
130.3988,-0.0001928871
130.4988,-0.0001928061
130.5988,-0.0001926347
130.6988,-0.0001925142
130.7988,-0.0001924369
130.8988,-0.0001923296
130.9988,-0.0001921893
131.0988,-0.0001920697
131.1988,-0.0001919887
131.2988,-0.0001918154
131.3988,-0.0001916732
131.4988,-0.0001915687
131.5988,-0.0001914566
131.6988,-0.0001913464
131.7988,-0.000191224
131.8988,-0.0001911082
131.9989,-0.0001909848
132.0989,-0.0001908605
132.1989,-0.0001907767
132.2989,-0.0001906477
132.3989,-0.0001905017
132.4989,-0.0001903858
132.5989,-0.0001902465
132.6989,-0.0001901476
132.7989,-0.000189996
132.8989,-0.0001898274
132.9989,-0.0001897492
133.0989,-0.0001896174
133.1989,-0.0001894677
133.2989,-0.0001893396
133.3989,-0.0001892482
133.4989,-0.0001891183
133.599,-0.0001889723
133.699,-0.0001888612
133.799,-0.0001887369
133.899,-0.0001886163
133.999,-0.0001884798
134.099,-0.0001883414
134.199,-0.0001882792
134.299,-0.0001881709
134.399,-0.0001880777
134.499,-0.0001879496
134.599,-0.00018791
134.699,-0.0001878272
134.799,-0.0001876868
134.899,-0.0001875786
134.999,-0.0001875145
135.099,-0.0001873205
135.1991,-0.0001872273
135.2991,-0.0001871124
135.3991,-0.0001869683
135.4991,-0.0001868581
135.5991,-0.0001867404
135.6991,-0.0001865926
135.7991,-0.000186456
135.8991,-0.0001863628
135.9991,-0.0001862526
136.0991,-0.0001861076
136.1991,-0.0001860106
136.2991,-0.0001858721
136.3991,-0.0001857582
136.4991,-0.0001856631
136.5991,-0.0001855001
136.6991,-0.0001853579
136.7991,-0.000185276
136.8992,-0.0001851508
136.9992,-0.0001850594
137.0992,-0.0001849342
137.1992,-0.0001847948
137.2992,-0.0001847025
137.3992,-0.0001846394
137.4992,-0.0001846121
137.5992,-0.0001844784
137.6992,-0.0001843964
137.7992,-0.0001843738
137.8992,-0.0001842552
137.9992,-0.0001841073
138.0992,-0.0001839962
138.1992,-0.0001838352
138.2992,-0.0001837109
138.3992,-0.0001836666
138.4993,-0.0001835357
138.5993,-0.0001833841
138.6993,-0.0001833596
138.7993,-0.0001832767
138.8993,-0.0001831816
138.9993,-0.0001830677
139.0993,-0.0001830507
139.1993,-0.0001830064
139.2993,-0.0001829113
139.3993,-0.0001829886
139.4993,-0.0001829377
139.5993,-0.0001828021
139.6993,-0.0001827993
139.7993,-0.0001827089
139.8993,-0.0001826147
139.9993,-0.000182512
140.0993,-0.000182415
140.1994,-0.0001823086
140.2994,-0.0001821928
140.3994,-0.0001820741
140.4994,-0.0001819752
140.5994,-0.000181834
140.6994,-0.0001817944
140.7994,-0.0001816513
140.8994,-0.0001814987
140.9994,-0.0001813923
141.0994,-0.0001812172
141.1994,-0.0001810524
141.2994,-0.0001809271
141.3994,-0.0001808235
141.4994,-0.000180719
141.5994,-0.000180573
141.6994,-0.0001804685
141.7995,-0.0001804261
141.8995,-0.0001802547
141.9995,-0.0001800993
142.0995,-0.000180024
142.1995,-0.0001798582
142.2995,-0.0001797208
142.3995,-0.0001795917
142.4995,-0.0001794881
142.5995,-0.0001793525
142.6995,-0.0001792018
142.7995,-0.0001790992
142.8995,-0.0001790135
142.9995,-0.0001788704
143.0995,-0.0001787696
143.1995,-0.0001786651
143.2995,-0.0001785587
143.3996,-0.0001784428
143.4996,-0.0001783072
143.5996,-0.0001782093
143.6996,-0.0001781094
143.7996,-0.0001779183
143.8996,-0.0001778693
143.9996,-0.0001777563
144.0996,-0.0001775632
144.1996,-0.0001774964
144.2996,-0.000177357
144.3996,-0.0001772035
144.4996,-0.0001770933
144.5996,-0.000176985
144.6996,-0.0001768325
144.7996,-0.0001767364
144.8996,-0.0001766601
144.9996,-0.0001765236
145.0997,-0.000176452
145.1997,-0.0001764934
145.2997,-0.0001763955
145.3997,-0.0001762326
145.4997,-0.0001761478
145.5997,-0.000176
145.6997,-0.000175822
145.7997,-0.0001756892
145.8997,-0.0001755743
145.9997,-0.0001754415
146.0997,-0.0001753408
146.1997,-0.0001752117
146.2997,-0.0001751091
146.3997,-0.0001749641
146.4997,-0.0001748605
146.5997,-0.0001747578
146.6998,-0.0001746448
146.7998,-0.000174594
146.8998,-0.0001745017
146.9998,-0.0001744527
147.0998,-0.0001744932
147.1998,-0.0001744668
147.2998,-0.0001743086
147.3998,-0.0001742559
147.4998,-0.0001742352
147.5998,-0.0001740854
147.6998,-0.0001739592
147.7998,-0.0001738726
147.8998,-0.0001737511
147.9998,-0.0001736108
148.0998,-0.0001735166
148.1998,-0.0001734319
148.2999,-0.0001733104
148.3999,-0.0001732482
148.4999,-0.0001732228
148.5999,-0.0001730693
148.6999,-0.000172929
148.7999,-0.000172816
148.8999,-0.000172686
148.9999,-0.0001725739
149.0999,-0.0001725608
149.1999,-0.0001725099
149.2999,-0.0001724308
149.3999,-0.0001724214
149.4999,-0.000172299
149.5999,-0.0001720758
149.6999,-0.0001719421
149.7999,-0.0001718375
149.8999,-0.0001716925
150,-0.0001715785
150.1,-0.0001714825
150.2,-0.0001713375
150.3,-0.0001712141
150.4,-0.0001711642
150.5,-0.0001709937
150.6,-0.0001708412
150.7,-0.0001707554
150.8,-0.0001706227
150.9,-0.0001704682
151,-0.000170407
151.1,-0.0001702337
151.2,-0.000170133
151.3,-0.0001700802
151.4,-0.0001699833
151.5,-0.0001698533
151.6001,-0.0001697657
151.7001,-0.0001696301
151.8001,-0.0001694992
151.9001,-0.0001693824
152.0001,-0.000169309
152.1001,-0.0001691404
152.2001,-0.0001690575
152.3001,-0.0001689897
152.4001,-0.0001688268
152.5001,-0.0001687138
152.6001,-0.0001686403
152.7001,-0.0001684944
152.8001,-0.0001683314
152.9001,-0.00016829
153.0001,-0.00016821
153.1001,-0.0001680781
153.2001,-0.0001679896
153.3002,-0.0001679472
153.4002,-0.0001677739
153.5002,-0.0001676892
153.6002,-0.0001675564
153.7002,-0.0001674104
153.8002,-0.0001673323
153.9002,-0.000167208
154.0002,-0.0001671063
154.1002,-0.0001670337
154.2002,-0.0001670243
154.3002,-0.0001668661
154.4002,-0.000166755
154.5002,-0.0001666533
154.6002,-0.000166528
154.7002,-0.0001663962
154.8002,-0.000166351
154.9003,-0.0001663237
155.0003,-0.0001662408
155.1003,-0.0001662983
155.2003,-0.0001662898
155.3003,-0.000166125
155.4003,-0.0001660751
155.5003,-0.0001661353
155.6003,-0.0001660355
155.7003,-0.0001659187
155.8003,-0.000165849
155.9003,-0.000165736
156.0003,-0.0001655806
156.1003,-0.0001655091
156.2003,-0.0001654695
156.3003,-0.000165317
156.4003,-0.0001651993
156.5004,-0.0001651051
156.6004,-0.0001650156
156.7004,-0.0001648706
156.8004,-0.0001647519
156.9004,-0.0001646012
157.0004,-0.0001645024
157.1004,-0.0001643988
157.2004,-0.0001642763
157.3004,-0.0001641746
157.4004,-0.0001641021
157.5004,-0.0001640974
157.6004,-0.0001639515
157.7004,-0.0001638865
157.8004,-0.0001638337
157.9004,-0.0001637301
158.0004,-0.000163619
158.1004,-0.0001634844
158.2005,-0.0001633337
158.3005,-0.0001632009
158.4005,-0.0001631001
158.5005,-0.0001629749
158.6005,-0.0001628251
158.7005,-0.0001627244
158.8005,-0.0001626114
158.9005,-0.0001625002
159.0005,-0.0001623599
159.1005,-0.0001622582
159.2005,-0.0001622215
159.3005,-0.0001621452
159.4005,-0.0001620576
159.5005,-0.0001620576
159.6005,-0.0001619107
159.7005,-0.0001617563
159.8006,-0.0001616357
159.9006,-0.0001615491
160.0006,-0.0001615538
160.1006,-0.000161584
160.2006,-0.000161535
160.3006,-0.0001616508
160.4006,-0.0001617798
160.5006,-0.0001617949
160.6006,-0.0001619192
160.7006,-0.0001619512
160.8006,-0.0001618373
160.9006,-0.000161632
161.0006,-0.0001614954
161.1006,-0.0001613052
161.2006,-0.0001611517
161.3006,-0.0001610528
161.4007,-0.0001609351
161.5007,-0.0001608127
161.6007,-0.0001606968
161.7007,-0.0001605848
161.8007,-0.000160452
161.9007,-0.0001602975
162.0007,-0.000160161
162.1007,-0.0001600517
162.2007,-0.0001599246
162.3007,-0.0001598088
162.4007,-0.0001597014
162.5007,-0.0001596251
162.6007,-0.0001594726
162.7007,-0.0001593408
162.8007,-0.0001592353
162.9007,-0.0001590667
163.0007,-0.0001589443
163.1008,-0.0001588331
163.2008,-0.000158706
163.3008,-0.0001586118
163.4008,-0.00015848
163.5008,-0.0001583858
163.6008,-0.0001582653
163.7008,-0.0001581165
163.8008,-0.0001580704
163.9008,-0.0001580091
164.0008,-0.0001578811
164.1008,-0.0001577313
164.2008,-0.0001577558
164.3008,-0.0001576372
164.4008,-0.0001574761
164.5008,-0.0001574403
164.6008,-0.0001573942
164.7009,-0.0001571898
164.8009,-0.000157138
164.9009,-0.0001571456
165.0009,-0.0001569855
165.1009,-0.0001568207
165.2009,-0.0001567293
165.3009,-0.0001565928
165.4009,-0.000156428
165.5009,-0.0001563639
165.6009,-0.000156282
165.7009,-0.0001561191
165.8009,-0.0001560174
165.9009,-0.0001559514
166.0009,-0.000155781
166.1009,-0.0001556661
166.2009,-0.0001556002
166.3009,-0.0001554486
166.401,-0.0001553478
166.501,-0.0001553233
166.601,-0.0001552339
166.701,-0.0001551651
166.801,-0.0001549909
166.901,-0.0001549297
167.001,-0.0001548138
167.101,-0.0001547055
167.201,-0.0001546236
167.301,-0.0001545803
167.401,-0.0001544974
167.501,-0.0001543872
167.601,-0.0001542733
167.701,-0.0001541527
167.801,-0.0001540247
167.901,-0.0001539088
168.0011,-0.0001538213
168.1011,-0.0001537007
168.2011,-0.0001535868
168.3011,-0.000153502
168.4011,-0.000153421
168.5011,-0.0001533513
168.6011,-0.0001532958
168.7011,-0.0001532713
168.8011,-0.0001532393
168.9011,-0.0001531093
169.0011,-0.0001529473
169.1011,-0.0001528437
169.2011,-0.0001527251
169.3011,-0.0001526083
169.4011,-0.0001525235
169.5011,-0.0001524096
169.6012,-0.0001523164
169.7012,-0.0001522429
169.8012,-0.0001522015
169.9012,-0.0001521252
170.0012,-0.0001520762
170.1012,-0.0001520743
170.2012,-0.00015195
170.3012,-0.0001518163
170.4012,-0.0001517344
170.5012,-0.0001515856
170.6012,-0.0001514358
170.7012,-0.0001513473
170.8012,-0.0001512889
170.9012,-0.0001511712
171.0012,-0.0001510365
171.1012,-0.0001509669
171.2012,-0.0001508633
171.3013,-0.0001507409
171.4013,-0.000150657
171.5013,-0.0001505374
171.6013,-0.0001504103
171.7013,-0.0001503434
171.8013,-0.0001502342
171.9013,-0.0001501231
172.0013,-0.0001500543
172.1013,-0.0001499611
172.2013,-0.0001498443
172.3013,-0.0001497699
172.4013,-0.0001497097
172.5013,-0.0001495966
172.6013,-0.0001495279
172.7013,-0.0001495712
172.8013,-0.0001495166
172.9014,-0.0001493895
173.0014,-0.000149333
173.1014,-0.0001492152
173.2014,-0.0001490636
173.3014,-0.0001489431
173.4014,-0.0001488527
173.5014,-0.0001487689
173.6014,-0.0001486785
173.7014,-0.0001485447
173.8014,-0.0001484977
173.9014,-0.0001484148
174.0014,-0.0001483018
174.1014,-0.0001481878
174.2014,-0.0001481125
174.3014,-0.0001480164
174.4014,-0.0001479025
174.5014,-0.0001477904
174.6015,-0.0001477414
174.7015,-0.0001476652
174.8015,-0.0001475813
174.9015,-0.0001475634
175.0015,-0.0001474919
175.1015,-0.0001473732
175.2015,-0.0001472527
175.3015,-0.0001471679
175.4015,-0.0001470596
175.5015,-0.0001469476
175.6015,-0.0001468619
175.7015,-0.0001467507
175.8015,-0.0001466697
175.9015,-0.0001465812
176.0015,-0.0001464786
176.1015,-0.0001463872
176.2016,-0.0001462648
176.3016,-0.0001461772
176.4016,-0.0001460783
176.5016,-0.0001459747
176.6016,-0.0001458721
176.7016,-0.0001457581
176.8016,-0.0001457073
176.9016,-0.000145615
177.0016,-0.0001454907
177.1016,-0.0001454389
177.2016,-0.0001453645
177.3016,-0.0001452995
177.4016,-0.0001452562
177.5016,-0.0001451828
177.6016,-0.0001450481
177.7016,-0.00014492
177.8017,-0.0001448381
177.9017,-0.0001447495
178.0017,-0.0001446281
178.1017,-0.0001445282
178.2017,-0.0001444473
178.3017,-0.0001443691
178.4017,-0.0001442467
178.5017,-0.0001441836
178.6017,-0.0001440536
178.7017,-0.0001439641
178.8017,-0.0001439124
178.9017,-0.0001438012
179.0017,-0.0001436844
179.1017,-0.0001436345
179.2017,-0.000143547
179.3017,-0.0001434264
179.4017,-0.0001433624
179.5018,-0.0001433087
179.6018,-0.0001431731
179.7018,-0.0001430799
179.8018,-0.0001430205
179.9018,-0.0001428915
180.0018,-0.000142771
180.1018,-0.0001427361
180.2018,-0.0001426137
180.3018,-0.0001424922
180.4018,-0.0001424574
180.5018,-0.0001423642
180.6018,-0.0001422474
180.7018,-0.0001421645
180.8018,-0.0001420807
180.9018,-0.0001420006
181.0018,-0.0001419291
181.1019,-0.000141866
181.2019,-0.0001417718
181.3019,-0.0001416484
181.4019,-0.0001415608
181.5019,-0.0001414686
181.6019,-0.0001413659
181.7019,-0.0001413216
181.8019,-0.0001411889
181.9019,-0.000141105
182.0019,-0.0001410467
182.1019,-0.0001409412
182.2019,-0.0001408451
182.3019,-0.0001408065
182.4019,-0.0001407368
182.5019,-0.0001406182
182.6019,-0.0001405767
182.702,-0.0001404939
182.802,-0.0001403837
182.902,-0.0001403479
183.002,-0.0001403554
183.102,-0.0001402226
183.202,-0.0001402452
183.302,-0.0001403404
183.402,-0.0001402499
183.502,-0.0001401784
183.602,-0.0001401709
183.702,-0.0001401247
183.802,-0.000140006
183.902,-0.0001399081
184.002,-0.0001398026
184.102,-0.0001397254
184.202,-0.0001396124
184.302,-0.0001395352
184.4021,-0.0001394542
184.5021,-0.0001393864
184.6021,-0.0001392979
184.7021,-0.0001391971
184.8021,-0.00013915
184.9021,-0.0001390775
185.0021,-0.0001389645
185.1021,-0.0001388873
185.2021,-0.0001388261
185.3021,-0.0001386857
185.4021,-0.0001386
185.5021,-0.0001385115
185.6021,-0.0001384588
185.7021,-0.0001383222
185.8021,-0.0001382186
185.9021,-0.0001381848
186.0022,-0.0001381009
186.1022,-0.000137971
186.2022,-0.0001378947
186.3022,-0.0001378193
186.4022,-0.0001377111
186.5022,-0.0001376348
186.6022,-0.0001375415
186.7022,-0.0001374295
186.8022,-0.0001373447
186.9022,-0.0001372901
187.0022,-0.0001371818
187.1022,-0.0001370565
187.2022,-0.0001369822
187.3022,-0.0001368965
187.4022,-0.0001367966
187.5022,-0.0001367288
187.6022,-0.000136645
187.7023,-0.0001365301
187.8023,-0.0001364642
187.9023,-0.0001363851
188.0023,-0.0001362476
188.1023,-0.0001361732
188.2023,-0.0001360847
188.3023,-0.000135983
188.4023,-0.0001359227
188.5023,-0.0001358266
188.6023,-0.0001356939
188.7023,-0.0001356195
188.8023,-0.0001355121
188.9023,-0.0001354198
189.0023,-0.000135352
189.1023,-0.0001352607
189.2023,-0.0001351797
189.3024,-0.0001351053
189.4024,-0.000135045
189.5024,-0.0001349537
189.6024,-0.0001348727
189.7024,-0.0001348604
189.8024,-0.0001347484
189.9024,-0.0001346175
190.0024,-0.000134576
190.1024,-0.0001344715
190.2024,-0.0001343462
190.3024,-0.0001342502
190.4024,-0.0001341965
190.5024,-0.0001340901
190.6024,-0.0001340072
190.7024,-0.0001339309
190.8024,-0.0001338725
190.9025,-0.0001337567
191.0025,-0.0001336936
191.1025,-0.0001336164
191.2025,-0.0001334864
191.3025,-0.0001334544
191.4025,-0.0001333904
191.5025,-0.0001332746
191.6025,-0.0001331794
191.7025,-0.0001331135
191.8025,-0.0001330165
191.9025,-0.0001329054
192.0025,-0.0001328404
192.1025,-0.0001327736
192.2025,-0.0001326417
192.3025,-0.0001325975
192.4025,-0.0001325296
192.5025,-0.0001324053
192.6026,-0.0001323394
192.7026,-0.00013225
192.8026,-0.0001321737
192.9026,-0.0001321021
193.0026,-0.0001320211
193.1026,-0.00013199
193.2026,-0.0001319156
193.3026,-0.0001318478
193.4026,-0.000131732
193.5026,-0.0001316604
193.6026,-0.0001315747
193.7026,-0.0001314947
193.8026,-0.0001314532
193.9026,-0.0001314118
194.0026,-0.0001312753
194.1026,-0.0001312112
194.2027,-0.0001311604
194.3027,-0.0001310455
194.4027,-0.0001309419
194.5027,-0.000130924
194.6027,-0.0001307997
194.7027,-0.0001307149
194.8027,-0.0001306688
194.9027,-0.0001306339
195.0027,-0.0001305266
195.1027,-0.0001304013
195.2027,-0.0001303599
195.3027,-0.0001302394
195.4027,-0.0001301461
195.5027,-0.0001300972
195.6027,-0.0001300284
195.7027,-0.0001299625
195.8027,-0.00012989
195.9028,-0.0001298306
196.0028,-0.0001297271
196.1028,-0.0001296527
196.2028,-0.0001295679
196.3028,-0.0001294756
196.4028,-0.0001294379
196.5028,-0.000129421
196.6028,-0.0001292741
196.7028,-0.0001291855
196.8028,-0.0001291309
196.9028,-0.0001290151
197.0028,-0.0001289124
197.1028,-0.0001288757
197.2028,-0.0001287655
197.3028,-0.0001286714
197.4028,-0.0001286431
197.5029,-0.000128581
197.6029,-0.0001285066
197.7029,-0.000128451
197.8029,-0.0001283841
197.9029,-0.0001282871
198.0029,-0.000128289
198.1029,-0.0001283389
198.2029,-0.0001282457
198.3029,-0.0001281591
198.4029,-0.0001281732
198.5029,-0.0001280894
198.6029,-0.0001279811
198.7029,-0.0001279764
198.8029,-0.0001279057
198.9029,-0.0001278153
199.0029,-0.0001278116
199.103,-0.0001277513
199.203,-0.0001276543
199.303,-0.0001275808
199.403,-0.000127529
199.503,-0.0001274217
199.603,-0.0001273558
199.703,-0.0001273266
199.803,-0.0001272343
199.903,-0.0001271392
200.003,-0.0001271194
200.103,-0.0001270252
200.203,-0.0001269066
200.303,-0.0001268538
200.403,-0.000126786
200.503,-0.0001266749
200.603,-0.0001265675
200.703,-0.0001265214
200.8031,-0.0001264254
200.9031,-0.0001263349
201.0031,-0.0001262709
201.1031,-0.0001261617
201.2031,-0.000126075
201.3031,-0.0001260044
201.4031,-0.0001259441
201.5031,-0.0001258179
201.6031,-0.0001257812
201.7031,-0.0001256804
201.8031,-0.0001255684
201.9031,-0.0001255109
202.0031,-0.0001254676
202.1031,-0.0001253838
202.2031,-0.0001252887
202.3031,-0.0001252463
202.4032,-0.0001251465
202.5032,-0.0001250561
202.6032,-0.000124993
202.7032,-0.0001249205
202.8032,-0.0001248432
202.9032,-0.000124799
203.0032,-0.0001246991
203.1032,-0.0001245748
203.2032,-0.0001245183
203.3032,-0.0001244411
203.4032,-0.0001243319
203.5032,-0.0001242499
203.6032,-0.0001241859
203.7032,-0.0001241068
203.8032,-0.0001239994
203.9032,-0.0001239335
204.0033,-0.0001238459
204.1033,-0.0001237584
204.2033,-0.0001236435
204.3033,-0.0001236067
204.4033,-0.0001234758
204.5033,-0.0001234014
204.6033,-0.0001233242
204.7033,-0.0001232413
204.8033,-0.0001231971
204.9033,-0.0001231123
205.0033,-0.0001230248
205.1033,-0.0001229522
205.2033,-0.0001228967
205.3033,-0.0001228147
205.4033,-0.0001227281
205.5033,-0.0001226744
205.6033,-0.0001226452
205.7034,-0.0001225445
205.8034,-0.0001224701
205.9034,-0.0001223731
206.0034,-0.0001223222
206.1034,-0.0001223081
206.2034,-0.0001222751
206.3034,-0.0001222299
206.4034,-0.0001222252
206.5034,-0.0001221555
206.6034,-0.0001220435
206.7034,-0.0001219606
206.8034,-0.0001218495
206.9034,-0.0001217374
207.0034,-0.0001216574
207.1034,-0.0001215896
207.2034,-0.0001214822
207.3035,-0.0001214313
207.4035,-0.0001213598
207.5035,-0.0001212571
207.6035,-0.0001211808
207.7035,-0.0001211545
207.8035,-0.0001210754
207.9035,-0.0001209765
208.0035,-0.0001209209
208.1035,-0.0001208776
208.2035,-0.0001207523
208.3035,-0.0001206751
208.4035,-0.0001206149
208.5035,-0.0001205226
208.6035,-0.0001204745
208.7035,-0.0001204049
208.8035,-0.0001203305
208.9035,-0.0001202429
209.0036,-0.0001202014
209.1036,-0.0001201195
209.2036,-0.00012003
209.3036,-0.0001200159
209.4036,-0.0001199453
209.5036,-0.0001198389
209.6036,-0.0001197861
209.7036,-0.0001197033
209.8036,-0.0001196637
209.9036,-0.000119626
210.0036,-0.0001195046
210.1036,-0.000119449
210.2036,-0.0001194123
210.3036,-0.000119351
210.4036,-0.0001192484
210.5036,-0.0001192399
210.6037,-0.0001191947
210.7037,-0.0001190874
210.8037,-0.0001190384
210.9037,-0.0001190384
211.0037,-0.0001189621
211.1037,-0.0001189094
211.2037,-0.0001189301
211.3037,-0.0001188736
211.4037,-0.0001187587
211.5037,-0.0001186683
211.6037,-0.0001185544
211.7037,-0.000118431
211.8037,-0.0001183764
211.9037,-0.0001183255
212.0037,-0.0001182549
212.1037,-0.0001181908
212.2038,-0.0001181843
212.3038,-0.0001180722
212.4038,-0.0001179742
212.5038,-0.0001179545
212.6038,-0.0001178848
212.7038,-0.0001177661
212.8038,-0.0001177445
212.9038,-0.0001176804
213.0038,-0.0001175787
213.1038,-0.0001175853
213.2038,-0.0001175721
213.3038,-0.0001175307
213.4038,-0.0001175288
213.5038,-0.0001176588
213.6038,-0.0001175834
213.7038,-0.000117478
213.8038,-0.0001174422
213.9039,-0.0001173697
214.0039,-0.0001172096
214.1039,-0.0001171314
214.2039,-0.0001170495
214.3039,-0.0001169609
214.4039,-0.0001168847
214.5039,-0.0001168329
214.6039,-0.0001167443
214.7039,-0.0001166483
214.8039,-0.000116588
214.9039,-0.0001165183
215.0039,-0.0001164336
215.1039,-0.0001163479
215.2039,-0.0001162772
215.3039,-0.0001162
215.4039,-0.0001160823
215.504,-0.0001160352
215.604,-0.0001159345
215.704,-0.000115829
215.804,-0.0001157452
215.904,-0.000115683
216.004,-0.0001155935
216.104,-0.0001154975
216.204,-0.0001154137
216.304,-0.0001153609
216.404,-0.0001152781
216.504,-0.000115182
216.604,-0.0001151142
216.704,-0.0001150294
216.804,-0.0001149438
216.904,-0.0001148722
217.004,-0.0001148307
217.104,-0.0001147978
217.2041,-0.0001147648
217.3041,-0.0001147187
217.4041,-0.000114648
217.5041,-0.0001145642
217.6041,-0.0001144945
217.7041,-0.0001144795
217.8041,-0.00011439
217.9041,-0.0001143043
218.0041,-0.0001143231
218.1041,-0.0001143213
218.2041,-0.0001141988
218.3041,-0.0001141395
218.4041,-0.0001141226
218.5041,-0.0001140171
218.6041,-0.0001139229
218.7041,-0.0001138485
218.8042,-0.0001137722
218.9042,-0.0001136545
219.0042,-0.0001135669
219.1042,-0.0001135368
219.2042,-0.0001134662
219.3042,-0.0001133456
219.4042,-0.000113307
219.5042,-0.0001132204
219.6042,-0.0001131243
219.7042,-0.0001130707
219.8042,-0.000113001
219.9042,-0.00011292
220.0042,-0.0001128691
220.1042,-0.0001127787
220.2042,-0.0001126921
220.3042,-0.0001126911
220.4043,-0.0001126403
220.5043,-0.0001125706
220.6043,-0.0001125028
220.7043,-0.0001124387
220.8043,-0.0001123493
220.9043,-0.0001122608
221.0043,-0.0001121967
221.1043,-0.0001120705
221.2043,-0.0001120329
221.3043,-0.0001119434
221.4043,-0.000111837
221.5043,-0.0001118012
221.6043,-0.000111756
221.7043,-0.0001116449
221.8043,-0.0001116336
221.9043,-0.0001116477
222.0043,-0.0001116392
222.1044,-0.0001117343
222.2044,-0.0001117051
222.3044,-0.0001115921
222.4044,-0.0001116091
222.5044,-0.0001114951
222.6044,-0.0001113624
222.7044,-0.000111336
222.8044,-0.0001112249
222.9044,-0.0001111429
223.0044,-0.0001110732
223.1044,-0.000111029
223.2044,-0.0001109499
223.3044,-0.0001108783
223.4044,-0.0001108218
223.5044,-0.0001107756
223.6044,-0.0001106739
223.7045,-0.0001105864
223.8045,-0.00011056
223.9045,-0.000110495
224.0045,-0.0001104074
224.1045,-0.0001103811
224.2045,-0.0001103566
224.3045,-0.0001102502
224.4045,-0.0001101438
224.5045,-0.0001101033
224.6045,-0.0001099921
224.7045,-0.0001099074
224.8045,-0.0001098725
224.9045,-0.000109832
225.0045,-0.0001097397
225.1045,-0.0001097011
225.2045,-0.0001096522
225.3046,-0.0001095693
225.4046,-0.00010959
225.5046,-0.000109509
225.6046,-0.0001094224
225.7046,-0.0001093367
225.8046,-0.0001092764
225.9046,-0.00010917
226.0046,-0.0001090899
226.1046,-0.0001090156
226.2046,-0.0001089496
226.3046,-0.0001088658
226.4046,-0.0001088027
226.5046,-0.0001087104
226.6046,-0.0001086332
226.7046,-0.0001085701
226.8046,-0.0001084938
226.9046,-0.0001084364
227.0047,-0.0001083648
227.1047,-0.0001082942
227.2047,-0.0001082396
227.3047,-0.0001081887
227.4047,-0.0001081388
227.5047,-0.0001080258
227.6047,-0.0001079269
227.7047,-0.0001078789
227.8047,-0.0001078082
227.9047,-0.0001077122
228.0047,-0.0001076293
228.1047,-0.0001075888
228.2047,-0.0001075107
228.3047,-0.0001074334
228.4047,-0.0001073346
228.5047,-0.0001072856
228.6048,-0.0001071924
228.7048,-0.000107117
228.8048,-0.0001070577
228.9048,-0.0001070304
229.0048,-0.0001070031
229.1048,-0.0001069569
229.2048,-0.0001069014
229.3048,-0.000106811
229.4048,-0.0001067488
229.5048,-0.0001067064
229.6048,-0.0001066782
229.7048,-0.0001065652
229.8048,-0.0001065463
229.9048,-0.0001065473
230.0048,-0.0001064192
230.1048,-0.0001063335
230.2048,-0.0001062987
230.3049,-0.0001061809
230.4049,-0.0001061112
230.5049,-0.0001060802
230.6049,-0.0001060726
230.7049,-0.0001059719
230.8049,-0.0001058419
230.9049,-0.0001058231
231.0049,-0.0001057393
231.1049,-0.0001056225
231.2049,-0.0001055594
231.3049,-0.0001054907
231.4049,-0.0001053965
231.5049,-0.0001053277
231.6049,-0.0001052741
231.7049,-0.0001052637
231.8049,-0.0001052006
231.905,-0.0001051422
232.005,-0.0001050622
232.105,-0.0001049972
232.205,-0.000104903
232.305,-0.0001048475
232.405,-0.0001047891
232.505,-0.0001046817
232.605,-0.0001046233
232.705,-0.00010458
232.805,-0.0001045292
232.905,-0.0001044293
233.005,-0.0001043822
233.105,-0.0001043512
233.205,-0.0001042363
233.305,-0.0001041685
233.405,-0.0001041751
233.5051,-0.0001040583
233.6051,-0.0001039603
233.7051,-0.000103918
233.8051,-0.0001038728
233.9051,-0.0001037522
234.0051,-0.0001036891
234.1051,-0.0001036741
234.2051,-0.0001035554
234.3051,-0.0001034791
234.4051,-0.0001034866
234.5051,-0.0001033708
234.6051,-0.0001032908
234.7051,-0.0001032823
234.8051,-0.0001032484
234.9051,-0.0001031693
235.0051,-0.000103094
235.1051,-0.0001030516
235.2052,-0.0001029659
235.3052,-0.000102996
235.4052,-0.0001029404
235.5052,-0.000102867
235.6052,-0.0001029178
235.7052,-0.0001029028
235.8052,-0.0001027493
235.9052,-0.0001027173
236.0052,-0.0001026965
236.1052,-0.0001025647
236.2052,-0.0001024903
236.3052,-0.0001023876
236.4052,-0.0001023038
236.5052,-0.0001022436
236.6052,-0.0001021522
236.7052,-0.0001020919
236.8053,-0.0001020119
236.9053,-0.0001020213
237.0053,-0.0001019526
237.1053,-0.0001018772
237.2053,-0.0001018311
237.3053,-0.0001018094
237.4053,-0.0001016795
237.5053,-0.0001016616
237.6053,-0.0001016032
237.7053,-0.0001014676
237.8053,-0.0001014422
237.9053,-0.0001014101
238.0053,-0.0001013065
238.1053,-0.0001012623
238.2053,-0.000101203
238.3053,-0.000101105
238.4053,-0.0001010438
238.5054,-0.0001010636
238.6054,-0.0001010212
238.7054,-0.0001009722
238.8054,-0.000100895
238.9054,-0.0001008564
239.0054,-0.0001007876
239.1054,-0.0001007839
239.2054,-0.0001007942
239.3054,-0.0001006925
239.4054,-0.0001006699
239.5054,-0.0001007114
239.6054,-0.0001006398
239.7054,-0.0001004637
239.8054,-0.0001004053
239.9054,-0.000100313
240.0054,-0.0001002057
240.1055,-0.000100184
240.2055,-0.0001001689
240.3055,-0.0001000456
240.4055,-9.997681E-05
240.5055,-9.994668E-05
240.6055,-9.983932E-05
240.7055,-9.978094E-05
240.8055,-9.977716E-05
240.9055,-9.967735E-05
241.0055,-9.962838E-05
241.1055,-9.966416E-05
241.2055,-9.966322E-05
241.3055,-9.962084E-05
241.4055,-9.952667E-05
241.5055,-9.951914E-05
241.6055,-9.940707E-05
241.7056,-9.941931E-05
241.8056,-9.942685E-05
241.9056,-9.934962E-05
242.0056,-9.934962E-05
242.1056,-9.935057E-05
242.2056,-9.925922E-05
242.3056,-9.916128E-05
242.4056,-9.904638E-05
242.5056,-9.900966E-05
242.6056,-9.892679E-05
242.7056,-9.88976E-05
242.8056,-9.886934E-05
242.9056,-9.87827E-05
243.0056,-9.875351E-05
243.1056,-9.869417E-05
243.2056,-9.862638E-05
243.3056,-9.851714E-05
243.4057,-9.847287E-05
243.5057,-9.840789E-05
243.6057,-9.837023E-05
243.7057,-9.828735E-05
243.8057,-9.822519E-05
243.9057,-9.816211E-05
244.0057,-9.810089E-05
244.1057,-9.799541E-05
244.2057,-9.79455E-05
244.3057,-9.792478E-05
244.4057,-9.78419E-05
244.5057,-9.776187E-05
244.6057,-9.77289E-05
244.7057,-9.764886E-05
244.8057,-9.758199E-05
244.9057,-9.751513E-05
245.0058,-9.744261E-05
245.1058,-9.735974E-05
245.2058,-9.726745E-05
245.3058,-9.726086E-05
245.4058,-9.723073E-05
245.5058,-9.714221E-05
245.6058,-9.706592E-05
245.7058,-9.703861E-05
245.8058,-9.695104E-05
245.9058,-9.684838E-05
246.0058,-9.680413E-05
246.1058,-9.672973E-05
246.2058,-9.665533E-05
246.3058,-9.659977E-05
246.4058,-9.654702E-05
246.5058,-9.646134E-05
246.6059,-9.639918E-05
246.7059,-9.636057E-05
246.8059,-9.633703E-05
246.9059,-9.635586E-05
247.0059,-9.632007E-05
247.1059,-9.620989E-05
247.2059,-9.614773E-05
247.3059,-9.609782E-05
247.4059,-9.604415E-05
247.5059,-9.6095E-05
247.6059,-9.615433E-05
247.7059,-9.605922E-05
247.8059,-9.608371E-05
247.9059,-9.607051E-05
248.0059,-9.592925E-05
248.1059,-9.585674E-05
248.2059,-9.580683E-05
248.306,-9.569853E-05
248.406,-9.563261E-05
248.506,-9.56166E-05
248.606,-9.554221E-05
248.706,-9.544332E-05
248.806,-9.544897E-05
248.906,-9.538588E-05
249.006,-9.530206E-05
249.106,-9.533219E-05
249.206,-9.530959E-05
249.306,-9.521919E-05
249.406,-9.512125E-05
249.506,-9.508358E-05
249.606,-9.500165E-05
249.706,-9.491971E-05
249.806,-9.489712E-05
249.9061,-9.487546E-05
250.0061,-9.481049E-05
250.1061,-9.473702E-05
250.2061,-9.467958E-05
250.3061,-9.462025E-05
250.4061,-9.456469E-05
250.5061,-9.449123E-05
250.6061,-9.441212E-05
250.7061,-9.43867E-05
250.8061,-9.428029E-05
250.9061,-9.421624E-05
251.0061,-9.416068E-05
251.1061,-9.411548E-05
251.2061,-9.404955E-05
251.3061,-9.395633E-05
251.4061,-9.390359E-05
251.5061,-9.385368E-05
251.6062,-9.377363E-05
251.7062,-9.370677E-05
251.8062,-9.362483E-05
251.9062,-9.358246E-05
252.0062,-9.351278E-05
252.1062,-9.343932E-05
252.2062,-9.335738E-05
252.3062,-9.333291E-05
252.4062,-9.325662E-05
252.5062,-9.318694E-05
252.6062,-9.314926E-05
252.7062,-9.30824E-05
252.8062,-9.299294E-05
252.9062,-9.293267E-05
253.0062,-9.28837E-05
253.1062,-9.281966E-05
253.2063,-9.276316E-05
253.3063,-9.26897E-05
253.4063,-9.264638E-05
253.5063,-9.257952E-05
253.6063,-9.251642E-05
253.7063,-9.248817E-05
253.8063,-9.242696E-05
253.9063,-9.235821E-05
254.0063,-9.228005E-05
254.1063,-9.222071E-05
254.2063,-9.214633E-05
254.3063,-9.206816E-05
254.4063,-9.205309E-05
254.5063,-9.199093E-05
254.6063,-9.190241E-05
254.7063,-9.184779E-05
254.8064,-9.182707E-05
254.9064,-9.174608E-05
255.0064,-9.163401E-05
255.1064,-9.158317E-05
255.2064,-9.156057E-05
255.3064,-9.145226E-05
255.4064,-9.13741E-05
255.5064,-9.135998E-05
255.6064,-9.129028E-05
255.7064,-9.122437E-05
255.8064,-9.118199E-05
255.9064,-9.114244E-05
256.0064,-9.107369E-05
256.1064,-9.103132E-05
256.2064,-9.099553E-05
256.3064,-9.090605E-05
256.4064,-9.092207E-05
256.5064,-9.084955E-05
256.6064,-9.075727E-05
256.7065,-9.071019E-05
256.8065,-9.066497E-05
256.9065,-9.057269E-05
257.0065,-9.050676E-05
257.1065,-9.044744E-05
257.2065,-9.038999E-05
257.3065,-9.032972E-05
257.4065,-9.027227E-05
257.5065,-9.022613E-05
257.6065,-9.015456E-05
257.7065,-9.012443E-05
257.8065,-9.00585E-05
257.9065,-8.998034E-05
258.0065,-8.994173E-05
258.1065,-8.989182E-05
258.2065,-8.979952E-05
258.3065,-8.976374E-05
258.4066,-8.969782E-05
258.5066,-8.963567E-05
258.6066,-8.959328E-05
258.7066,-8.951983E-05
258.8066,-8.94558E-05
258.9066,-8.940023E-05
259.0066,-8.934467E-05
259.1066,-8.927121E-05
259.2066,-8.923261E-05
259.3066,-8.916857E-05
259.4066,-8.908193E-05
259.5066,-8.904991E-05
259.6066,-8.902165E-05
259.7066,-8.893595E-05
259.8066,-8.890959E-05
259.9066,-8.889641E-05
260.0067,-8.885214E-05
260.1067,-8.880129E-05
260.2067,-8.874856E-05
260.3067,-8.871276E-05
260.4067,-8.860447E-05
260.5067,-8.859317E-05
260.6067,-8.858847E-05
260.7067,-8.851218E-05
260.8067,-8.849146E-05
260.9067,-8.841895E-05
261.0067,-8.835774E-05
261.1067,-8.826827E-05
261.2067,-8.820141E-05
261.3067,-8.814396E-05
261.4067,-8.810064E-05
261.5067,-8.803378E-05
261.6068,-8.801966E-05
261.7068,-8.79509E-05
261.8068,-8.789251E-05
261.9068,-8.785203E-05
262.0068,-8.777574E-05
262.1068,-8.775314E-05
262.2068,-8.765802E-05
262.3068,-8.759023E-05
262.4068,-8.756385E-05
262.5068,-8.749699E-05
262.6068,-8.744049E-05
262.7068,-8.73887E-05
262.8068,-8.734538E-05
262.9068,-8.73077E-05
263.0068,-8.725026E-05
263.1068,-8.72399E-05
263.2068,-8.722389E-05
263.3069,-8.714195E-05
263.4069,-8.713819E-05
263.5069,-8.709016E-05
263.6069,-8.699975E-05
263.7069,-8.694797E-05
263.8069,-8.688675E-05
263.9069,-8.680388E-05
264.0069,-8.674832E-05
264.1069,-8.669274E-05
264.2069,-8.663154E-05
264.3069,-8.661648E-05
264.4069,-8.65562E-05
264.5069,-8.648934E-05
264.6069,-8.645638E-05
264.7069,-8.644319E-05
264.8069,-8.639328E-05
264.907,-8.633772E-05
265.007,-8.639987E-05
265.107,-8.638763E-05
265.207,-8.625673E-05
265.307,-8.631324E-05
265.407,-8.629911E-05
265.507,-8.618987E-05
265.607,-8.619081E-05
265.707,-8.616068E-05
265.807,-8.607592E-05
265.907,-8.600717E-05
266.007,-8.595632E-05
266.107,-8.584896E-05
266.207,-8.580847E-05
266.307,-8.578963E-05
266.407,-8.570959E-05
266.507,-8.5622E-05
266.6071,-8.565025E-05
266.7071,-8.556362E-05
266.8071,-8.551936E-05
266.9071,-8.55156E-05
267.0071,-8.550429E-05
267.1071,-8.539882E-05
267.2071,-8.534137E-05
267.3071,-8.534043E-05
267.4071,-8.526415E-05
267.5071,-8.516433E-05
267.6071,-8.515774E-05
267.7071,-8.51389E-05
267.8071,-8.507109E-05
267.9071,-8.502212E-05
268.0071,-8.498068E-05
268.1071,-8.493548E-05
268.2072,-8.484979E-05
268.3072,-8.47914E-05
268.4072,-8.474432E-05
268.5072,-8.46944E-05
268.6072,-8.463036E-05
268.7072,-8.455596E-05
268.8072,-8.452959E-05
268.9072,-8.446461E-05
269.0072,-8.439964E-05
269.1072,-8.437798E-05
269.2072,-8.434502E-05
269.3072,-8.42499E-05
269.4072,-8.423202E-05
269.5072,-8.422636E-05
269.6072,-8.413972E-05
269.7072,-8.405591E-05
269.8073,-8.402199E-05
269.9073,-8.397586E-05
270.0073,-8.388922E-05
270.1073,-8.38864E-05
270.2073,-8.383836E-05
270.3073,-8.377055E-05
270.4073,-8.374513E-05
270.5073,-8.374231E-05
270.6073,-8.360199E-05
270.7073,-8.35323E-05
270.8073,-8.351159E-05
270.9073,-8.342024E-05
271.0073,-8.338728E-05
271.1073,-8.337032E-05
271.2073,-8.330817E-05
271.3073,-8.326579E-05
271.4073,-8.323095E-05
271.5074,-8.318292E-05
271.6074,-8.313113E-05
271.7074,-8.31123E-05
271.8074,-8.3101E-05
271.9074,-8.303884E-05
272.0074,-8.298139E-05
272.1074,-8.293337E-05
272.2074,-8.285708E-05
272.3074,-8.280246E-05
272.4074,-8.278645E-05
272.5074,-8.272241E-05
272.6074,-8.264613E-05
272.7074,-8.264143E-05
272.8074,-8.259434E-05
272.9074,-8.254161E-05
273.0074,-8.252559E-05
273.1075,-8.246626E-05
273.2075,-8.241353E-05
273.3075,-8.233442E-05
273.4075,-8.226474E-05
273.5075,-8.22393E-05
273.6075,-8.217998E-05
273.7075,-8.215832E-05
273.8075,-8.210652E-05
273.9075,-8.204437E-05
274.0075,-8.198222E-05
274.1075,-8.191158E-05
274.2075,-8.186261E-05
274.3075,-8.181364E-05
274.4075,-8.174019E-05
274.5075,-8.16818E-05
274.6075,-8.164508E-05
274.7076,-8.159987E-05
274.8076,-8.152641E-05
274.9076,-8.146237E-05
275.0076,-8.144543E-05
275.1076,-8.138327E-05
275.2076,-8.131642E-05
275.3076,-8.126743E-05
275.4076,-8.122507E-05
275.5076,-8.116197E-05
275.6076,-8.114595E-05
275.7076,-8.107062E-05
275.8076,-8.098962E-05
275.9076,-8.094442E-05
276.0076,-8.091994E-05
276.1076,-8.084366E-05
276.2076,-8.079752E-05
276.3076,-8.075043E-05
276.4077,-8.067603E-05
276.5077,-8.061011E-05
276.6077,-8.058469E-05
276.7077,-8.053572E-05
276.8077,-8.046697E-05
276.9077,-8.042082E-05
277.0077,-8.036902E-05
277.1077,-8.032948E-05
277.2077,-8.026355E-05
277.3077,-8.019669E-05
277.4077,-8.020704E-05
277.5077,-8.016937E-05
277.6077,-8.008933E-05
277.7077,-8.004036E-05
277.8077,-8.007897E-05
277.9077,-8.001117E-05
278.0078,-7.992924E-05
278.1078,-7.994337E-05
278.2078,-7.990663E-05
278.3078,-7.979364E-05
278.4078,-7.974466E-05
278.5078,-7.971923E-05
278.6078,-7.960905E-05
278.7078,-7.957326E-05
278.8078,-7.95403E-05
278.9078,-7.945649E-05
279.0078,-7.942069E-05
279.1078,-7.942635E-05
279.2078,-7.939811E-05
279.3078,-7.933406E-05
279.4078,-7.932277E-05
279.5078,-7.926249E-05
279.6078,-7.920788E-05
279.7079,-7.920129E-05
279.8079,-7.91994E-05
279.9079,-7.911276E-05
280.0079,-7.909958E-05
280.1079,-7.913159E-05
280.2079,-7.903366E-05
280.3079,-7.894514E-05
280.4079,-7.888392E-05
280.5079,-7.879727E-05
280.6079,-7.870687E-05
280.7079,-7.865978E-05
280.8079,-7.86645E-05
280.9079,-7.856562E-05
281.0079,-7.851382E-05
281.1079,-7.84865E-05
281.2079,-7.843188E-05
281.308,-7.838009E-05
281.408,-7.833489E-05
281.508,-7.826896E-05
281.608,-7.823695E-05
281.708,-7.819834E-05
281.808,-7.81277E-05
281.908,-7.805332E-05
282.008,-7.802506E-05
282.108,-7.800433E-05
282.208,-7.790075E-05
282.308,-7.786873E-05
282.408,-7.783672E-05
282.508,-7.776797E-05
282.608,-7.773406E-05
282.708,-7.772558E-05
282.808,-7.768698E-05
282.9081,-7.762483E-05
283.0081,-7.760975E-05
283.1081,-7.757962E-05
283.2081,-7.753536E-05
283.3081,-7.758433E-05
283.4081,-7.760411E-05
283.5081,-7.753347E-05
283.6081,-7.753629E-05
283.7081,-7.749016E-05
283.8081,-7.741481E-05
283.9081,-7.729428E-05
284.0081,-7.722364E-05
284.1081,-7.717373E-05
284.2081,-7.711534E-05
284.3081,-7.705695E-05
284.4081,-7.703153E-05
284.5081,-7.69562E-05
284.6082,-7.694866E-05
284.7082,-7.690063E-05
284.8082,-7.682718E-05
284.9082,-7.680175E-05
285.0082,-7.675184E-05
285.1082,-7.670098E-05
285.2082,-7.667368E-05
285.3082,-7.662094E-05
285.4082,-7.65635E-05
285.5082,-7.652111E-05
285.6082,-7.648156E-05
285.7082,-7.643823E-05
285.8082,-7.639398E-05
285.9082,-7.636667E-05
286.0082,-7.633465E-05
286.1082,-7.631016E-05
286.2083,-7.639021E-05
286.3083,-7.634595E-05
286.4083,-7.626213E-05
286.5083,-7.630546E-05
286.6083,-7.623954E-05
286.7083,-7.611993E-05
286.8083,-7.607661E-05
286.9083,-7.603894E-05
287.0083,-7.597115E-05
287.1083,-7.590051E-05
287.2083,-7.589674E-05
287.3083,-7.586661E-05
287.4083,-7.578374E-05
287.5083,-7.577715E-05
287.6083,-7.57489E-05
287.7083,-7.568391E-05
287.8083,-7.562364E-05
287.9084,-7.561611E-05
288.0084,-7.555207E-05
288.1084,-7.549557E-05
288.2084,-7.551628E-05
288.3084,-7.543247E-05
288.4084,-7.536184E-05
288.5084,-7.535431E-05
288.6084,-7.533736E-05
288.7084,-7.52639E-05
288.8084,-7.52187E-05
288.9084,-7.518951E-05
289.0084,-7.515278E-05
289.1084,-7.514335E-05
289.2084,-7.50878E-05
289.3084,-7.501811E-05
289.4084,-7.494842E-05
289.5085,-7.490887E-05
289.6085,-7.485895E-05
289.7085,-7.483258E-05
289.8085,-7.480998E-05
289.9085,-7.475348E-05
290.0085,-7.470451E-05
290.1085,-7.463765E-05
290.2085,-7.455196E-05
290.3085,-7.450957E-05
290.4085,-7.450016E-05
290.5085,-7.441352E-05
290.6085,-7.436549E-05
290.7085,-7.435043E-05
290.8085,-7.430804E-05
290.9085,-7.421763E-05
291.0085,-7.417903E-05
291.1086,-7.415642E-05
291.2086,-7.409992E-05
291.3086,-7.404342E-05
291.4086,-7.401517E-05
291.5086,-7.402082E-05
291.6086,-7.394736E-05
291.7086,-7.392476E-05
291.8086,-7.386731E-05
291.9086,-7.379668E-05
292.0086,-7.374677E-05
292.1086,-7.371287E-05
292.2086,-7.363565E-05
292.3086,-7.357631E-05
292.4086,-7.354148E-05
292.5086,-7.350664E-05
292.6086,-7.348403E-05
292.7086,-7.349722E-05
292.8087,-7.344825E-05
292.9087,-7.33729E-05
293.0087,-7.335407E-05
293.1087,-7.330887E-05
293.2087,-7.323918E-05
293.3087,-7.323729E-05
293.4087,-7.318739E-05
293.5087,-7.311675E-05
293.6087,-7.317232E-05
293.7087,-7.314688E-05
293.8087,-7.307909E-05
293.9087,-7.308474E-05
294.0087,-7.305366E-05
294.1087,-7.295854E-05
294.2087,-7.289168E-05
294.3087,-7.285213E-05
294.4088,-7.275795E-05
294.5088,-7.27297E-05
294.6088,-7.272123E-05
294.7088,-7.263553E-05
294.8088,-7.259127E-05
294.9088,-7.259409E-05
295.0088,-7.253476E-05
295.1088,-7.245943E-05
295.2088,-7.24839E-05
295.3088,-7.247826E-05
295.4088,-7.238314E-05
295.5088,-7.231817E-05
295.6088,-7.228991E-05
295.7088,-7.222023E-05
295.8088,-7.216466E-05
295.9088,-7.21609E-05
296.0089,-7.211004E-05
296.1089,-7.205448E-05
296.2089,-7.20347E-05
296.3089,-7.203659E-05
296.4089,-7.196501E-05
296.5089,-7.193018E-05
296.6089,-7.188685E-05
296.7089,-7.183977E-05
296.8089,-7.18134E-05
296.9089,-7.174747E-05
297.0089,-7.169003E-05
297.1089,-7.167309E-05
297.2089,-7.164389E-05
297.3089,-7.15516E-05
297.4089,-7.153465E-05
297.5089,-7.15516E-05
297.6089,-7.152428E-05
297.709,-7.144047E-05
297.809,-7.13981E-05
297.909,-7.139904E-05
298.009,-7.133123E-05
298.109,-7.126343E-05
298.209,-7.125684E-05
298.309,-7.116831E-05
298.409,-7.112782E-05
298.509,-7.10845E-05
298.609,-7.103742E-05
298.709,-7.097903E-05
298.809,-7.094512E-05
298.909,-7.091121E-05
299.009,-7.088861E-05
299.109,-7.09018E-05
299.209,-7.089333E-05
299.3091,-7.078409E-05
299.4091,-7.077843E-05
299.5091,-7.070875E-05
299.6091,-7.063058E-05
299.7091,-7.063058E-05
299.8091,-7.061929E-05
299.9091,-7.056748E-05
300.0091,-7.049969E-05
300.1091,-7.050628E-05
300.2091,-7.041964E-05
300.3091,-7.034806E-05
300.4091,-7.031887E-05
300.5091,-7.025107E-05
300.6091,-7.020681E-05
300.7091,-7.019645E-05
300.8091,-7.01569E-05
300.9091,-7.011451E-05
301.0092,-7.013241E-05
301.1092,-7.010604E-05
301.2092,-7.001845E-05
301.3092,-7.002599E-05
301.4092,-6.999962E-05
301.5092,-6.992428E-05
301.6092,-6.988661E-05
301.7092,-6.986872E-05
301.8092,-6.979433E-05
301.9092,-6.973028E-05
302.0092,-6.968885E-05
302.1092,-6.961446E-05
302.2092,-6.957114E-05
302.3092,-6.954289E-05
302.4092,-6.948827E-05
302.5092,-6.943553E-05
302.6093,-6.943082E-05
302.7093,-6.93922E-05
302.8093,-6.933194E-05
302.9093,-6.927919E-05
303.0093,-6.927919E-05
303.1093,-6.919444E-05
303.2093,-6.915395E-05
303.3093,-6.912193E-05
303.4093,-6.908426E-05
303.5093,-6.901457E-05
303.6093,-6.901928E-05
303.7093,-6.895807E-05
303.8093,-6.889121E-05
303.9093,-6.88639E-05
304.0093,-6.885353E-05
304.1093,-6.875936E-05
304.2094,-6.874335E-05
304.3094,-6.870945E-05
304.4094,-6.864448E-05
304.5094,-6.859456E-05
304.6094,-6.857573E-05
304.7094,-6.852299E-05
304.8094,-6.848061E-05
304.9094,-6.845048E-05
305.0094,-6.840715E-05
305.1094,-6.84015E-05
305.2094,-6.841281E-05
305.3094,-6.839115E-05
305.4094,-6.836478E-05
305.5094,-6.840903E-05
305.6094,-6.835913E-05
305.7094,-6.831581E-05
305.8094,-6.832522E-05
305.9095,-6.827343E-05
306.0095,-6.818584E-05
306.1095,-6.81284E-05
306.2095,-6.803423E-05
306.3095,-6.797772E-05
306.4095,-6.795701E-05
306.5095,-6.793158E-05
306.6095,-6.787319E-05
306.7095,-6.782705E-05
306.8095,-6.779786E-05
306.9095,-6.773852E-05
307.0095,-6.767825E-05
307.1095,-6.765848E-05
307.2095,-6.766414E-05
307.3095,-6.762175E-05
307.4095,-6.752476E-05
307.5096,-6.751157E-05
307.6096,-6.746448E-05
307.7096,-6.741457E-05
307.8096,-6.736278E-05
307.9096,-6.734112E-05
308.0096,-6.728555E-05
308.1096,-6.725259E-05
308.2096,-6.721869E-05
308.3096,-6.716784E-05
308.4096,-6.712734E-05
308.5096,-6.709626E-05
308.6096,-6.705389E-05
308.7096,-6.697667E-05
308.8096,-6.695878E-05
308.9096,-6.692487E-05
309.0096,-6.690604E-05
309.1096,-6.690792E-05
309.2097,-6.682693E-05
309.3097,-6.676666E-05
309.4097,-6.674688E-05
309.5097,-6.669886E-05
309.6097,-6.664517E-05
309.7097,-6.6648E-05
309.8097,-6.658396E-05
309.9097,-6.65218E-05
310.0097,-6.651145E-05
310.1097,-6.647284E-05
310.2097,-6.638714E-05
310.3097,-6.634476E-05
310.4097,-6.63297E-05
310.5097,-6.627884E-05
310.6097,-6.622517E-05
310.7097,-6.620445E-05
310.8098,-6.617337E-05
310.9098,-6.611592E-05
311.0098,-6.609615E-05
311.1098,-6.606225E-05
311.2098,-6.60208E-05
311.3098,-6.597655E-05
311.4098,-6.591817E-05
311.5098,-6.588049E-05
311.6098,-6.584094E-05
311.7098,-6.57835E-05
311.8098,-6.574959E-05
311.9098,-6.576936E-05
312.0098,-6.58174E-05
312.1098,-6.575806E-05
312.2098,-6.566389E-05
312.3098,-6.567519E-05
312.4099,-6.560645E-05
312.5099,-6.555748E-05
312.6099,-6.56234E-05
312.7099,-6.561304E-05
312.8099,-6.55377E-05
312.9099,-6.554523E-05
313.0099,-6.551604E-05
313.1099,-6.539549E-05
313.2099,-6.538138E-05
313.3099,-6.535501E-05
313.4099,-6.52872E-05
313.5099,-6.525894E-05
313.6099,-6.5242E-05
313.7099,-6.517796E-05
313.8099,-6.514217E-05
313.9099,-6.510544E-05
314.0099,-6.505836E-05
314.11,-6.501409E-05
314.21,-6.503293E-05
314.31,-6.499809E-05
314.41,-6.49557E-05
314.51,-6.495948E-05
314.61,-6.493594E-05
314.71,-6.488414E-05
314.81,-6.482104E-05
314.91,-6.476831E-05
315.01,-6.475041E-05
315.11,-6.471086E-05
315.21,-6.466378E-05
315.31,-6.463176E-05
315.41,-6.461292E-05
315.51,-6.456584E-05
315.61,-6.452345E-05
315.7101,-6.449802E-05
315.8101,-6.446695E-05
315.9101,-6.437843E-05
316.0101,-6.436148E-05
316.1101,-6.433134E-05
316.2101,-6.426825E-05
316.3101,-6.424187E-05
316.4101,-6.420232E-05
316.5101,-6.416936E-05
316.6101,-6.411946E-05
316.7101,-6.405824E-05
316.8101,-6.406577E-05
316.9101,-6.399985E-05
317.0101,-6.393393E-05
317.1101,-6.392922E-05
317.2101,-6.389721E-05
317.3102,-6.383034E-05
317.4102,-6.379644E-05
317.5102,-6.378985E-05
317.6102,-6.371074E-05
317.7102,-6.366742E-05
317.8102,-6.36872E-05
317.9102,-6.362599E-05
318.0102,-6.356948E-05
318.1102,-6.355064E-05
318.2102,-6.354123E-05
318.3102,-6.349414E-05
318.4102,-6.346118E-05
318.5102,-6.345836E-05
318.6102,-6.339809E-05
318.7102,-6.335571E-05
318.8102,-6.331804E-05
318.9102,-6.325965E-05
319.0103,-6.323423E-05
319.1103,-6.316737E-05
319.2103,-6.313629E-05
319.3103,-6.310897E-05
319.4103,-6.30666E-05
319.5103,-6.301951E-05
319.6103,-6.302234E-05
319.7103,-6.299315E-05
319.8103,-6.29131E-05
319.9103,-6.288673E-05
320.0103,-6.289143E-05
320.1103,-6.281233E-05
320.2103,-6.274076E-05
320.3103,-6.272287E-05
320.4103,-6.268143E-05
320.5103,-6.262115E-05
320.6104,-6.260421E-05
320.7104,-6.256653E-05
320.8104,-6.24912E-05
320.9104,-6.246765E-05
321.0104,-6.246106E-05
321.1104,-6.234711E-05
321.2104,-6.234052E-05
321.3104,-6.233204E-05
321.4104,-6.230756E-05
321.5104,-6.2252E-05
321.6104,-6.227178E-05
321.7104,-6.221339E-05
321.8104,-6.214935E-05
321.9104,-6.215218E-05
322.0104,-6.210886E-05
322.1104,-6.204482E-05
322.2104,-6.200903E-05
322.3105,-6.199208E-05
322.4105,-6.191769E-05
322.5105,-6.188378E-05
322.6105,-6.184705E-05
322.7105,-6.179997E-05
322.8105,-6.175006E-05
322.9105,-6.170674E-05
323.0105,-6.168225E-05
323.1105,-6.1654E-05
323.2105,-6.161633E-05
323.3105,-6.155889E-05
323.4105,-6.154382E-05
323.5105,-6.149391E-05
323.6105,-6.144871E-05
323.7105,-6.139503E-05
323.8105,-6.137054E-05
323.9106,-6.13583E-05
324.0106,-6.132627E-05
324.1106,-6.129426E-05
324.2106,-6.126506E-05
324.3106,-6.121986E-05
324.4106,-6.11869E-05
324.5106,-6.115771E-05
324.6106,-6.112569E-05
324.7106,-6.110591E-05
324.8106,-6.111815E-05
324.9106,-6.113134E-05
325.0106,-6.10852E-05
325.1106,-6.109085E-05
325.2106,-6.107389E-05
325.3106,-6.101551E-05
325.4106,-6.091757E-05
325.5107,-6.08573E-05
325.6107,-6.083187E-05
325.7107,-6.079232E-05
325.8107,-6.07763E-05
325.9107,-6.075747E-05
326.0107,-6.068025E-05
326.1107,-6.063316E-05
326.2107,-6.06068E-05
326.3107,-6.058137E-05
326.4107,-6.05437E-05
326.5107,-6.049002E-05
326.6107,-6.046366E-05
326.7107,-6.047589E-05
326.8107,-6.047024E-05
326.9107,-6.044293E-05
327.0107,-6.038737E-05
327.1107,-6.037702E-05
327.2108,-6.035253E-05
327.3108,-6.029602E-05
327.4108,-6.030544E-05
327.5108,-6.02753E-05
327.6108,-6.021127E-05
327.7108,-6.017266E-05
327.8108,-6.00992E-05
327.9108,-6.004458E-05
328.0108,-6.004929E-05
328.1108,-6.003234E-05
328.2108,-5.994664E-05
328.3108,-5.990332E-05
328.4108,-5.98939E-05
328.5108,-5.984399E-05
328.6108,-5.979879E-05
328.7108,-5.979879E-05
328.8109,-5.973098E-05
328.9109,-5.968107E-05
329.0109,-5.968107E-05
329.1109,-5.965094E-05
329.2109,-5.959161E-05
329.3109,-5.959161E-05
329.4109,-5.954075E-05
329.5109,-5.951156E-05
329.6109,-5.952757E-05
329.7109,-5.950968E-05
329.8109,-5.949273E-05
329.9109,-5.949932E-05
330.0109,-5.950308E-05
330.1109,-5.946353E-05
330.2109,-5.935994E-05
330.3109,-5.935241E-05
330.4109,-5.929497E-05
330.511,-5.924317E-05
330.611,-5.923375E-05
330.711,-5.922339E-05
330.811,-5.917066E-05
330.911,-5.910756E-05
331.011,-5.909531E-05
331.111,-5.901433E-05
331.211,-5.897666E-05
331.311,-5.900302E-05
331.411,-5.891451E-05
331.511,-5.887118E-05
331.611,-5.890603E-05
331.711,-5.88872E-05
331.811,-5.884105E-05
331.911,-5.883257E-05
332.011,-5.87949E-05
332.1111,-5.876289E-05
332.2111,-5.878078E-05
332.3111,-5.87902E-05
332.4111,-5.871391E-05
332.5111,-5.869414E-05
332.6111,-5.870732E-05
332.7111,-5.864328E-05
332.8111,-5.858772E-05
332.9111,-5.857831E-05
333.0111,-5.854346E-05
333.1111,-5.848225E-05
333.2111,-5.846153E-05
333.3111,-5.841351E-05
333.4111,-5.838148E-05
333.5111,-5.83617E-05
333.6111,-5.836077E-05
333.7112,-5.830426E-05
333.8112,-5.829202E-05
333.9112,-5.830521E-05
334.0112,-5.824399E-05
334.1112,-5.819596E-05
334.2112,-5.819314E-05
334.3112,-5.812627E-05
334.4112,-5.809991E-05
334.5112,-5.807354E-05
334.6112,-5.803399E-05
334.7112,-5.798878E-05
334.8112,-5.793887E-05
334.9112,-5.792945E-05
335.0112,-5.789649E-05
335.1112,-5.784093E-05
335.2112,-5.783434E-05
335.3112,-5.780138E-05
335.4113,-5.77251E-05
335.5113,-5.772604E-05
335.6113,-5.769213E-05
335.7113,-5.761962E-05
335.8113,-5.761209E-05
335.9113,-5.762527E-05
336.0113,-5.754805E-05
336.1113,-5.749814E-05
336.2113,-5.750191E-05
336.3113,-5.745482E-05
336.4113,-5.739172E-05
336.5113,-5.739737E-05
336.6113,-5.735876E-05
336.7113,-5.73032E-05
336.8113,-5.733898E-05
336.9113,-5.729661E-05
337.0114,-5.721844E-05
337.1114,-5.723257E-05
337.2114,-5.717701E-05
337.3114,-5.713369E-05
337.4114,-5.709414E-05
337.5114,-5.70866E-05
337.6114,-5.704422E-05
337.7114,-5.69783E-05
337.8114,-5.693875E-05
337.9114,-5.695194E-05
338.0114,-5.688037E-05
338.1114,-5.683233E-05
338.2114,-5.684458E-05
338.3114,-5.679749E-05
338.4114,-5.675888E-05
338.5114,-5.674005E-05
338.6115,-5.671274E-05
338.7115,-5.666753E-05
338.8115,-5.662704E-05
338.9115,-5.659314E-05
339.0115,-5.655829E-05
339.1115,-5.651497E-05
339.2115,-5.649237E-05
339.3115,-5.645094E-05
339.4115,-5.642268E-05
339.5115,-5.639255E-05
339.6115,-5.630308E-05
339.7115,-5.634829E-05
339.8115,-5.628425E-05
339.9115,-5.623998E-05
340.0115,-5.625223E-05
340.1115,-5.621927E-05
340.2115,-5.61477E-05
340.3116,-5.613546E-05
340.4116,-5.615429E-05
340.5116,-5.611003E-05
340.6116,-5.606953E-05
340.7116,-5.604034E-05
340.8116,-5.599137E-05
340.9116,-5.596312E-05
341.0116,-5.599608E-05
341.1116,-5.601491E-05
341.2116,-5.595935E-05
341.3116,-5.603092E-05
341.4116,-5.59763E-05
341.5116,-5.592262E-05
341.6116,-5.593016E-05
341.7116,-5.590944E-05
341.8116,-5.584728E-05
341.9117,-5.58115E-05
342.0117,-5.577477E-05
342.1117,-5.572769E-05
342.2117,-5.564575E-05
342.3117,-5.561373E-05
342.4117,-5.559584E-05
342.5117,-5.556383E-05
342.6117,-5.551768E-05
342.7117,-5.549696E-05
342.8117,-5.544799E-05
342.9117,-5.543481E-05
343.0117,-5.538772E-05
343.1117,-5.53623E-05
343.2117,-5.533121E-05
343.3117,-5.532556E-05
343.4117,-5.527283E-05
343.5117,-5.524646E-05
343.6118,-5.522857E-05
343.7118,-5.518713E-05
343.8118,-5.511744E-05
343.9118,-5.510802E-05
344.0118,-5.507506E-05
344.1118,-5.502327E-05
344.2118,-5.498748E-05
344.3118,-5.498466E-05
344.4118,-5.495923E-05
344.5118,-5.494887E-05
344.6118,-5.489802E-05
344.7118,-5.487353E-05
344.8118,-5.485375E-05
344.9118,-5.481138E-05
345.0118,-5.477183E-05
345.1118,-5.47803E-05
345.2119,-5.47351E-05
345.3119,-5.468236E-05
345.4119,-5.464187E-05
345.5119,-5.45929E-05
345.6119,-5.45477E-05
345.7119,-5.451568E-05
345.8119,-5.450814E-05
345.9119,-5.44441E-05
346.0119,-5.439514E-05
346.1119,-5.440455E-05
346.2119,-5.437724E-05
346.3119,-5.431038E-05
346.4119,-5.429342E-05
346.5119,-5.42906E-05
346.6119,-5.423598E-05
346.7119,-5.418701E-05
346.812,-5.419078E-05
346.912,-5.4171E-05
347.012,-5.413898E-05
347.112,-5.416912E-05
347.212,-5.411544E-05
347.312,-5.407118E-05
347.412,-5.406647E-05
347.512,-5.403445E-05
347.612,-5.397324E-05
347.712,-5.391768E-05
347.812,-5.391297E-05
347.912,-5.3864E-05
348.012,-5.384987E-05
348.112,-5.379714E-05
348.212,-5.378677E-05
348.312,-5.373781E-05
348.412,-5.370014E-05
348.5121,-5.368789E-05
348.6121,-5.36587E-05
348.7121,-5.360879E-05
348.8121,-5.358431E-05
348.9121,-5.355511E-05
349.0121,-5.351462E-05
349.1121,-5.348071E-05
349.2121,-5.34647E-05
349.3121,-5.347789E-05
349.4121,-5.351179E-05
349.5121,-5.345623E-05
349.6121,-5.338183E-05
349.7121,-5.339313E-05
349.8121,-5.337618E-05
349.9121,-5.334604E-05
350.0121,-5.341197E-05
350.1122,-5.339973E-05
350.2122,-5.332627E-05
350.3122,-5.334981E-05
350.4122,-5.331685E-05
350.5122,-5.32208E-05
350.6122,-5.317088E-05
350.7122,-5.31464E-05
350.8122,-5.310308E-05
350.9122,-5.304752E-05
351.0122,-5.303151E-05
351.1122,-5.299478E-05
351.2122,-5.297406E-05
351.3122,-5.293922E-05
351.4122,-5.290626E-05
351.5122,-5.287423E-05
351.6122,-5.285352E-05
351.7122,-5.281491E-05
351.8123,-5.277536E-05
351.9123,-5.278289E-05
352.0123,-5.273769E-05
352.1123,-5.267271E-05
352.2123,-5.267365E-05
352.3123,-5.265858E-05
352.4123,-5.259831E-05
352.5123,-5.257571E-05
352.6123,-5.258984E-05
352.7123,-5.25531E-05
352.8123,-5.251732E-05
352.9123,-5.251073E-05
353.0123,-5.251921E-05
353.1123,-5.243727E-05
353.2123,-5.242503E-05
353.3123,-5.23836E-05
353.4124,-5.233651E-05
353.5124,-5.229978E-05
353.6124,-5.222915E-05
353.7124,-5.208319E-05
353.8124,-5.202762E-05
353.9124,-5.196641E-05
354.0124,-5.192498E-05
354.1124,-5.194569E-05
354.2124,-5.197866E-05
354.3124,-5.196359E-05
354.4124,-5.196076E-05
354.5124,-5.199278E-05
354.6124,-5.20069E-05
354.7124,-5.197959E-05
354.8124,-5.19843E-05
354.9124,-5.196264E-05
355.0125,-5.196735E-05
355.1125,-5.197112E-05
355.2125,-5.195417E-05
355.3125,-5.192592E-05
355.4125,-5.195511E-05
355.5125,-5.197959E-05
355.6125,-5.194663E-05
355.7125,-5.193722E-05
355.8125,-5.193062E-05
355.9125,-5.192592E-05
356.0125,-5.195323E-05
356.1125,-5.196641E-05
356.2125,-5.191461E-05
356.3125,-5.19099E-05
356.4125,-5.197583E-05
356.5125,-5.195605E-05
356.6125,-5.186941E-05
356.7126,-5.186753E-05
356.8126,-5.181103E-05
356.9126,-5.176017E-05
357.0126,-5.173662E-05
357.1126,-5.17404E-05
357.2126,-5.169613E-05
357.3126,-5.16547E-05
357.4126,-5.163774E-05
357.5126,-5.161609E-05
357.6126,-5.159066E-05
357.7126,-5.158595E-05
357.8126,-5.155487E-05
357.9126,-5.151343E-05
358.0126,-5.150308E-05
358.1126,-5.148236E-05
358.2126,-5.144092E-05
358.3127,-5.141079E-05
358.4127,-5.139478E-05
358.5127,-5.136464E-05
358.6127,-5.135899E-05
358.7127,-5.131944E-05
358.8127,-5.128459E-05
358.9127,-5.127329E-05
359.0127,-5.12441E-05
359.1127,-5.118101E-05
359.2127,-5.116028E-05
359.3127,-5.114804E-05
359.4127,-5.111038E-05
359.5127,-5.105387E-05
359.6127,-5.107647E-05
359.7127,-5.100396E-05
359.8127,-5.097759E-05
359.9128,-5.096252E-05
360.0128,-5.091544E-05
360.1128,-5.089095E-05
360.2128,-5.088436E-05
360.3128,-5.0874E-05
360.4128,-5.082786E-05
360.5128,-5.083633E-05
360.6128,-5.081844E-05
360.7128,-5.076664E-05
360.8128,-5.072803E-05
360.9128,-5.072521E-05
361.0128,-5.071768E-05
361.1128,-5.063762E-05
361.2128,-5.066117E-05
361.3128,-5.065175E-05
361.4128,-5.058583E-05
361.5128,-5.060937E-05
361.6129,-5.058018E-05
361.7129,-5.053498E-05
361.8129,-5.053686E-05
361.9129,-5.053686E-05
362.0129,-5.046812E-05
362.1129,-5.043798E-05
362.2129,-5.040031E-05
362.3129,-5.036359E-05
362.4129,-5.030143E-05
362.5129,-5.031367E-05
362.6129,-5.027977E-05
362.7129,-5.020725E-05
362.8129,-5.024304E-05
362.9129,-5.020443E-05
363.0129,-5.016393E-05
363.1129,-5.018466E-05
363.213,-5.019784E-05
363.313,-5.014981E-05
363.413,-5.010178E-05
363.513,-5.008859E-05
363.613,-5.004528E-05
363.713,-4.999819E-05
363.813,-4.996241E-05
363.913,-4.991249E-05
364.013,-4.990308E-05
364.113,-4.989554E-05
364.213,-4.984375E-05
364.313,-4.982962E-05
364.413,-4.983716E-05
364.513,-4.982868E-05
364.613,-4.977594E-05
364.713,-4.974486E-05
364.813,-4.973639E-05
364.9131,-4.968083E-05
365.0131,-4.960643E-05
365.1131,-4.962621E-05
365.2131,-4.956876E-05
365.3131,-4.951885E-05
365.4131,-4.950284E-05
365.5131,-4.950378E-05
365.6131,-4.944257E-05
365.7131,-4.939454E-05
365.8131,-4.940208E-05
365.9131,-4.933804E-05
366.0131,-4.930037E-05
366.1131,-4.931732E-05
366.2131,-4.925893E-05
366.3131,-4.921844E-05
366.4131,-4.923068E-05
366.5132,-4.921561E-05
366.6132,-4.917229E-05
366.7132,-4.917041E-05
366.8132,-4.915534E-05
366.9132,-4.914027E-05
367.0132,-4.914593E-05
367.1132,-4.911014E-05
367.2132,-4.907812E-05
367.3132,-4.908754E-05
367.4132,-4.90574E-05
367.5132,-4.901597E-05
367.6132,-4.895852E-05
367.7132,-4.89039E-05
367.8132,-4.890767E-05
367.9132,-4.885116E-05
368.0132,-4.883327E-05
368.1133,-4.88069E-05
368.2133,-4.878053E-05
368.3133,-4.873062E-05
368.4133,-4.872874E-05
368.5133,-4.867883E-05
368.6133,-4.865434E-05
368.7133,-4.862609E-05
368.8133,-4.860537E-05
368.9133,-4.859878E-05
369.0133,-4.85903E-05
369.1133,-4.857147E-05
369.2133,-4.852721E-05
369.3133,-4.85112E-05
369.4133,-4.848765E-05
369.5133,-4.846882E-05
369.6133,-4.849424E-05
369.7133,-4.842927E-05
369.8134,-4.837276E-05
369.9134,-4.842456E-05
370.0134,-4.839725E-05
370.1134,-4.83398E-05
370.2134,-4.834734E-05
370.3134,-4.832379E-05
370.4134,-4.826729E-05
370.5134,-4.827011E-05
370.6134,-4.827483E-05
370.7134,-4.821079E-05
370.8134,-4.821361E-05
370.9134,-4.82315E-05
371.0134,-4.81863E-05
371.1134,-4.81006E-05
371.2134,-4.813921E-05
371.3134,-4.807612E-05
371.4135,-4.802809E-05
371.5135,-4.802056E-05
371.6135,-4.801961E-05
371.7135,-4.796217E-05
371.8135,-4.793297E-05
371.9135,-4.794427E-05
372.0135,-4.793297E-05
372.1135,-4.783975E-05
372.2135,-4.786894E-05
372.3135,-4.784351E-05
372.4135,-4.777194E-05
372.5135,-4.77823E-05
372.6135,-4.780207E-05
372.7135,-4.772768E-05
372.8135,-4.768342E-05
372.9135,-4.767211E-05
373.0135,-4.762409E-05
373.1136,-4.756947E-05
373.2136,-4.755252E-05
373.3136,-4.752426E-05
373.4136,-4.747718E-05
373.5136,-4.745645E-05
373.6136,-4.741879E-05
373.7136,-4.740372E-05
373.8136,-4.740184E-05
373.9136,-4.736699E-05
374.0136,-4.731614E-05
374.1136,-4.731049E-05
374.2136,-4.729919E-05
374.3136,-4.725493E-05
374.4136,-4.722479E-05
374.5136,-4.721726E-05
374.6136,-4.718807E-05
374.7137,-4.713533E-05
374.8137,-4.713627E-05
374.9137,-4.712497E-05
375.0137,-4.708541E-05
375.1137,-4.705152E-05
375.2137,-4.704022E-05
375.3137,-4.70129E-05
375.4137,-4.701572E-05
375.5137,-4.700443E-05
375.6137,-4.698277E-05
375.7137,-4.697241E-05
375.8137,-4.695922E-05
375.9137,-4.694321E-05
376.0137,-4.691402E-05
376.1137,-4.694039E-05
376.2137,-4.68707E-05
376.3138,-4.684339E-05
376.4138,-4.684998E-05
376.5138,-4.680195E-05
376.6138,-4.6769E-05
376.7138,-4.674451E-05
376.8138,-4.669177E-05
376.9138,-4.671249E-05
377.0138,-4.671908E-05
377.1138,-4.665222E-05
377.2138,-4.660042E-05
377.3138,-4.658159E-05
377.4138,-4.652697E-05
377.5138,-4.650531E-05
377.6138,-4.648647E-05
377.7138,-4.648083E-05
377.8138,-4.647141E-05
377.9138,-4.64667E-05
378.0139,-4.643091E-05
378.1139,-4.642714E-05
378.2139,-4.63584E-05
378.3139,-4.634898E-05
378.4139,-4.629625E-05
378.5139,-4.630472E-05
378.6139,-4.626517E-05
378.7139,-4.622185E-05
378.8139,-4.622844E-05
378.9139,-4.619642E-05
379.0139,-4.615404E-05
379.1139,-4.616629E-05
379.2139,-4.614651E-05
379.3139,-4.613238E-05
379.4139,-4.609189E-05
379.5139,-4.608247E-05
379.614,-4.606081E-05
379.714,-4.60335E-05
379.814,-4.602126E-05
379.914,-4.598359E-05
380.014,-4.59431E-05
380.114,-4.59431E-05
380.214,-4.592897E-05
380.314,-4.585363E-05
380.414,-4.582538E-05
380.514,-4.582632E-05
380.614,-4.578771E-05
380.714,-4.57425E-05
380.814,-4.575004E-05
380.914,-4.572461E-05
381.014,-4.57039E-05
381.114,-4.571049E-05
381.2141,-4.566905E-05
381.3141,-4.564174E-05
381.4141,-4.568035E-05
381.5141,-4.569165E-05
381.6141,-4.56634E-05
381.7141,-4.566999E-05
381.8141,-4.569448E-05
381.9141,-4.562761E-05
382.0141,-4.556735E-05
382.1141,-4.554663E-05
382.2141,-4.551272E-05
382.3141,-4.546376E-05
382.4141,-4.545434E-05
382.5141,-4.541572E-05
382.6141,-4.538277E-05
382.7141,-4.535075E-05
382.8141,-4.532815E-05
382.9142,-4.529895E-05
383.0142,-4.527258E-05
383.1142,-4.528106E-05
383.2142,-4.524339E-05
383.3142,-4.521984E-05
383.4142,-4.530742E-05
383.5142,-4.528106E-05
383.6142,-4.519442E-05
383.7142,-4.528294E-05
383.8142,-4.523962E-05
383.9142,-4.517088E-05
384.0142,-4.513321E-05
384.1142,-4.514639E-05
384.2142,-4.508989E-05
384.3142,-4.506164E-05
384.4142,-4.506729E-05
384.5143,-4.505033E-05
384.6143,-4.501549E-05
384.7143,-4.499007E-05
384.8143,-4.496558E-05
384.9143,-4.495993E-05
385.0143,-4.492226E-05
385.1143,-4.489965E-05
385.2143,-4.489777E-05
385.3143,-4.485069E-05
385.4143,-4.482714E-05
385.5143,-4.478571E-05
385.6143,-4.478854E-05
385.7143,-4.474427E-05
385.8143,-4.469248E-05
385.9143,-4.469907E-05
386.0143,-4.468777E-05
386.1143,-4.464539E-05
386.2144,-4.463691E-05
386.3144,-4.46322E-05
386.4144,-4.456157E-05
386.5144,-4.454274E-05
386.6144,-4.456534E-05
386.7144,-4.455122E-05
386.8144,-4.449095E-05
386.9144,-4.452202E-05
387.0144,-4.449188E-05
387.1144,-4.443256E-05
387.2144,-4.445139E-05
387.3144,-4.443915E-05
387.4144,-4.438076E-05
387.5144,-4.436946E-05
387.6144,-4.433933E-05
387.7144,-4.430448E-05
387.8145,-4.430825E-05
387.9145,-4.429318E-05
388.0145,-4.42235E-05
388.1145,-4.42395E-05
388.2145,-4.424233E-05
388.3145,-4.422161E-05
388.4145,-4.418959E-05
388.5145,-4.418677E-05
388.6145,-4.414816E-05
388.7145,-4.413121E-05
388.8145,-4.418582E-05
388.9145,-4.415192E-05
389.0145,-4.41199E-05
389.1145,-4.416228E-05
389.2145,-4.416134E-05
389.3145,-4.406717E-05
389.4146,-4.405398E-05
389.5146,-4.403797E-05
389.6146,-4.40003E-05
389.7146,-4.393062E-05
389.8146,-4.395981E-05
389.9146,-4.392873E-05
390.0146,-4.386093E-05
390.1146,-4.385151E-05
390.2146,-4.38581E-05
390.3146,-4.380631E-05
390.4146,-4.37724E-05
390.5146,-4.3779E-05
390.6146,-4.375922E-05
390.7146,-4.374133E-05
390.8146,-4.371496E-05
390.9146,-4.368765E-05
391.0146,-4.366882E-05
391.1147,-4.366787E-05
391.2147,-4.363021E-05
391.3147,-4.360007E-05
391.4147,-4.362362E-05
391.5147,-4.359159E-05
391.6147,-4.353509E-05
391.7147,-4.353603E-05
391.8147,-4.351908E-05
391.9147,-4.347294E-05
392.0147,-4.34428E-05
392.1147,-4.342396E-05
392.2147,-4.34202E-05
392.3147,-4.337311E-05
392.4147,-4.335522E-05
392.5147,-4.332979E-05
392.6147,-4.332696E-05
392.7148,-4.330343E-05
392.8148,-4.327329E-05
392.9148,-4.329306E-05
393.0148,-4.326764E-05
393.1148,-4.325351E-05
393.2148,-4.327893E-05
393.3148,-4.321961E-05
393.4148,-4.31857E-05
393.5148,-4.314144E-05
393.6148,-4.316593E-05
393.7148,-4.31471E-05
393.8148,-4.309718E-05
393.9148,-4.308588E-05
394.0148,-4.308024E-05
394.1148,-4.303597E-05
394.2148,-4.298229E-05
394.3148,-4.295592E-05
394.4149,-4.29757E-05
394.5149,-4.29305E-05
394.6149,-4.292485E-05
394.7149,-4.293615E-05
394.8149,-4.287682E-05
394.9149,-4.282785E-05
395.0149,-4.28561E-05
395.1149,-4.282691E-05
395.2149,-4.277417E-05
395.3149,-4.277699E-05
395.4149,-4.279583E-05
395.5149,-4.273179E-05
395.6149,-4.277417E-05
395.7149,-4.276005E-05
395.8149,-4.268659E-05
395.9149,-4.268282E-05
396.015,-4.265928E-05
396.115,-4.261502E-05
396.215,-4.260466E-05
396.315,-4.256605E-05
396.415,-4.253497E-05
396.515,-4.254251E-05
396.615,-4.254062E-05
396.715,-4.254909E-05
396.815,-4.253215E-05
396.915,-4.254909E-05
397.015,-4.249918E-05
397.115,-4.244362E-05
397.215,-4.244927E-05
397.315,-4.240313E-05
397.415,-4.235416E-05
397.515,-4.237111E-05
397.6151,-4.233344E-05
397.7151,-4.226564E-05
397.8151,-4.229483E-05
397.9151,-4.22807E-05
398.0151,-4.22355E-05
398.1151,-4.221666E-05
398.2151,-4.223173E-05
398.3151,-4.218276E-05
398.4151,-4.216016E-05
398.5151,-4.217805E-05
398.6151,-4.213003E-05
398.7151,-4.208388E-05
398.8151,-4.213473E-05
398.9151,-4.20754E-05
399.0151,-4.206693E-05
399.1151,-4.20754E-05
399.2151,-4.207258E-05
399.3152,-4.199818E-05
399.4152,-4.199536E-05
399.5152,-4.198783E-05
399.6152,-4.195204E-05
399.7152,-4.191343E-05
399.8152,-4.192661E-05
399.9152,-4.188894E-05
400.0152,-4.182867E-05
400.1152,-4.185409E-05
400.2152,-4.186163E-05
400.3152,-4.18202E-05
400.4152,-4.185504E-05
400.5152,-4.184656E-05
400.6152,-4.179759E-05
400.7152,-4.175804E-05
400.8152,-4.173638E-05
400.9153,-4.172508E-05
401.0153,-4.169212E-05
401.1153,-4.167611E-05
401.2153,-4.16827E-05
401.3153,-4.163185E-05
401.4153,-4.161019E-05
401.5153,-4.160831E-05
401.6153,-4.155369E-05
401.7153,-4.152073E-05
401.8153,-4.155086E-05
401.9153,-4.152449E-05
402.0153,-4.146045E-05
402.1153,-4.150848E-05
402.2153,-4.152261E-05
402.3153,-4.146045E-05
402.4153,-4.146422E-05
402.5154,-4.14727E-05
402.6154,-4.140301E-05
402.7154,-4.138417E-05
402.8154,-4.140395E-05
402.9154,-4.134556E-05
403.0154,-4.131637E-05
403.1154,-4.132202E-05
403.2154,-4.127117E-05
403.3154,-4.126175E-05
403.4154,-4.127117E-05
403.5154,-4.122408E-05
403.6154,-4.1193E-05
403.7154,-4.120807E-05
403.8154,-4.118547E-05
403.9154,-4.11365E-05
404.0154,-4.113744E-05
404.1154,-4.112143E-05
404.2155,-4.111107E-05
404.3155,-4.107905E-05
404.4155,-4.10508E-05
404.5155,-4.101784E-05
404.6155,-4.102726E-05
404.7155,-4.100842E-05
404.8155,-4.095192E-05
404.9155,-4.096322E-05
405.0155,-4.097075E-05
405.1155,-4.088694E-05
405.2155,-4.092461E-05
405.3155,-4.089353E-05
405.4155,-4.083985E-05
405.5155,-4.085398E-05
405.6155,-4.083985E-05
405.7155,-4.078994E-05
405.8156,-4.078523E-05
405.9156,-4.077205E-05
406.0156,-4.07259E-05
406.1156,-4.071837E-05
406.2156,-4.075604E-05
406.3156,-4.07711E-05
406.4156,-4.072213E-05
406.5156,-4.07033E-05
406.6156,-4.069012E-05
406.7156,-4.064586E-05
406.8156,-4.066281E-05
406.9156,-4.07033E-05
407.0156,-4.063361E-05
407.1156,-4.060913E-05
407.2156,-4.062608E-05
407.3156,-4.059595E-05
407.4156,-4.052061E-05
407.5157,-4.053097E-05
407.6157,-4.050742E-05
407.7157,-4.045751E-05
407.8157,-4.043868E-05
407.9157,-4.045092E-05
408.0157,-4.039536E-05
408.1157,-4.038217E-05
408.2157,-4.038971E-05
408.3157,-4.033791E-05
408.4157,-4.032284E-05
408.5157,-4.034168E-05
408.6157,-4.035204E-05
408.7157,-4.03106E-05
408.8157,-4.030401E-05
408.9157,-4.027199E-05
409.0157,-4.025221E-05
409.1158,-4.026634E-05
409.2158,-4.025504E-05
409.3158,-4.022961E-05
409.4158,-4.024374E-05
409.5158,-4.021266E-05
409.6158,-4.01571E-05
409.7158,-4.014014E-05
409.8158,-4.013826E-05
409.9158,-4.010342E-05
410.0158,-4.006481E-05
410.1158,-4.008082E-05
410.2158,-4.006104E-05
410.3158,-3.999982E-05
410.4158,-4.001867E-05
410.5158,-4.000925E-05
410.6158,-3.991602E-05
410.7159,-3.992637E-05
410.8159,-3.996122E-05
410.9159,-3.987081E-05
411.0159,-3.986422E-05
411.1159,-3.988965E-05
411.2159,-3.98774E-05
411.3159,-3.981148E-05
411.4159,-3.984915E-05
411.5159,-3.981902E-05
411.6159,-3.978888E-05
411.7159,-3.976345E-05
411.8159,-3.975969E-05
411.9159,-3.974933E-05
412.0159,-3.972955E-05
412.1159,-3.970884E-05
412.2159,-3.967776E-05
412.3159,-3.967493E-05
412.416,-3.966269E-05
412.516,-3.963067E-05
412.616,-3.9593E-05
412.716,-3.959865E-05
412.816,-3.957887E-05
412.916,-3.956192E-05
413.016,-3.959206E-05
413.116,-3.958923E-05
413.216,-3.954215E-05
413.316,-3.956098E-05
413.416,-3.951766E-05
413.516,-3.947529E-05
413.616,-3.945928E-05
413.716,-3.943102E-05
413.816,-3.940654E-05
413.916,-3.938771E-05
414.0161,-3.936981E-05
414.1161,-3.933497E-05
414.2161,-3.933685E-05
414.3161,-3.932178E-05
414.4161,-3.928035E-05
414.5161,-3.928411E-05
414.6161,-3.930954E-05
414.7161,-3.929636E-05
414.8161,-3.925303E-05
414.9161,-3.930107E-05
415.0161,-3.925963E-05
415.1161,-3.923138E-05
415.2161,-3.921537E-05
415.3161,-3.921442E-05
415.4161,-3.916922E-05
415.5161,-3.913061E-05
415.6161,-3.918523E-05
415.7162,-3.918052E-05
415.8162,-3.9092E-05
415.9162,-3.91485E-05
416.0162,-3.911272E-05
416.1162,-3.905527E-05
416.2162,-3.902702E-05
416.3162,-3.902043E-05
416.4162,-3.899594E-05
416.5162,-3.895827E-05
416.6162,-3.895733E-05
416.7162,-3.896863E-05
416.8162,-3.892437E-05
416.9162,-3.892061E-05
417.0162,-3.890554E-05
417.1162,-3.887258E-05
417.2162,-3.886221E-05
417.3163,-3.888199E-05
417.4163,-3.88415E-05
417.5163,-3.8801E-05
417.6163,-3.879912E-05
417.7163,-3.87963E-05
417.8163,-3.874638E-05
417.9163,-3.87445E-05
418.0163,-3.875015E-05
418.1163,-3.868988E-05
418.2163,-3.871531E-05
418.3163,-3.8688E-05
418.4163,-3.862867E-05
418.5163,-3.865598E-05
418.6163,-3.86654E-05
418.7163,-3.863244E-05
418.8163,-3.861454E-05
418.9164,-3.859948E-05
419.0164,-3.85618E-05
419.1164,-3.859948E-05
419.2164,-3.857781E-05
419.3164,-3.856275E-05
419.4164,-3.857405E-05
419.5164,-3.860513E-05
419.6164,-3.856275E-05
419.7164,-3.857593E-05
419.8164,-3.858818E-05
419.9164,-3.855239E-05
420.0164,-3.852602E-05
420.1164,-3.854862E-05
420.2164,-3.847234E-05
420.3164,-3.846857E-05
420.4164,-3.846857E-05
420.5164,-3.847611E-05
420.6165,-3.84196E-05
420.7165,-3.840925E-05
420.8165,-3.839606E-05
420.9165,-3.836027E-05
421.0165,-3.830942E-05
421.1165,-3.834238E-05
421.2165,-3.831696E-05
421.3165,-3.827646E-05
421.4165,-3.827552E-05
421.5165,-3.82774E-05
421.6165,-3.821148E-05
421.7165,-3.819641E-05
421.8165,-3.820395E-05
421.9165,-3.816628E-05
422.0165,-3.813615E-05
422.1165,-3.816251E-05
422.2166,-3.812202E-05
422.3166,-3.809282E-05
422.4166,-3.81352E-05
422.5166,-3.813803E-05
422.6166,-3.810884E-05
422.7166,-3.815027E-05
422.8166,-3.815592E-05
422.9166,-3.800148E-05
423.0166,-3.80448E-05
423.1166,-3.801842E-05
423.2166,-3.794591E-05
423.3166,-3.794685E-05
423.4166,-3.797699E-05
423.5166,-3.790448E-05
423.6166,-3.789883E-05
423.7166,-3.788376E-05
423.8167,-3.786587E-05
423.9167,-3.785174E-05
424.0167,-3.787622E-05
424.1167,-3.783573E-05
424.2167,-3.780371E-05
424.3167,-3.782631E-05
424.4167,-3.781878E-05
424.5167,-3.777923E-05
424.6167,-3.777452E-05
424.7167,-3.77877E-05
424.8167,-3.775757E-05
424.9167,-3.771707E-05
425.0167,-3.773591E-05
425.1167,-3.773308E-05
425.2167,-3.767564E-05
425.3167,-3.767941E-05
425.4167,-3.767469E-05
425.5168,-3.761913E-05
425.6168,-3.760783E-05
425.7168,-3.76342E-05
425.8168,-3.758429E-05
425.9168,-3.756828E-05
426.0168,-3.759653E-05
426.1168,-3.754003E-05
426.2168,-3.750706E-05
426.3168,-3.756075E-05
426.4168,-3.75711E-05
426.5168,-3.751743E-05
426.6168,-3.751649E-05
426.7168,-3.751837E-05
426.8168,-3.751177E-05
426.9168,-3.745715E-05
427.0168,-3.746751E-05
427.1169,-3.746751E-05
427.2169,-3.74468E-05
427.3169,-3.744114E-05
427.4169,-3.740348E-05
427.5169,-3.741478E-05
427.6169,-3.740065E-05
427.7169,-3.737993E-05
427.8169,-3.733096E-05
427.9169,-3.736957E-05
428.0169,-3.734697E-05
428.1169,-3.729047E-05
428.2169,-3.732531E-05
428.3169,-3.728952E-05
428.4169,-3.725186E-05
428.5169,-3.726504E-05
428.6169,-3.726881E-05
428.7169,-3.722266E-05
428.817,-3.721325E-05
428.917,-3.721042E-05
429.017,-3.721607E-05
429.117,-3.718311E-05
429.217,-3.720665E-05
429.317,-3.720948E-05
429.417,-3.713603E-05
429.517,-3.714073E-05
429.617,-3.715392E-05
429.717,-3.708517E-05
429.817,-3.708894E-05
429.917,-3.711719E-05
430.017,-3.706257E-05
430.117,-3.701454E-05
430.217,-3.705221E-05
430.317,-3.705033E-05
430.4171,-3.70249E-05
430.5171,-3.7007E-05
430.6171,-3.702584E-05
430.7171,-3.698064E-05
430.8171,-3.697781E-05
430.9171,-3.697216E-05
431.0171,-3.693543E-05
431.1171,-3.694391E-05
431.2171,-3.691377E-05
431.3171,-3.689306E-05
431.4171,-3.685445E-05
431.5171,-3.686386E-05
431.6171,-3.682808E-05
431.7171,-3.679606E-05
431.8171,-3.681866E-05
431.9171,-3.678665E-05
432.0172,-3.676122E-05
432.1172,-3.67565E-05
432.2172,-3.675086E-05
432.3172,-3.670848E-05
432.4172,-3.670189E-05
432.5172,-3.671789E-05
432.6172,-3.66727E-05
432.7172,-3.670471E-05
432.8172,-3.670942E-05
432.9172,-3.668493E-05
433.0172,-3.669435E-05
433.1172,-3.671036E-05
433.2172,-3.668965E-05
433.3172,-3.664915E-05
433.4172,-3.66096E-05
433.5172,-3.661431E-05
433.6172,-3.657852E-05
433.7173,-3.659076E-05
433.8173,-3.660301E-05
433.9173,-3.655686E-05
434.0173,-3.652578E-05
434.1173,-3.653426E-05
434.2173,-3.649565E-05
434.3173,-3.647776E-05
434.4173,-3.644385E-05
434.5173,-3.643067E-05
434.6173,-3.645421E-05
434.7173,-3.648058E-05
434.8173,-3.646739E-05
434.9173,-3.642878E-05
435.0173,-3.645798E-05
435.1173,-3.641089E-05
435.2173,-3.635627E-05
435.3174,-3.637604E-05
435.4174,-3.634026E-05
435.5174,-3.634968E-05
435.6174,-3.635815E-05
435.7174,-3.629318E-05
435.8174,-3.630919E-05
435.9174,-3.631578E-05
436.0174,-3.629694E-05
436.1174,-3.626021E-05
436.2174,-3.628093E-05
436.3174,-3.623762E-05
436.4174,-3.622914E-05
436.5174,-3.621124E-05
436.6174,-3.621877E-05
436.7174,-3.616981E-05
436.8174,-3.617263E-05
436.9174,-3.619994E-05
437.0175,-3.618676E-05
437.1175,-3.613402E-05
437.2175,-3.616604E-05
437.3175,-3.613214E-05
437.4175,-3.611519E-05
437.5175,-3.614626E-05
437.6175,-3.6086E-05
437.7175,-3.605774E-05
437.8175,-3.605491E-05
437.9175,-3.603702E-05
438.0175,-3.599182E-05
438.1175,-3.598334E-05
438.2175,-3.597581E-05
438.3175,-3.593814E-05
438.4175,-3.591648E-05
438.5175,-3.595886E-05
438.6176,-3.590895E-05
438.7176,-3.588446E-05
438.8176,-3.58807E-05
438.9176,-3.588446E-05
439.0176,-3.582419E-05
439.1176,-3.581948E-05
439.2176,-3.584491E-05
439.3176,-3.577899E-05
439.4176,-3.575356E-05
439.5176,-3.580159E-05
439.6176,-3.575074E-05
439.7176,-3.570177E-05
439.8176,-3.573567E-05
439.9176,-3.575262E-05
440.0176,-3.569612E-05
440.1176,-3.570082E-05
440.2177,-3.571872E-05
440.3177,-3.565939E-05
440.4177,-3.56349E-05
440.5177,-3.566316E-05
440.6177,-3.562831E-05
440.7177,-3.559818E-05
440.8177,-3.560571E-05
440.9177,-3.562925E-05
441.0177,-3.557463E-05
441.1177,-3.558311E-05
441.2177,-3.557745E-05
441.3177,-3.553319E-05
441.4177,-3.56076E-05
441.5177,-3.556898E-05
441.6177,-3.553131E-05
441.7177,-3.556898E-05
441.8177,-3.553697E-05
441.9178,-3.548988E-05
442.0178,-3.54654E-05
442.1178,-3.547763E-05
442.2178,-3.543808E-05
442.3178,-3.539288E-05
442.4178,-3.539288E-05
442.5178,-3.537404E-05
442.6178,-3.534203E-05
442.7178,-3.534297E-05
442.8178,-3.533167E-05
442.9178,-3.52987E-05
443.0178,-3.528176E-05
443.1178,-3.525821E-05
443.2178,-3.525539E-05
443.3178,-3.524031E-05
443.4178,-3.523467E-05
443.5179,-3.520453E-05
443.6179,-3.521207E-05
443.7179,-3.521489E-05
443.8179,-3.51631E-05
443.9179,-3.516874E-05
444.0179,-3.517158E-05
444.1179,-3.513579E-05
444.2179,-3.511695E-05
444.3179,-3.511789E-05
444.4179,-3.508399E-05
444.5179,-3.506327E-05
444.6179,-3.506422E-05
444.7179,-3.505292E-05
444.8179,-3.499076E-05
444.9179,-3.49804E-05
445.0179,-3.501713E-05
445.118,-3.497004E-05
445.218,-3.493896E-05
445.318,-3.496063E-05
445.418,-3.496157E-05
445.518,-3.4906E-05
445.618,-3.495121E-05
445.718,-3.493708E-05
445.818,-3.490789E-05
445.918,-3.495686E-05
446.018,-3.494461E-05
446.118,-3.48834E-05
446.218,-3.486645E-05
446.318,-3.485139E-05
446.418,-3.483066E-05
446.518,-3.478735E-05
446.618,-3.477604E-05
446.718,-3.478264E-05
446.8181,-3.476286E-05
446.9181,-3.474497E-05
447.0181,-3.477887E-05
447.1181,-3.473178E-05
447.2181,-3.471672E-05
447.3181,-3.471201E-05
447.4181,-3.470071E-05
447.5181,-3.468846E-05
447.6181,-3.467151E-05
447.7181,-3.469506E-05
447.8181,-3.465833E-05
447.9181,-3.464044E-05
448.0181,-3.462537E-05
448.1181,-3.461689E-05
448.2181,-3.460465E-05
448.3181,-3.459052E-05
448.4182,-3.455663E-05
448.5182,-3.456227E-05
448.6182,-3.453402E-05
448.7182,-3.448317E-05
448.8182,-3.450577E-05
448.9182,-3.448317E-05
449.0182,-3.444644E-05
449.1182,-3.44568E-05
449.2182,-3.446245E-05
449.3182,-3.442101E-05
449.4182,-3.439464E-05
449.5182,-3.442101E-05
449.6182,-3.438146E-05
449.7182,-3.434756E-05
449.8182,-3.4389E-05
449.9182,-3.439182E-05
450.0182,-3.437393E-05
450.1183,-3.43485E-05
450.2183,-3.432589E-05
450.3183,-3.430518E-05
450.4183,-3.430236E-05
450.5183,-3.428635E-05
450.6183,-3.425621E-05
450.7183,-3.423549E-05
450.8183,-3.423549E-05
450.9183,-3.423173E-05
451.0183,-3.419876E-05
451.1183,-3.417805E-05
451.2183,-3.417899E-05
451.3183,-3.417522E-05
451.4183,-3.415356E-05
451.5183,-3.411495E-05
451.6183,-3.412908E-05
451.7184,-3.413096E-05
451.8184,-3.40914E-05
451.9184,-3.407351E-05
452.0184,-3.411212E-05
452.1184,-3.411024E-05
452.2184,-3.408105E-05
452.3184,-3.409988E-05
452.4184,-3.407351E-05
452.5184,-3.405656E-05
452.6184,-3.407822E-05
452.7184,-3.407634E-05
452.8184,-3.401795E-05
452.9184,-3.397746E-05
453.0184,-3.399912E-05
453.1184,-3.400571E-05
453.2184,-3.394921E-05
453.3185,-3.398311E-05
453.4185,-3.394826E-05
453.5185,-3.3904E-05
453.6185,-3.392849E-05
453.7185,-3.393602E-05
453.8185,-3.389929E-05
453.9185,-3.387481E-05
454.0185,-3.386916E-05
454.1185,-3.384279E-05
454.2185,-3.384373E-05
454.3185,-3.38296E-05
454.4185,-3.378535E-05
454.5185,-3.377875E-05
454.6185,-3.378911E-05
454.7185,-3.376463E-05
454.8185,-3.37392E-05
454.9185,-3.373261E-05
455.0186,-3.372601E-05
455.1186,-3.3694E-05
455.2186,-3.371472E-05
455.3186,-3.367893E-05
455.4186,-3.364879E-05
455.5186,-3.364314E-05
455.6186,-3.365067E-05
455.7186,-3.36309E-05
455.8186,-3.359229E-05
455.9186,-3.359511E-05
456.0186,-3.359888E-05
456.1186,-3.358381E-05
456.2186,-3.355462E-05
456.3186,-3.355745E-05
456.4186,-3.352636E-05
456.5186,-3.353296E-05
456.6187,-3.350847E-05
456.7187,-3.349717E-05
456.8187,-3.348399E-05
456.9187,-3.346986E-05
457.0187,-3.34774E-05
457.1187,-3.34661E-05
457.2187,-3.34887E-05
457.3187,-3.344255E-05
457.4187,-3.345856E-05
457.5187,-3.343785E-05
457.6187,-3.343408E-05
457.7187,-3.34322E-05
457.8187,-3.346233E-05
457.9187,-3.342654E-05
458.0187,-3.345573E-05
458.1187,-3.354143E-05
458.2188,-3.351977E-05
458.3188,-3.345668E-05
458.4188,-3.347646E-05
458.5188,-3.342654E-05
458.6188,-3.336156E-05
458.7188,-3.335026E-05
458.8188,-3.332295E-05
458.9188,-3.330223E-05
459.0188,-3.328246E-05
459.1188,-3.327304E-05
459.2188,-3.325703E-05
459.3188,-3.324762E-05
459.4188,-3.325327E-05
459.5188,-3.325044E-05
459.6188,-3.322313E-05
459.7188,-3.322784E-05
459.8188,-3.322596E-05
459.9189,-3.319394E-05
460.0189,-3.317981E-05
460.1189,-3.31638E-05
460.2189,-3.315627E-05
460.3189,-3.318263E-05
460.4189,-3.318828E-05
460.5189,-3.314779E-05
460.6189,-3.317133E-05
460.7189,-3.316475E-05
460.8189,-3.312425E-05
460.9189,-3.308658E-05
461.0189,-3.311389E-05
461.1189,-3.306021E-05
461.2189,-3.302254E-05
461.3189,-3.304702E-05
461.4189,-3.30442E-05
461.519,-3.298958E-05
461.619,-3.297922E-05
461.719,-3.299806E-05
461.819,-3.296792E-05
461.919,-3.293496E-05
462.019,-3.294438E-05
462.119,-3.292366E-05
462.219,-3.290294E-05
462.319,-3.29133E-05
462.419,-3.285209E-05
462.519,-3.283137E-05
462.619,-3.287469E-05
462.719,-3.283796E-05
462.819,-3.281724E-05
462.919,-3.286244E-05
463.019,-3.283702E-05
463.119,-3.280124E-05
463.2191,-3.283608E-05
463.3191,-3.28163E-05
463.4191,-3.277487E-05
463.5191,-3.279182E-05
463.6191,-3.283608E-05
463.7191,-3.279087E-05
463.8191,-3.272967E-05
463.9191,-3.277863E-05
464.0191,-3.272967E-05
464.1191,-3.270518E-05
464.2191,-3.27193E-05
464.3191,-3.26967E-05
464.4191,-3.267128E-05
464.5191,-3.264114E-05
464.6191,-3.265338E-05
464.7191,-3.263737E-05
464.8192,-3.256863E-05
464.9192,-3.263737E-05
465.0192,-3.25997E-05
465.1192,-3.256957E-05
465.2192,-3.257428E-05
465.3192,-3.259217E-05
465.4192,-3.254697E-05
465.5192,-3.252719E-05
465.6192,-3.252248E-05
465.7192,-3.250365E-05
465.8192,-3.251589E-05
465.9192,-3.250365E-05
466.0192,-3.249894E-05
466.1192,-3.245656E-05
466.2192,-3.246127E-05
466.3192,-3.245939E-05
466.4193,-3.243679E-05
466.5193,-3.246315E-05
466.6193,-3.245374E-05
466.7193,-3.241324E-05
466.8193,-3.241136E-05
466.9193,-3.241324E-05
467.0193,-3.239441E-05
467.1193,-3.2401E-05
467.2193,-3.23718E-05
467.3193,-3.234167E-05
467.4193,-3.234544E-05
467.5193,-3.234826E-05
467.6193,-3.232755E-05
467.7193,-3.228987E-05
467.8193,-3.229929E-05
467.9193,-3.228799E-05
468.0193,-3.226068E-05
468.1194,-3.227669E-05
468.2194,-3.224938E-05
468.3194,-3.221171E-05
468.4194,-3.221736E-05
468.5194,-3.222301E-05
468.6194,-3.216368E-05
468.7194,-3.219005E-05
468.8194,-3.223055E-05
468.9194,-3.223996E-05
469.0194,-3.220135E-05
469.1194,-3.221548E-05
469.2194,-3.221548E-05
469.3194,-3.216651E-05
469.4194,-3.213826E-05
469.5194,-3.214203E-05
469.6194,-3.213731E-05
469.7195,-3.213731E-05
469.8195,-3.211565E-05
469.9195,-3.211942E-05
470.0195,-3.210435E-05
470.1195,-3.207704E-05
470.2195,-3.209211E-05
470.3195,-3.205162E-05
470.4195,-3.201301E-05
470.5195,-3.203467E-05
470.6195,-3.202996E-05
470.7195,-3.202902E-05
470.8195,-3.199417E-05
470.9195,-3.20422E-05
471.0195,-3.202996E-05
471.1195,-3.200547E-05
471.2195,-3.202242E-05
471.3195,-3.197722E-05
471.4196,-3.195179E-05
471.5196,-3.19791E-05
471.6196,-3.194332E-05
471.7196,-3.192166E-05
471.8196,-3.192448E-05
471.9196,-3.189246E-05
472.0196,-3.191695E-05
472.1196,-3.189623E-05
472.2196,-3.188304E-05
472.3196,-3.19631E-05
472.4196,-3.192354E-05
472.5196,-3.189811E-05
472.6196,-3.188398E-05
472.7196,-3.186798E-05
472.8196,-3.183784E-05
472.9196,-3.180771E-05
473.0197,-3.179735E-05
473.1197,-3.180112E-05
473.2197,-3.179735E-05
473.3197,-3.179452E-05
473.4197,-3.177569E-05
473.5197,-3.177475E-05
473.6197,-3.175403E-05
473.7197,-3.173708E-05
473.8197,-3.172671E-05
473.9197,-3.169941E-05
474.0197,-3.168905E-05
474.1197,-3.168811E-05
474.2197,-3.167963E-05
474.3197,-3.165797E-05
474.4197,-3.164573E-05
474.5197,-3.161748E-05
474.6198,-3.165138E-05
474.7198,-3.161936E-05
474.8198,-3.15864E-05
474.9198,-3.160994E-05
475.0198,-3.161654E-05
475.1198,-3.15751E-05
475.2198,-3.158263E-05
475.3198,-3.159582E-05
475.4198,-3.156192E-05
475.5198,-3.151671E-05
475.6198,-3.152707E-05
475.7198,-3.152519E-05
475.8198,-3.150918E-05
475.9198,-3.156097E-05
476.0198,-3.153932E-05
476.1198,-3.149128E-05
476.2198,-3.153555E-05
476.3199,-3.149694E-05
476.4199,-3.146398E-05
476.5199,-3.145927E-05
476.6199,-3.14329E-05
476.7199,-3.143102E-05
476.8199,-3.140559E-05
476.9199,-3.139335E-05
477.0199,-3.13924E-05
477.1199,-3.138393E-05
477.2199,-3.136509E-05
477.3199,-3.136792E-05
477.4199,-3.135097E-05
477.5199,-3.135379E-05
477.6199,-3.134061E-05
477.7199,-3.132931E-05
477.8199,-3.132554E-05
477.92,-3.130011E-05
478.02,-3.128882E-05
478.12,-3.12841E-05
478.22,-3.128882E-05
478.32,-3.128505E-05
478.42,-3.126716E-05
478.52,-3.124738E-05
478.62,-3.123419E-05
478.72,-3.122572E-05
478.82,-3.1205E-05
478.92,-3.119182E-05
479.02,-3.121441E-05
479.12,-3.122478E-05
479.22,-3.120594E-05
479.32,-3.118145E-05
479.42,-3.119464E-05
479.5201,-3.117957E-05
479.6201,-3.116639E-05
479.7201,-3.115509E-05
479.8201,-3.119464E-05
479.9201,-3.117298E-05
480.0201,-3.112872E-05
480.1201,-3.118145E-05
480.2201,-3.115886E-05
480.3201,-3.110141E-05
480.4201,-3.115697E-05
480.5201,-3.114755E-05
480.6201,-3.111836E-05
480.7201,-3.110894E-05
480.8201,-3.111742E-05
480.9201,-3.110141E-05
481.0201,-3.104491E-05
481.1201,-3.106374E-05
481.2202,-3.108163E-05
481.3202,-3.101477E-05
481.4202,-3.103549E-05
481.5202,-3.103925E-05
481.6202,-3.098369E-05
481.7202,-3.09884E-05
481.8202,-3.097993E-05
481.9202,-3.095544E-05
482.0202,-3.092907E-05
482.1202,-3.092342E-05
482.2202,-3.093001E-05
482.3202,-3.090553E-05
482.4202,-3.091589E-05
482.5202,-3.08914E-05
482.6202,-3.085938E-05
482.7202,-3.085656E-05
482.8203,-3.087634E-05
482.9203,-3.084149E-05
483.0203,-3.084808E-05
483.1203,-3.081983E-05
483.2203,-3.083207E-05
483.3203,-3.080571E-05
483.4203,-3.0801E-05
483.5203,-3.079252E-05
483.6203,-3.079158E-05
483.7203,-3.081983E-05
483.8203,-3.078311E-05
483.9203,-3.075014E-05
484.0203,-3.076333E-05
484.1203,-3.075391E-05
484.2203,-3.072001E-05
484.3203,-3.072566E-05
484.4203,-3.071624E-05
484.5204,-3.069364E-05
484.6204,-3.069929E-05
484.7204,-3.068517E-05
484.8204,-3.069741E-05
484.9204,-3.06748E-05
485.0204,-3.068234E-05
485.1204,-3.063902E-05
485.2204,-3.064279E-05
485.3204,-3.064561E-05
485.4204,-3.065126E-05
485.5204,-3.062395E-05
485.6204,-3.061642E-05
485.7204,-3.059664E-05
485.8204,-3.058063E-05
485.9204,-3.05731E-05
486.0204,-3.058252E-05
486.1205,-3.053825E-05
486.2205,-3.052695E-05
486.3205,-3.054108E-05
486.4205,-3.051942E-05
486.5205,-3.047987E-05
486.6205,-3.051283E-05
486.7205,-3.051659E-05
486.8205,-3.048646E-05
486.9205,-3.050059E-05
487.0205,-3.049117E-05
487.1205,-3.045632E-05
487.2205,-3.043843E-05
487.3205,-3.042996E-05
487.4205,-3.042525E-05
487.5205,-3.040265E-05
487.6205,-3.042054E-05
487.7206,-3.038664E-05
487.8206,-3.034708E-05
487.9206,-3.037816E-05
488.0206,-3.035556E-05
488.1206,-3.031036E-05
488.2206,-3.03226E-05
488.3206,-3.034897E-05
488.4206,-3.030377E-05
488.5206,-3.02934E-05
488.6206,-3.029999E-05
488.7206,-3.026233E-05
488.8206,-3.022183E-05
488.9206,-3.021242E-05
489.0206,-3.025197E-05
489.1206,-3.02143E-05
489.2206,-3.020676E-05
489.3206,-3.024255E-05
489.4207,-3.024537E-05
489.5207,-3.023219E-05
489.6207,-3.023408E-05
489.7207,-3.022937E-05
489.8207,-3.023784E-05
489.9207,-3.024632E-05
490.0207,-3.020582E-05
490.1207,-3.021242E-05
490.2207,-3.022654E-05
490.3207,-3.022654E-05
490.4207,-3.020206E-05
490.5207,-3.020582E-05
490.6207,-3.021147E-05
490.7207,-3.020582E-05
490.8207,-3.018699E-05
490.9207,-3.019923E-05
491.0208,-3.019452E-05
491.1208,-3.020771E-05
491.2208,-3.019452E-05
491.3208,-3.018981E-05
491.4208,-3.020582E-05
491.5208,-3.018416E-05
491.6208,-3.018511E-05
491.7208,-3.018322E-05
491.8208,-3.017004E-05
491.9208,-3.014179E-05
492.0208,-3.014461E-05
492.1208,-3.016721E-05
492.2208,-3.013142E-05
492.3208,-3.013519E-05
492.4208,-3.013708E-05
492.5208,-3.012013E-05
492.6208,-3.009376E-05
492.7209,-3.011636E-05
492.8209,-3.006645E-05
492.9209,-3.005891E-05
493.0209,-3.006927E-05
493.1209,-3.00768E-05
493.2209,-3.002124E-05
493.3209,-3.002972E-05
493.4209,-3.004761E-05
493.5209,-3.001277E-05
493.6209,-2.997792E-05
493.7209,-3.000617E-05
493.8209,-3.000053E-05
493.9209,-2.996003E-05
494.0209,-2.997792E-05
494.1209,-2.998075E-05
494.2209,-2.995626E-05
494.321,-2.99346E-05
494.421,-2.995532E-05
494.521,-2.99459E-05
494.621,-2.994685E-05
494.721,-2.994214E-05
494.821,-2.995061E-05
494.921,-2.990729E-05
495.021,-2.990259E-05
495.121,-2.987622E-05
495.221,-2.9912E-05
495.321,-2.994779E-05
495.421,-2.988469E-05
495.521,-2.986586E-05
495.621,-2.989976E-05
495.721,-2.982725E-05
495.821,-2.983478E-05
495.9211,-2.984043E-05
496.0211,-2.985173E-05
496.1211,-2.97811E-05
496.2211,-2.980653E-05
496.3211,-2.981406E-05
496.4211,-2.976038E-05
496.5211,-2.978016E-05
496.6211,-2.977733E-05
496.7211,-2.974343E-05
496.8211,-2.97246E-05
496.9211,-2.978675E-05
497.0211,-2.978016E-05
497.1211,-2.971612E-05
497.2211,-2.97133E-05
497.3211,-2.974249E-05
497.4211,-2.970294E-05
497.5211,-2.965491E-05
497.6212,-2.968128E-05
497.7212,-2.969164E-05
497.8212,-2.964172E-05
497.9212,-2.965679E-05
498.0212,-2.964078E-05
498.1212,-2.959652E-05
498.2212,-2.962477E-05
498.3212,-2.962195E-05
498.4212,-2.955603E-05
498.5212,-2.956921E-05
498.6212,-2.959746E-05
498.7212,-2.95645E-05
498.8212,-2.954096E-05
498.9212,-2.956074E-05
499.0212,-2.951648E-05
499.1212,-2.949293E-05
499.2213,-2.9508E-05
499.3213,-2.950894E-05
499.4213,-2.949011E-05
499.5213,-2.955885E-05
499.6213,-2.952307E-05
499.7213,-2.9508E-05
499.8213,-2.954379E-05
499.9213,-2.950612E-05
500.0213,-2.946562E-05
500.1213,-2.946374E-05
500.2213,-2.946656E-05
500.3213,-2.942795E-05
500.4213,-2.944679E-05
500.5213,-2.943172E-05
500.6213,-2.942984E-05
500.7213,-2.940818E-05
500.8214,-2.942513E-05
500.9214,-2.938652E-05
501.0214,-2.936486E-05
501.1214,-2.937898E-05
501.2214,-2.933943E-05
501.3214,-2.934131E-05
501.4214,-2.932154E-05
501.5214,-2.933378E-05
501.6214,-2.929988E-05
501.7214,-2.93027E-05
501.8214,-2.931212E-05
501.9214,-2.929705E-05
502.0214,-2.926974E-05
502.1214,-2.931306E-05
502.2214,-2.925091E-05
502.3214,-2.924997E-05
502.4214,-2.929046E-05
502.5215,-2.926598E-05
502.6215,-2.921795E-05
502.7215,-2.921229E-05
502.8215,-2.923113E-05
502.9215,-2.919629E-05
503.0215,-2.917463E-05
503.1215,-2.919346E-05
503.2215,-2.91831E-05
503.3215,-2.915391E-05
503.4215,-2.915485E-05
503.5215,-2.914543E-05
503.6215,-2.911718E-05
503.7215,-2.910588E-05
503.8215,-2.912471E-05
503.9215,-2.909081E-05
504.0215,-2.907104E-05
504.1216,-2.909835E-05
504.2216,-2.909081E-05
504.3216,-2.906162E-05
504.4216,-2.909835E-05
504.5216,-2.908516E-05
504.6216,-2.903243E-05
504.7216,-2.907386E-05
504.8216,-2.905032E-05
504.9216,-2.903243E-05
505.0216,-2.912283E-05
505.1216,-2.90861E-05
505.2216,-2.904938E-05
505.3216,-2.907198E-05
505.4216,-2.905691E-05
505.5216,-2.901171E-05
505.6216,-2.900888E-05
505.7216,-2.901077E-05
505.8217,-2.898251E-05
505.9217,-2.89618E-05
506.0217,-2.898816E-05
506.1217,-2.898816E-05
506.2217,-2.892507E-05
506.3217,-2.899287E-05
506.4217,-2.895426E-05
506.5217,-2.894861E-05
506.6217,-2.89731E-05
506.7217,-2.897498E-05
506.8217,-2.893166E-05
506.9217,-2.894296E-05
507.0217,-2.892601E-05
507.1217,-2.892507E-05
507.2217,-2.887704E-05
507.3217,-2.889682E-05
507.4218,-2.884691E-05
507.5218,-2.884314E-05
507.6218,-2.886574E-05
507.7218,-2.882524E-05
507.8218,-2.88243E-05
507.9218,-2.881865E-05
508.0218,-2.882619E-05
508.1218,-2.879228E-05
508.2218,-2.879793E-05
508.3218,-2.880641E-05
508.4218,-2.879888E-05
508.5218,-2.876592E-05
508.6218,-2.879323E-05
508.7218,-2.87565E-05
508.8218,-2.872448E-05
508.9218,-2.871412E-05
509.0219,-2.872354E-05
509.1219,-2.87047E-05
509.2219,-2.868681E-05
509.3219,-2.87047E-05
509.4219,-2.86821E-05
509.5219,-2.86595E-05
509.6219,-2.867268E-05
509.7219,-2.863878E-05
509.8219,-2.861712E-05
509.9219,-2.865291E-05
510.0219,-2.864255E-05
510.1219,-2.860394E-05
510.2219,-2.865762E-05
510.3219,-2.861053E-05
510.4219,-2.859452E-05
510.5219,-2.862466E-05
510.6219,-2.861995E-05
510.722,-2.858981E-05
510.822,-2.856533E-05
510.922,-2.860394E-05
511.022,-2.857475E-05
511.122,-2.853519E-05
511.222,-2.858039E-05
511.322,-2.855214E-05
511.422,-2.850788E-05
511.522,-2.853896E-05
511.622,-2.853425E-05
511.722,-2.852295E-05
511.822,-2.850506E-05
511.922,-2.8506E-05
512.022,-2.851824E-05
512.122,-2.84655E-05
512.222,-2.850694E-05
512.322,-2.851918E-05
512.4219,-2.844855E-05
512.5219,-2.850223E-05
512.6219,-2.849281E-05
512.7219,-2.845797E-05
512.8218,-2.843631E-05
512.9218,-2.846174E-05
513.0218,-2.842972E-05
513.1218,-2.840994E-05
513.2217,-2.841936E-05
513.3217,-2.842124E-05
513.4217,-2.838546E-05
513.5217,-2.839676E-05
513.6216,-2.83977E-05
513.7216,-2.837698E-05
513.8216,-2.837604E-05
513.9216,-2.835815E-05
514.0215,-2.83459E-05
514.1215,-2.833084E-05
514.2215,-2.831577E-05
514.3215,-2.832707E-05
514.4214,-2.831294E-05
514.5214,-2.832424E-05
514.6214,-2.832801E-05
514.7214,-2.831389E-05
514.8214,-2.830353E-05
514.9213,-2.828657E-05
515.0213,-2.829976E-05
515.1213,-2.833084E-05
515.2213,-2.82894E-05
515.3212,-2.826209E-05
515.4212,-2.832613E-05
515.5212,-2.827339E-05
515.6212,-2.823855E-05
515.7211,-2.826868E-05
515.8211,-2.82489E-05
515.9211,-2.820182E-05
516.0211,-2.82037E-05
516.121,-2.823384E-05
516.221,-2.820182E-05
516.321,-2.815379E-05
516.421,-2.822348E-05
516.5209,-2.818769E-05
516.6209,-2.814155E-05
516.7209,-2.817922E-05
516.8209,-2.816603E-05
516.9208,-2.812271E-05
517.0208,-2.811518E-05
517.1208,-2.816132E-05
517.2208,-2.81246E-05
517.3207,-2.809634E-05
517.4207,-2.810199E-05
517.5207,-2.810482E-05
517.6207,-2.808504E-05
517.7206,-2.808975E-05
517.8206,-2.811706E-05
517.9206,-2.808787E-05
518.0206,-2.813401E-05
518.1205,-2.811706E-05
518.2205,-2.809917E-05
518.3205,-2.808693E-05
518.4205,-2.806433E-05
518.5204,-2.80615E-05
518.6204,-2.803325E-05
518.7204,-2.803042E-05
518.8204,-2.80389E-05
518.9203,-2.802383E-05
519.0203,-2.801724E-05
519.1203,-2.800405E-05
519.2203,-2.79824E-05
519.3203,-2.800782E-05
519.4202,-2.798334E-05
519.5202,-2.793908E-05
519.6202,-2.79711E-05
519.7202,-2.796921E-05
519.8201,-2.791271E-05
519.9201,-2.794661E-05
520.0201,-2.795791E-05
520.1201,-2.790141E-05
520.22,-2.790141E-05
520.32,-2.79193E-05
520.42,-2.787598E-05
520.52,-2.786091E-05
520.6199,-2.792118E-05
520.7199,-2.794755E-05
520.8199,-2.788257E-05
520.9199,-2.789858E-05
521.0198,-2.790706E-05
521.1198,-2.787786E-05
521.2198,-2.790611E-05
521.3198,-2.792872E-05
521.4197,-2.78854E-05
521.5197,-2.786845E-05
521.6197,-2.789387E-05
521.7197,-2.788822E-05
521.8196,-2.78449E-05
521.9196,-2.785903E-05
522.0196,-2.784773E-05
522.1196,-2.782795E-05
522.2195,-2.784302E-05
522.3195,-2.78223E-05
522.4195,-2.780818E-05
522.5195,-2.780912E-05
522.6194,-2.780064E-05
522.7194,-2.778369E-05
522.8194,-2.776015E-05
522.9194,-2.776297E-05
523.0193,-2.776768E-05
523.1193,-2.773849E-05
523.2193,-2.775167E-05
523.3193,-2.772059E-05
523.4193,-2.771777E-05
523.5192,-2.773001E-05
523.6192,-2.770647E-05
523.7192,-2.769705E-05
523.8192,-2.769234E-05
523.9191,-2.768763E-05
524.0191,-2.769046E-05
524.1191,-2.768104E-05
524.2191,-2.767633E-05
524.319,-2.76575E-05
524.419,-2.766221E-05
524.519,-2.765467E-05
524.619,-2.762265E-05
524.7189,-2.761041E-05
524.8189,-2.76236E-05
524.9189,-2.760947E-05
525.0189,-2.761606E-05
525.1188,-2.760853E-05
525.2188,-2.75944E-05
525.3188,-2.757557E-05
525.4188,-2.759534E-05
525.5187,-2.758687E-05
525.6187,-2.755673E-05
525.7187,-2.755014E-05
525.8187,-2.755673E-05
525.9186,-2.752942E-05
526.0186,-2.753319E-05
526.1186,-2.753696E-05
526.2186,-2.753602E-05
526.3185,-2.75266E-05
526.4185,-2.753507E-05
526.5185,-2.75379E-05
526.6185,-2.750305E-05
526.7184,-2.750211E-05
526.8184,-2.749646E-05
526.9184,-2.74927E-05
527.0184,-2.747763E-05
527.1183,-2.74635E-05
527.2183,-2.744655E-05
527.3183,-2.743525E-05
527.4183,-2.746633E-05
527.5182,-2.744467E-05
527.6182,-2.743525E-05
527.7182,-2.743619E-05
527.8182,-2.742866E-05
527.9182,-2.741359E-05
528.0181,-2.741077E-05
528.1181,-2.743337E-05
528.2181,-2.739099E-05
528.3181,-2.737309E-05
528.418,-2.738157E-05
528.518,-2.736274E-05
528.618,-2.735143E-05
528.718,-2.736556E-05
528.8179,-2.733543E-05
528.9179,-2.733543E-05
529.0179,-2.736556E-05
529.1179,-2.733637E-05
529.2178,-2.732224E-05
529.3178,-2.731471E-05
529.4178,-2.732789E-05
529.5178,-2.731282E-05
529.6177,-2.731E-05
529.7177,-2.73326E-05
529.8177,-2.733166E-05
529.9177,-2.728834E-05
530.0176,-2.733166E-05
530.1176,-2.729587E-05
530.2176,-2.726103E-05
530.3176,-2.728834E-05
530.4175,-2.728646E-05
530.5175,-2.724031E-05
530.6175,-2.724219E-05
530.7175,-2.726197E-05
530.8174,-2.721488E-05
530.9174,-2.721677E-05
531.0174,-2.72582E-05
531.1174,-2.721488E-05
531.2173,-2.719323E-05
531.3173,-2.721018E-05
531.4173,-2.723466E-05
531.5173,-2.720735E-05
531.6172,-2.721018E-05
531.7172,-2.722995E-05
531.8172,-2.716026E-05
531.9172,-2.717157E-05
532.0172,-2.719323E-05
532.1171,-2.713672E-05
532.2171,-2.714237E-05
532.3171,-2.714614E-05
532.4171,-2.713955E-05
532.517,-2.713672E-05
532.617,-2.712636E-05
532.717,-2.712259E-05
532.817,-2.712448E-05
532.9169,-2.711977E-05
533.0169,-2.712542E-05
533.1169,-2.708398E-05
533.2169,-2.710941E-05
533.3168,-2.709905E-05
533.4168,-2.710376E-05
533.5168,-2.709434E-05
533.6168,-2.707739E-05
533.7167,-2.707833E-05
533.8167,-2.705291E-05
533.9167,-2.705479E-05
534.0167,-2.705291E-05
534.1166,-2.701147E-05
534.2166,-2.70143E-05
534.3166,-2.702748E-05
534.4166,-2.701147E-05
534.5165,-2.701053E-05
534.6165,-2.701335E-05
534.7165,-2.700582E-05
534.8165,-2.698228E-05
534.9164,-2.699452E-05
535.0164,-2.69964E-05
535.1164,-2.698416E-05
535.2164,-2.69851E-05
535.3163,-2.698228E-05
535.4163,-2.695214E-05
535.5163,-2.694837E-05
535.6163,-2.694272E-05
535.7162,-2.693048E-05
535.8162,-2.693048E-05
535.9162,-2.693613E-05
536.0162,-2.690882E-05
536.1161,-2.6906E-05
536.2161,-2.690223E-05
536.3161,-2.688716E-05
536.4161,-2.68994E-05
536.5161,-2.687774E-05
536.616,-2.684478E-05
536.716,-2.688999E-05
536.816,-2.688151E-05
536.916,-2.687963E-05
537.0159,-2.687115E-05
537.1159,-2.688905E-05
537.2159,-2.686173E-05
537.3159,-2.682406E-05
537.4158,-2.683819E-05
537.5158,-2.68429E-05
537.6158,-2.679581E-05
537.7158,-2.685138E-05
537.8157,-2.682406E-05
537.9157,-2.67977E-05
538.0157,-2.681277E-05
538.1157,-2.678734E-05
538.2156,-2.675909E-05
538.3156,-2.677886E-05
538.4156,-2.676285E-05
538.5156,-2.675344E-05
538.6155,-2.675815E-05
538.7155,-2.675249E-05
538.8155,-2.67233E-05
538.9155,-2.674119E-05
539.0154,-2.67572E-05
539.1154,-2.674213E-05
539.2154,-2.67233E-05
539.3154,-2.67572E-05
539.4153,-2.671859E-05
539.5153,-2.670447E-05
539.6153,-2.675626E-05
539.7153,-2.672424E-05
539.8152,-2.670541E-05
539.9152,-2.670258E-05
540.0152,-2.673743E-05
540.1152,-2.670258E-05
540.2151,-2.668186E-05
540.3151,-2.672613E-05
540.4151,-2.670729E-05
540.5151,-2.664608E-05
540.6151,-2.667904E-05
540.715,-2.664702E-05
540.815,-2.662442E-05
540.915,-2.662159E-05
541.015,-2.664137E-05
541.1149,-2.661312E-05
541.2149,-2.658298E-05
541.3149,-2.66037E-05
541.4149,-2.658487E-05
541.5148,-2.655473E-05
541.6148,-2.659052E-05
541.7148,-2.657074E-05
541.8148,-2.65472E-05
541.9147,-2.654249E-05
542.0147,-2.654249E-05
542.1147,-2.652177E-05
542.2147,-2.65293E-05
542.3146,-2.652083E-05
542.4146,-2.650199E-05
542.5146,-2.650953E-05
542.6146,-2.649258E-05
542.7145,-2.647186E-05
542.8145,-2.649917E-05
542.9145,-2.648598E-05
543.0145,-2.647562E-05
543.1144,-2.647657E-05
543.2144,-2.648881E-05
543.3144,-2.644078E-05
543.4144,-2.643607E-05
543.5143,-2.645679E-05
543.6143,-2.642195E-05
543.7143,-2.639087E-05
543.8143,-2.64323E-05
543.9142,-2.64502E-05
544.0142,-2.640405E-05
544.1142,-2.642289E-05
544.2142,-2.642571E-05
544.3141,-2.642383E-05
544.4141,-2.642006E-05
544.5141,-2.638899E-05
544.6141,-2.638051E-05
544.7141,-2.640029E-05
544.814,-2.638051E-05
544.914,-2.636733E-05
545.014,-2.640029E-05
545.114,-2.638804E-05
545.2139,-2.635697E-05
545.3139,-2.636733E-05
545.4139,-2.638993E-05
545.5139,-2.633625E-05
545.6138,-2.633907E-05
545.7138,-2.635414E-05
545.8138,-2.634661E-05
545.9138,-2.62854E-05
546.0137,-2.629481E-05
546.1137,-2.632401E-05
546.2137,-2.629481E-05
546.3137,-2.626844E-05
546.4136,-2.629105E-05
546.5136,-2.628822E-05
546.6136,-2.626279E-05
546.7136,-2.627692E-05
546.8135,-2.628163E-05
546.9135,-2.62741E-05
547.0135,-2.626562E-05
547.1135,-2.626279E-05
547.2134,-2.625903E-05
547.3134,-2.623642E-05
547.4134,-2.622418E-05
547.5134,-2.625149E-05
547.6133,-2.622983E-05
547.7133,-2.621665E-05
547.8133,-2.620158E-05
547.9133,-2.622889E-05
548.0132,-2.620817E-05
548.1132,-2.618651E-05
548.2132,-2.616109E-05
548.3132,-2.621665E-05
548.4131,-2.615638E-05
548.5131,-2.616485E-05
548.6131,-2.61884E-05
548.7131,-2.615638E-05
548.813,-2.614225E-05
548.913,-2.612059E-05
549.013,-2.615261E-05
549.113,-2.614037E-05
549.213,-2.609799E-05
549.3129,-2.616109E-05
549.4129,-2.613001E-05
549.5129,-2.609328E-05
549.6129,-2.613189E-05
549.7128,-2.611871E-05
549.8128,-2.608198E-05
549.9128,-2.607256E-05
550.0128,-2.612718E-05
550.1127,-2.608198E-05
550.2127,-2.606503E-05
550.3127,-2.606974E-05
550.4127,-2.606409E-05
550.5126,-2.605561E-05
550.6126,-2.605656E-05
550.7126,-2.604619E-05
550.8126,-2.604808E-05
550.9125,-2.605373E-05
551.0125,-2.603678E-05
551.1125,-2.599252E-05
551.2125,-2.603207E-05
551.3124,-2.603207E-05
551.4124,-2.59831E-05
551.5124,-2.598875E-05
551.6124,-2.600758E-05
551.7123,-2.600476E-05
551.8123,-2.601606E-05
551.9123,-2.598593E-05
552.0123,-2.59944E-05
552.1122,-2.601229E-05
552.2122,-2.59831E-05
552.3122,-2.596333E-05
552.4122,-2.598404E-05
552.5121,-2.600382E-05
552.6121,-2.598027E-05
552.7121,-2.596333E-05
552.8121,-2.603113E-05
552.912,-2.59605E-05
553.012,-2.594449E-05
553.112,-2.596709E-05
553.212,-2.593413E-05
553.312,-2.592753E-05
553.4119,-2.593884E-05
553.5119,-2.592377E-05
553.6119,-2.590117E-05
553.7119,-2.58861E-05
553.8118,-2.591529E-05
553.9118,-2.588704E-05
554.0118,-2.588045E-05
554.1118,-2.587763E-05
554.2117,-2.588516E-05
554.3117,-2.587198E-05
554.4117,-2.589458E-05
554.5117,-2.58861E-05
554.6116,-2.584467E-05
554.7116,-2.592753E-05
554.8116,-2.587763E-05
554.9116,-2.587951E-05
555.0115,-2.589269E-05
555.1115,-2.589646E-05
555.2115,-2.584184E-05
555.3115,-2.585126E-05
555.4114,-2.587292E-05
555.5114,-2.585314E-05
555.6114,-2.579287E-05
555.7114,-2.58748E-05
555.8113,-2.583619E-05
555.9113,-2.582489E-05
556.0113,-2.583525E-05
556.1113,-2.585032E-05
556.2112,-2.582677E-05
556.3112,-2.580888E-05
556.4112,-2.58409E-05
556.5112,-2.582395E-05
556.6111,-2.578534E-05
556.7111,-2.582112E-05
556.8111,-2.579946E-05
556.9111,-2.575614E-05
557.011,-2.580511E-05
557.111,-2.578816E-05
557.211,-2.575897E-05
557.311,-2.577027E-05
557.4109,-2.578157E-05
557.5109,-2.574579E-05
557.6109,-2.574673E-05
557.7109,-2.577592E-05
557.8109,-2.577686E-05
557.9108,-2.575803E-05
558.0108,-2.576462E-05
558.1108,-2.576462E-05
558.2108,-2.572224E-05
558.3107,-2.57439E-05
558.4107,-2.573354E-05
558.5107,-2.57213E-05
558.6107,-2.570058E-05
558.7106,-2.56987E-05
558.8106,-2.56987E-05
558.9106,-2.570623E-05
559.0106,-2.569587E-05
559.1105,-2.570811E-05
559.2105,-2.567704E-05
559.3105,-2.566009E-05
559.4105,-2.567139E-05
559.5104,-2.565632E-05
559.6104,-2.564408E-05
559.7104,-2.565161E-05
559.8104,-2.56469E-05
559.9103,-2.564596E-05
560.0103,-2.562995E-05
560.1103,-2.562713E-05
560.2103,-2.561017E-05
560.3102,-2.561017E-05
560.4102,-2.561488E-05
560.5102,-2.559605E-05
560.6102,-2.564784E-05
560.7101,-2.562713E-05
560.8101,-2.560546E-05
560.9101,-2.564408E-05
561.0101,-2.56356E-05
561.11,-2.5613E-05
561.21,-2.560076E-05
561.31,-2.559134E-05
561.41,-2.557627E-05
561.5099,-2.558475E-05
561.6099,-2.558192E-05
561.7099,-2.560641E-05
561.8099,-2.556685E-05
561.9099,-2.562807E-05
562.0098,-2.558757E-05
562.1098,-2.558757E-05
562.2098,-2.562524E-05
562.3098,-2.561017E-05
562.4097,-2.557439E-05
562.5097,-2.555932E-05
562.6097,-2.557627E-05
562.7097,-2.554048E-05
562.8096,-2.552824E-05
562.9096,-2.554237E-05
563.0096,-2.556026E-05
563.1096,-2.552353E-05
563.2095,-2.55565E-05
563.3095,-2.555085E-05
563.4095,-2.552448E-05
563.5095,-2.553201E-05
563.6094,-2.551883E-05
563.7094,-2.553578E-05
563.8094,-2.549717E-05
563.9094,-2.549528E-05
564.0093,-2.551883E-05
564.1093,-2.550658E-05
564.2093,-2.552919E-05
564.3093,-2.553954E-05
564.4092,-2.550941E-05
564.5092,-2.551318E-05
564.6092,-2.548116E-05
564.7092,-2.546044E-05
564.8091,-2.54595E-05
564.9091,-2.547174E-05
565.0091,-2.546232E-05
565.1091,-2.543878E-05
565.209,-2.544443E-05
565.309,-2.545196E-05
565.409,-2.543407E-05
565.509,-2.543501E-05
565.6089,-2.545479E-05
565.7089,-2.541241E-05
565.8089,-2.542183E-05
565.9089,-2.54369E-05
566.0089,-2.542183E-05
566.1088,-2.540017E-05
566.2088,-2.539357E-05
566.3088,-2.541806E-05
566.4088,-2.539828E-05
566.5087,-2.539357E-05
566.6087,-2.543407E-05
566.7087,-2.543501E-05
566.8087,-2.543501E-05
566.9086,-2.545385E-05
567.0086,-2.541806E-05
567.1086,-2.545196E-05
567.2086,-2.543972E-05
567.3085,-2.543219E-05
567.4085,-2.540959E-05
567.5085,-2.540205E-05
567.6085,-2.539357E-05
567.7084,-2.538981E-05
567.8084,-2.537568E-05
567.9084,-2.539357E-05
568.0084,-2.537851E-05
568.1083,-2.539546E-05
568.2083,-2.540205E-05
568.3083,-2.539169E-05
568.4083,-2.536156E-05
568.5082,-2.536438E-05
568.6082,-2.534461E-05
568.7082,-2.53512E-05
568.8082,-2.53559E-05
568.9081,-2.53625E-05
569.0081,-2.533236E-05
569.1081,-2.533142E-05
569.2081,-2.534178E-05
569.308,-2.531165E-05
569.408,-2.531165E-05
569.508,-2.53399E-05
569.608,-2.530034E-05
569.7079,-2.529375E-05
569.8079,-2.533236E-05
569.9079,-2.532954E-05
570.0079,-2.528622E-05
570.1078,-2.531824E-05
570.2078,-2.534084E-05
570.3078,-2.528528E-05
570.4078,-2.531165E-05
570.5078,-2.532389E-05
570.6077,-2.527398E-05
570.7077,-2.528528E-05
570.8077,-2.529564E-05
570.9077,-2.527021E-05
571.0076,-2.52655E-05
571.1076,-2.529187E-05
571.2076,-2.526738E-05
571.3076,-2.526456E-05
571.4075,-2.528999E-05
571.5075,-2.529187E-05
571.6075,-2.526456E-05
571.7075,-2.529564E-05
571.8074,-2.530788E-05
571.9074,-2.525891E-05
572.0074,-2.531353E-05
572.1074,-2.529658E-05
572.2073,-2.526173E-05
572.3073,-2.523348E-05
572.4073,-2.524008E-05
572.5073,-2.523348E-05
572.6072,-2.522406E-05
572.7072,-2.523913E-05
572.8072,-2.523913E-05
572.9072,-2.519864E-05
573.0071,-2.520146E-05
573.1071,-2.520994E-05
573.2071,-2.519016E-05
573.3071,-2.517603E-05
573.407,-2.5209E-05
573.507,-2.516191E-05
573.607,-2.516756E-05
573.707,-2.521371E-05
573.8069,-2.515155E-05
573.9069,-2.513931E-05
574.0069,-2.519487E-05
574.1069,-2.521371E-05
574.2068,-2.515061E-05
574.3068,-2.522218E-05
574.4068,-2.519487E-05
574.5068,-2.51572E-05
574.6068,-2.517039E-05
574.7067,-2.517133E-05
574.8067,-2.515061E-05
574.9067,-2.514778E-05
575.0067,-2.516191E-05
575.1066,-2.515532E-05
575.2066,-2.512142E-05
575.3066,-2.514214E-05
575.4066,-2.515061E-05
575.5065,-2.508657E-05
575.6065,-2.513554E-05
575.7065,-2.514025E-05
575.8065,-2.509505E-05
575.9064,-2.510258E-05
576.0064,-2.513554E-05
576.1064,-2.509599E-05
576.2064,-2.509976E-05
576.3063,-2.510635E-05
576.4063,-2.509505E-05
576.5063,-2.508657E-05
576.6063,-2.509599E-05
576.7062,-2.511859E-05
576.8062,-2.506962E-05
576.9062,-2.512895E-05
577.0062,-2.509505E-05
577.1061,-2.50781E-05
577.2061,-2.506774E-05
577.3061,-2.50715E-05
577.4061,-2.50602E-05
577.506,-2.504702E-05
577.606,-2.503101E-05
577.706,-2.503383E-05
577.806,-2.504043E-05
577.9059,-2.504984E-05
578.0059,-2.501123E-05
578.1059,-2.505738E-05
578.2059,-2.505926E-05
578.3058,-2.501689E-05
578.4058,-2.499711E-05
578.5058,-2.504137E-05
578.6058,-2.499428E-05
578.7057,-2.501312E-05
578.8057,-2.501217E-05
578.9057,-2.498581E-05
579.0057,-2.49698E-05
579.1057,-2.495661E-05
579.2056,-2.498957E-05
579.3056,-2.493307E-05
579.4056,-2.494625E-05
579.5056,-2.495661E-05
579.6055,-2.495285E-05
579.7055,-2.495096E-05
579.8055,-2.497827E-05
579.9055,-2.49406E-05
580.0054,-2.493024E-05
580.1054,-2.493495E-05
580.2054,-2.49293E-05
580.3054,-2.491706E-05
580.4053,-2.491141E-05
580.5053,-2.491988E-05
580.6053,-2.491047E-05
580.7053,-2.490576E-05
580.8052,-2.491235E-05
580.9052,-2.489446E-05
581.0052,-2.491141E-05
581.1052,-2.490858E-05
581.2051,-2.488033E-05
581.3051,-2.489446E-05
581.4051,-2.490482E-05
581.5051,-2.487562E-05
581.605,-2.487656E-05
581.705,-2.487186E-05
581.805,-2.48841E-05
581.905,-2.487091E-05
582.0049,-2.486809E-05
582.1049,-2.485773E-05
582.2049,-2.488033E-05
582.3049,-2.48502E-05
582.4048,-2.484266E-05
582.5048,-2.483701E-05
582.6048,-2.483419E-05
582.7048,-2.48323E-05
582.8047,-2.483136E-05
582.9047,-2.483419E-05
583.0047,-2.48436E-05
583.1047,-2.48502E-05
583.2047,-2.483701E-05
583.3046,-2.480782E-05
583.4046,-2.481441E-05
583.5046,-2.479746E-05
583.6046,-2.478051E-05
583.7045,-2.482006E-05
583.8045,-2.479369E-05
583.9045,-2.477203E-05
584.0045,-2.481347E-05
584.1044,-2.475885E-05
584.2044,-2.475037E-05
584.3044,-2.476544E-05
584.4044,-2.476733E-05
584.5043,-2.47306E-05
584.6043,-2.476073E-05
584.7043,-2.475508E-05
584.8043,-2.473719E-05
584.9042,-2.472401E-05
585.0042,-2.474284E-05
585.1042,-2.472118E-05
585.2042,-2.469858E-05
585.3041,-2.47127E-05
585.4041,-2.473248E-05
585.5041,-2.468822E-05
585.6041,-2.467598E-05
585.704,-2.470046E-05
585.804,-2.469575E-05
585.904,-2.468163E-05
586.004,-2.467504E-05
586.1039,-2.468257E-05
586.2039,-2.467786E-05
586.3039,-2.466938E-05
586.4039,-2.466562E-05
586.5038,-2.467221E-05
586.6038,-2.467409E-05
586.7038,-2.467033E-05
586.8038,-2.467504E-05
586.9037,-2.464678E-05
587.0037,-2.465808E-05
587.1037,-2.465902E-05
587.2037,-2.4627E-05
587.3036,-2.461288E-05
587.4036,-2.461194E-05
587.5036,-2.46336E-05
587.6036,-2.462512E-05
587.7036,-2.461288E-05
587.8035,-2.463077E-05
587.9035,-2.460817E-05
588.0035,-2.46044E-05
588.1035,-2.460817E-05
588.2034,-2.460911E-05
588.3034,-2.458463E-05
588.4034,-2.457709E-05
588.5034,-2.459781E-05
588.6033,-2.458934E-05
588.7033,-2.458651E-05
588.8033,-2.459404E-05
588.9033,-2.459781E-05
589.0032,-2.456485E-05
589.1032,-2.456674E-05
589.2032,-2.459216E-05
589.3032,-2.460535E-05
589.4031,-2.454319E-05
589.5031,-2.456674E-05
589.6031,-2.456203E-05
589.7031,-2.455638E-05
589.803,-2.45366E-05
589.903,-2.454696E-05
590.003,-2.456297E-05
590.103,-2.450364E-05
590.2029,-2.455261E-05
590.3029,-2.457709E-05
590.4029,-2.452059E-05
590.5029,-2.454508E-05
590.6028,-2.453095E-05
590.7028,-2.451682E-05
590.8028,-2.450364E-05
590.9028,-2.4514E-05
591.0027,-2.4514E-05
591.1027,-2.447256E-05
591.2027,-2.448857E-05
591.3027,-2.451965E-05
591.4026,-2.447445E-05
591.5026,-2.449987E-05
591.6026,-2.450835E-05
591.7026,-2.445561E-05
591.8026,-2.445279E-05
591.9025,-2.446315E-05
592.0025,-2.444996E-05
592.1025,-2.444902E-05
592.2025,-2.446503E-05
592.3024,-2.445844E-05
592.4024,-2.444996E-05
592.5024,-2.445279E-05
592.6024,-2.446597E-05
592.7023,-2.44396E-05
592.8023,-2.447256E-05
592.9023,-2.445844E-05
593.0023,-2.440852E-05
593.1022,-2.444054E-05
593.2022,-2.44057E-05
593.3022,-2.438969E-05
593.4022,-2.440381E-05
593.5021,-2.440852E-05
593.6021,-2.438687E-05
593.7021,-2.437933E-05
593.8021,-2.439722E-05
593.902,-2.437745E-05
594.002,-2.434072E-05
594.102,-2.441512E-05
594.202,-2.437274E-05
594.3019,-2.434637E-05
594.4019,-2.438498E-05
594.5019,-2.438969E-05
594.6019,-2.435861E-05
594.7018,-2.435014E-05
594.8018,-2.436803E-05
594.9018,-2.435014E-05
595.0018,-2.432942E-05
595.1017,-2.433413E-05
595.2017,-2.432565E-05
595.3017,-2.432565E-05
595.4017,-2.433507E-05
595.5016,-2.432471E-05
595.6016,-2.430682E-05
595.7016,-2.43313E-05
595.8016,-2.42974E-05
595.9016,-2.427762E-05
596.0015,-2.43379E-05
596.1015,-2.433507E-05
596.2015,-2.427762E-05
596.3015,-2.432E-05
596.4014,-2.431812E-05
596.5014,-2.430117E-05
596.6014,-2.427762E-05
596.7014,-2.42974E-05
596.8013,-2.428893E-05
596.9013,-2.425314E-05
597.0013,-2.428893E-05
597.1013,-2.427951E-05
597.2012,-2.423336E-05
597.3012,-2.425126E-05
597.4012,-2.427668E-05
597.5012,-2.426256E-05
597.6011,-2.42117E-05
597.7011,-2.42522E-05
597.8011,-2.425879E-05
597.9011,-2.422771E-05
598.001,-2.425879E-05
598.101,-2.427291E-05
598.201,-2.423525E-05
598.301,-2.427574E-05
598.4009,-2.427103E-05
598.5009,-2.422583E-05
598.6009,-2.422583E-05
598.7009,-2.423995E-05
598.8008,-2.422583E-05
598.9008,-2.418627E-05
599.0008,-2.420134E-05
599.1008,-2.421076E-05
599.2007,-2.418533E-05
599.3007,-2.421735E-05
599.4007,-2.416838E-05
599.5007,-2.415143E-05
599.6006,-2.416744E-05
599.7006,-2.417686E-05
599.8006,-2.417403E-05
599.9006,-2.416462E-05
600.0005,-2.417121E-05
