EXPID. 0499
[电化学]: i-t : @ 0(V) X 600(sec)
起始电位 (V),0
静置时间 (秒),0
运行时间 (秒),600
记录间隔,0.1
电解液 信息:
HNO3,0.4
0.1,-0.01005814
0.2,-0.01005814
0.3,-0.01005814
0.4,-0.01005814
0.5,-0.01005814
0.6,-0.01005814
0.7,-0.01005814
0.8000001,-0.01005814
0.9000001,-0.01005814
1,-0.005132881
1.1,0.0001858499
1.2,-0.003272395
1.3,-0.005366025
1.4,-0.005707579
1.5,-0.005537717
1.6,-0.005341411
1.7,-0.005211228
1.8,-0.005101242
1.9,-0.004989043
2,-0.004878486
2.1,-0.004735346
2.2,-0.004607605
2.3,-0.004499639
2.4,-0.004387029
2.5,-0.00427688
2.6,-0.004203233
2.7,-0.004111905
2.799999,-0.004027966
2.899999,-0.003962793
2.999999,-0.003887262
3.099999,-0.003819934
3.199999,-0.003769018
3.299999,-0.003705505
3.399999,-0.003651424
3.499999,-0.003597045
3.599999,-0.003557539
3.699999,-0.003504561
3.799999,-0.003455927
3.899998,-0.003426558
3.999998,-0.003369757
4.099998,-0.003321411
4.199998,-0.003283077
4.299998,-0.003231973
4.399998,-0.003167972
4.499998,-0.003100631
4.599998,-0.003015331
4.699998,-0.002926874
4.799998,-0.002828749
4.899998,-0.002732688
4.999998,-0.002640774
5.099998,-0.002553138
5.199997,-0.002474815
5.299997,-0.00240142
5.399997,-0.002334658
5.499997,-0.002275092
5.599997,-0.002219373
5.699997,-0.002167759
5.799997,-0.002120995
5.899997,-0.002077953
5.999997,-0.002037066
6.099997,-0.002001663
6.199996,-0.001966175
6.299996,-0.001934974
6.399996,-0.001905304
6.499996,-0.00187652
6.599996,-0.001851775
6.699996,-0.001825611
6.799996,-0.001801997
6.899996,-0.001781355
6.999996,-0.001759076
7.099996,-0.001740258
7.199996,-0.001720708
7.299995,-0.00170179
7.399995,-0.001685913
7.499995,-0.001668611
7.599995,-0.001651232
7.699995,-0.001636063
7.799995,-0.001621102
7.899995,-0.001607048
7.999995,-0.00159243
8.099995,-0.001579117
8.199995,-0.001565989
8.299995,-0.001553166
8.399996,-0.001541669
8.499996,-0.001529644
8.599997,-0.001517418
8.699997,-0.001507294
8.799997,-0.001496059
8.899998,-0.001484962
8.999998,-0.001476674
9.099998,-0.001466628
9.199999,-0.001457372
9.299999,-0.001450059
9.4,-0.001442456
9.5,-0.001433871
9.6,-0.001425282
9.700001,-0.001415701
9.800001,-0.001406487
9.900002,-0.001397478
10,-0.001388692
10.1,-0.001380744
10.2,-0.001372668
10.3,-0.001365148
10.4,-0.00135729
10.5,-0.001349835
10.6,-0.001342573
10.7,-0.001335426
10.8,-0.001328594
10.90001,-0.001322073
11.00001,-0.001315143
11.10001,-0.001308619
11.20001,-0.001302763
11.30001,-0.001296022
11.40001,-0.001290224
11.50001,-0.001284023
11.60001,-0.001278285
11.70001,-0.001272578
11.80001,-0.001266686
11.90001,-0.001260714
12.00001,-0.001255498
12.10001,-0.001250005
12.20001,-0.001244517
12.30001,-0.001239373
12.40001,-0.001233987
12.50001,-0.001228987
12.60001,-0.001224197
12.70001,-0.001219359
12.80001,-0.001214436
12.90001,-0.001209782
13.00001,-0.001204651
13.10001,-0.001199847
13.20001,-0.001195924
13.30001,-0.001191175
13.40001,-0.001186249
13.50002,-0.001182069
13.60002,-0.001177894
13.70002,-0.001173135
13.80002,-0.001169122
13.90002,-0.001165145
14.00002,-0.001160802
14.10002,-0.00115683
14.20002,-0.001152763
14.30002,-0.001148534
14.40002,-0.001144477
14.50002,-0.001140605
14.60002,-0.001136285
14.70002,-0.001132779
14.80002,-0.001128668
14.90002,-0.001124823
15.00002,-0.001121362
15.10002,-0.001117648
15.20002,-0.001113898
15.30002,-0.00111079
15.40002,-0.00110705
15.50002,-0.001103227
15.60002,-0.001099995
15.70002,-0.001096342
15.80002,-0.001092891
15.90002,-0.001089573
16.00002,-0.001086215
16.10003,-0.001082893
16.20003,-0.001079679
16.30003,-0.001076292
16.40003,-0.001073332
16.50003,-0.001070021
16.60003,-0.001066845
16.70003,-0.001063931
16.80003,-0.001060761
16.90003,-0.001057635
17.00003,-0.001054666
17.10003,-0.00105154
17.20003,-0.00104875
17.30003,-0.001045701
17.40003,-0.001042716
17.50003,-0.001039964
17.60003,-0.001036996
17.70003,-0.001034002
17.80003,-0.001031296
17.90003,-0.001028446
18.00003,-0.001025557
18.10003,-0.001022771
18.20003,-0.001020127
18.30003,-0.00101729
18.40003,-0.001014591
18.50003,-0.001011973
18.60003,-0.001009411
18.70004,-0.001006697
18.80004,-0.001004092
18.90004,-0.001001679
19.00004,-0.0009989291
19.10004,-0.0009963479
19.20004,-0.0009940283
19.30004,-0.0009913858
19.40004,-0.0009888074
19.50004,-0.0009865434
19.60004,-0.0009841373
19.70004,-0.0009817322
19.80004,-0.0009791603
19.90004,-0.0009768455
20.00004,-0.0009746212
20.10004,-0.0009721896
20.20004,-0.0009699228
20.30004,-0.0009676975
20.40004,-0.00096541
20.50004,-0.0009631019
20.60004,-0.0009610084
20.70004,-0.0009586673
20.80004,-0.0009564232
20.90004,-0.0009542863
21.00004,-0.0009519838
21.10004,-0.0009498112
21.20004,-0.0009477375
21.30005,-0.00094558
21.40005,-0.0009437616
21.50005,-0.000941525
21.60005,-0.0009397366
21.70005,-0.0009374999
21.80005,-0.0009353292
21.90005,-0.000933313
22.00005,-0.000931229
22.10005,-0.000929288
22.20005,-0.0009273132
22.30005,-0.0009252659
22.40005,-0.0009233231
22.50005,-0.0009213634
22.60005,-0.0009193801
22.70005,-0.0009175004
22.80005,-0.0009154954
22.90005,-0.0009136685
23.00005,-0.0009118076
23.10005,-0.0009100447
23.20005,-0.0009081368
23.30005,-0.0009063324
23.40005,-0.000904432
23.50005,-0.0009028028
23.60005,-0.0009008026
23.70005,-0.0008991724
23.80005,-0.0008974415
23.90005,-0.0008956165
24.00006,-0.0008937716
24.10006,-0.0008921349
24.20006,-0.000890888
24.30006,-0.0008889905
24.40006,-0.000887025
24.50006,-0.0008857216
24.60006,-0.000883874
24.70006,-0.0008820037
24.80006,-0.0008803312
24.90006,-0.0008786606
25.00006,-0.0008767997
25.10006,-0.0008752939
25.20006,-0.0008735818
25.30006,-0.0008717304
25.40006,-0.0008701191
25.50006,-0.0008686302
25.60006,-0.0008668607
25.70006,-0.0008652268
25.80006,-0.0008636927
25.90006,-0.0008620173
26.00006,-0.0008605341
26.10006,-0.0008588918
26.20006,-0.000857401
26.30006,-0.0008556635
26.40006,-0.0008543009
26.50006,-0.0008528779
26.60007,-0.0008511894
26.70007,-0.0008496666
26.80007,-0.0008481664
26.90007,-0.0008465202
27.00007,-0.0008450389
27.10007,-0.0008436612
27.20007,-0.0008421204
27.30007,-0.0008405082
27.40007,-0.000839039
27.50007,-0.0008377094
27.60007,-0.0008361113
27.70007,-0.000834693
27.80007,-0.000833482
27.90007,-0.0008317266
28.00007,-0.0008302857
28.10007,-0.0008290021
28.20007,-0.0008276149
28.30007,-0.0008261364
28.40007,-0.000825044
28.50007,-0.0008234582
28.60007,-0.0008221576
28.70007,-0.000820779
28.80007,-0.00081934
28.90007,-0.0008179386
29.00007,-0.0008166061
29.10007,-0.0008151399
29.20008,-0.0008138205
29.30008,-0.0008125106
29.40008,-0.0008111196
29.50008,-0.0008098624
29.60008,-0.0008085769
29.70008,-0.000807073
29.80008,-0.0008057451
29.90008,-0.0008044936
30.00008,-0.0008031695
30.10008,-0.0008018746
30.20008,-0.0008005732
30.30008,-0.0007993809
30.40008,-0.0007979165
30.50008,-0.0007971001
30.60008,-0.0007959747
30.70008,-0.0007949039
30.80008,-0.0007950829
30.90008,-0.0007950565
31.00008,-0.0007940997
31.10008,-0.0007936005
31.20008,-0.0007930205
31.30008,-0.0007914657
31.40008,-0.0007900644
31.50008,-0.0007891858
31.60008,-0.0007884888
31.70008,-0.0007874379
31.80009,-0.0007870574
31.90009,-0.0007864237
32.00008,-0.0007848029
32.10008,-0.0007836313
32.20008,-0.0007815718
32.30008,-0.0007794935
32.40008,-0.0007777833
32.50008,-0.0007761296
32.60007,-0.0007744458
32.70007,-0.0007729917
32.80007,-0.0007713974
32.90007,-0.0007699772
33.00007,-0.0007686815
33.10007,-0.000767314
33.20007,-0.0007661029
33.30006,-0.0007648015
33.40006,-0.0007634981
33.50006,-0.0007622484
33.60006,-0.0007612107
33.70006,-0.0007600005
33.80006,-0.0007587207
33.90005,-0.0007576763
34.00005,-0.000756486
34.10005,-0.000755291
34.20005,-0.0007543181
34.30005,-0.0007532295
34.40005,-0.0007519694
34.50005,-0.0007509138
34.60004,-0.0007498854
34.70004,-0.0007486847
34.80004,-0.000747597
34.90004,-0.0007464961
35.00004,-0.0007453801
35.10004,-0.0007442454
35.20004,-0.0007431605
35.30003,-0.0007421387
35.40003,-0.0007410444
35.50003,-0.0007398814
35.60003,-0.0007389227
35.70003,-0.0007378557
35.80003,-0.0007366682
35.90002,-0.0007357886
36.00002,-0.0007348177
36.10002,-0.0007336189
36.20002,-0.0007327732
36.30002,-0.0007318136
36.40002,-0.0007306176
36.50002,-0.0007296391
36.60001,-0.0007287718
36.70001,-0.0007276634
36.80001,-0.0007265917
36.90001,-0.0007256989
37.00001,-0.0007246555
37.10001,-0.0007234981
37.2,-0.0007226279
37.3,-0.0007216108
37.4,-0.0007204158
37.5,-0.0007194731
37.6,-0.0007185522
37.7,-0.0007175039
37.8,-0.0007165726
37.89999,-0.0007158785
37.99999,-0.0007150903
38.09999,-0.0007141157
38.19999,-0.0007131824
38.29999,-0.0007123216
38.39999,-0.0007113055
38.49998,-0.0007103196
38.59998,-0.0007093627
38.69998,-0.0007082957
38.79998,-0.000707354
38.89998,-0.0007063793
38.99998,-0.0007052812
39.09998,-0.0007044403
39.19997,-0.000703638
39.29997,-0.000702587
39.39997,-0.0007018016
39.49997,-0.0007009587
39.59997,-0.0006999388
39.69997,-0.0006992645
39.79996,-0.0006983972
39.89996,-0.0006973698
39.99996,-0.000696688
40.09996,-0.0006958771
40.19996,-0.0006949062
40.29996,-0.0006939033
40.39996,-0.0006930548
40.49995,-0.00069221
40.59995,-0.000691142
40.69995,-0.000690272
40.79995,-0.000689414
40.89995,-0.0006883988
40.99995,-0.0006875532
41.09995,-0.0006866839
41.19994,-0.0006857027
41.29994,-0.0006848391
41.39994,-0.0006839991
41.49994,-0.0006830263
41.59994,-0.0006822154
41.69994,-0.0006814149
41.79993,-0.0006804487
41.89993,-0.0006795088
41.99993,-0.0006787102
42.09993,-0.0006779042
42.19993,-0.0006770492
42.29993,-0.0006763513
42.39993,-0.0006755065
42.49992,-0.0006745403
42.59992,-0.0006737596
42.69992,-0.0006729336
42.79992,-0.0006720042
42.89992,-0.0006711812
42.99992,-0.0006703176
43.09991,-0.0006694418
43.19991,-0.0006686507
43.29991,-0.0006678531
43.39991,-0.0006669923
43.49991,-0.0006661891
43.59991,-0.0006653857
43.69991,-0.000664524
43.7999,-0.0006636888
43.8999,-0.0006629127
43.9999,-0.000662036
44.0999,-0.0006612355
44.1999,-0.0006604567
44.2999,-0.0006596629
44.39989,-0.0006587597
44.49989,-0.0006581297
44.59989,-0.0006572407
44.69989,-0.0006563847
44.79989,-0.0006557283
44.89989,-0.0006549202
44.99989,-0.0006540624
45.09988,-0.0006534088
45.19988,-0.0006526375
45.29988,-0.0006517674
45.39988,-0.0006510761
45.49988,-0.0006502747
45.59988,-0.0006495364
45.69987,-0.0006489139
45.79987,-0.0006482161
45.89987,-0.0006475296
45.99987,-0.0006467366
46.09987,-0.0006463967
46.19987,-0.0006457657
46.29987,-0.0006452072
46.39986,-0.0006447976
46.49986,-0.0006441647
46.59986,-0.0006434528
46.69986,-0.0006428153
46.79986,-0.0006419753
46.89986,-0.0006412576
46.99986,-0.0006405372
47.09985,-0.0006397291
47.19985,-0.0006391585
47.29985,-0.0006382714
47.39985,-0.0006375001
47.49985,-0.0006367684
47.59985,-0.0006359585
47.69984,-0.0006352814
47.79984,-0.0006345177
47.89984,-0.0006338547
47.99984,-0.0006332209
48.09984,-0.0006325184
48.19984,-0.0006319006
48.29984,-0.0006311463
48.39983,-0.0006303496
48.49983,-0.0006297685
48.59983,-0.0006291978
48.69983,-0.000628726
48.79983,-0.0006284679
48.89983,-0.000628402
48.99982,-0.0006296574
49.09982,-0.0006303298
49.19982,-0.0006299249
49.29982,-0.0006294445
49.39982,-0.000628354
49.49982,-0.0006271844
49.59982,-0.0006262267
49.69981,-0.0006252558
49.79981,-0.0006241915
49.89981,-0.0006233298
49.99981,-0.0006224098
50.09981,-0.0006215133
50.19981,-0.0006205715
50.2998,-0.0006197193
50.3998,-0.0006188444
50.4998,-0.0006178679
50.5998,-0.0006170062
50.6998,-0.0006161191
50.7998,-0.0006152752
50.8998,-0.000614422
50.99979,-0.000613597
51.09979,-0.0006128033
51.19979,-0.0006120169
51.29979,-0.0006112211
51.39979,-0.0006104574
51.49979,-0.0006097896
51.59978,-0.0006089355
51.69978,-0.0006082481
51.79978,-0.0006075465
51.89978,-0.000606795
51.99978,-0.0006061395
52.09978,-0.0006054813
52.19978,-0.0006047636
52.29977,-0.000604128
52.39977,-0.0006033859
52.49977,-0.0006027672
52.59977,-0.0006021409
52.69977,-0.0006013489
52.79977,-0.0006006982
52.89977,-0.0006000841
52.99976,-0.000599329
53.09976,-0.0005986565
53.19976,-0.0005981414
53.29976,-0.0005973974
53.39976,-0.0005967881
53.49976,-0.0005961901
53.59975,-0.0005955112
53.69975,-0.0005947634
53.79975,-0.0005941673
53.89975,-0.0005934893
53.99975,-0.0005928818
54.09975,-0.0005921633
54.19975,-0.0005915936
54.29974,-0.0005908976
54.39974,-0.0005903062
54.49974,-0.0005896997
54.59974,-0.0005890198
54.69974,-0.0005883719
54.79974,-0.0005877654
54.89973,-0.0005870996
54.99973,-0.0005864347
55.09973,-0.0005859036
55.19973,-0.0005852736
55.29973,-0.0005846793
55.39973,-0.0005841021
55.49973,-0.0005835022
55.59972,-0.00058281
55.69972,-0.0005822647
55.79972,-0.0005816008
55.89972,-0.000581097
55.99972,-0.0005804886
56.09972,-0.0005799273
56.19971,-0.0005794612
56.29971,-0.0005788293
56.39971,-0.000578252
56.49971,-0.0005776748
56.59971,-0.0005771059
56.69971,-0.0005764543
56.79971,-0.0005759731
56.8997,-0.0005753299
56.9997,-0.0005747573
57.0997,-0.0005741254
57.1997,-0.0005736207
57.2997,-0.0005729605
57.3997,-0.0005723766
57.49969,-0.0005718982
57.59969,-0.0005712795
57.69969,-0.0005706655
57.79969,-0.0005702379
57.89969,-0.0005697049
57.99969,-0.0005691879
58.09969,-0.0005686445
58.19968,-0.0005681322
58.29968,-0.0005676095
58.39968,-0.0005670803
58.49968,-0.0005665906
58.59968,-0.0005660633
58.69968,-0.0005655386
58.79967,-0.0005650329
58.89967,-0.0005643737
58.99967,-0.0005637871
59.09967,-0.0005632408
59.19967,-0.0005626193
59.29967,-0.0005620138
59.39967,-0.0005614742
59.49966,-0.000560927
59.59966,-0.0005603327
59.69966,-0.0005597358
59.79966,-0.0005592479
59.89966,-0.0005586603
59.99966,-0.0005580575
60.09966,-0.0005575763
60.19965,-0.0005570423
60.29965,-0.0005563982
60.39965,-0.0005558727
60.49965,-0.0005554019
60.59965,-0.0005547719
60.69965,-0.0005542426
60.79964,-0.0005536992
60.89964,-0.0005531078
60.99964,-0.0005526087
61.09964,-0.0005521048
61.19964,-0.0005515154
61.29964,-0.0005511057
61.39964,-0.0005505463
61.49963,-0.0005500491
61.59963,-0.0005495763
61.69963,-0.0005490847
61.79963,-0.0005485329
61.89963,-0.000548014
61.99963,-0.0005476232
62.09962,-0.0005470138
62.19962,-0.000546446
62.29962,-0.0005459826
62.39962,-0.0005454177
62.49962,-0.0005448291
62.59962,-0.0005443139
62.69962,-0.000543764
62.79961,-0.0005431895
62.89961,-0.0005426348
62.99961,-0.000542132
63.09961,-0.000541646
63.19961,-0.0005410404
63.29961,-0.0005405452
63.3996,-0.0005399772
63.4996,-0.0005394754
63.5996,-0.0005389781
63.6996,-0.0005384225
63.7996,-0.0005378338
63.8996,-0.0005373507
63.9996,-0.0005369335
64.09959,-0.000536344
64.19959,-0.000535877
64.29959,-0.0005353957
64.39959,-0.0005348909
64.49959,-0.0005346273
64.59959,-0.0005343843
64.69958,-0.0005339615
64.79958,-0.0005341074
64.89958,-0.0005349899
64.99958,-0.000535212
65.09958,-0.0005350191
65.19958,-0.0005346687
65.29958,-0.0005341978
65.39957,-0.0005335942
65.49957,-0.0005329171
65.59957,-0.0005323539
65.69957,-0.0005317192
65.79957,-0.0005310854
65.89957,-0.0005303952
65.99957,-0.0005297519
66.09956,-0.0005290824
66.19956,-0.000528491
66.29956,-0.0005278232
66.39956,-0.0005272149
66.49956,-0.0005265962
66.59956,-0.0005259521
66.69955,-0.0005253192
66.79955,-0.000524707
66.89955,-0.0005241185
66.99955,-0.0005235092
67.09955,-0.0005229319
67.19955,-0.0005224131
67.29955,-0.0005217886
67.39954,-0.0005212011
67.49954,-0.0005206718
67.59954,-0.0005201641
67.69954,-0.000519602
67.79954,-0.0005190171
67.89954,-0.0005184408
67.99953,-0.0005180038
68.09953,-0.000517629
68.19953,-0.0005169887
68.29953,-0.0005164961
68.39953,-0.0005160064
68.49953,-0.0005154998
68.59953,-0.0005152125
68.69952,-0.0005147568
68.79952,-0.000514317
68.89952,-0.0005141833
68.99952,-0.0005145062
69.09952,-0.0005145525
69.19952,-0.0005144177
69.29951,-0.0005142774
69.39951,-0.0005139827
69.49951,-0.0005134628
69.59951,-0.0005129373
69.69951,-0.0005124721
69.79951,-0.0005119145
69.89951,-0.0005113147
69.9995,-0.0005106998
70.0995,-0.0005100895
70.1995,-0.0005096554
70.2995,-0.000509193
70.3995,-0.0005085705
70.4995,-0.0005081383
70.59949,-0.0005076185
70.69949,-0.0005072078
70.79949,-0.0005068114
70.89949,-0.000506429
70.99949,-0.0005059666
71.09949,-0.000505847
71.19949,-0.0005063631
71.29948,-0.000506282
71.39948,-0.0005058395
71.49948,-0.0005056285
71.59948,-0.0005051549
71.69948,-0.0005044966
71.79948,-0.000503909
71.89948,-0.0005032893
71.99947,-0.0005025773
72.09947,-0.0005019049
72.19947,-0.0005012862
72.29947,-0.0005005903
72.39947,-0.0005000168
72.49947,-0.0004993641
72.59946,-0.0004986805
72.69946,-0.0004981606
72.79946,-0.00049762
72.89946,-0.0004969345
72.99946,-0.0004964853
73.09946,-0.0004960125
73.19946,-0.0004953091
73.29945,-0.0004948806
73.39945,-0.0004944304
73.49945,-0.0004938014
73.59945,-0.0004933239
73.69945,-0.0004929387
73.79945,-0.0004924415
73.89944,-0.0004918623
73.99944,-0.0004914244
74.09944,-0.0004910562
74.19944,-0.0004906296
74.29944,-0.0004902661
74.39944,-0.0004898885
74.49944,-0.0004893065
74.59943,-0.0004889505
74.69943,-0.0004886247
74.79943,-0.0004880502
74.89943,-0.0004875567
74.99943,-0.0004870388
75.09943,-0.000486517
75.19942,-0.0004860924
75.29942,-0.0004856205
75.39942,-0.0004850564
75.49942,-0.0004845724
75.59942,-0.0004841015
75.69942,-0.0004835534
75.79942,-0.0004830807
75.89941,-0.0004826814
75.99941,-0.0004821446
76.09941,-0.0004817397
76.19941,-0.0004812867
76.29941,-0.0004808601
76.39941,-0.0004803252
76.4994,-0.0004799136
76.5994,-0.0004794757
76.6994,-0.0004789851
76.7994,-0.0004785378
76.8994,-0.0004781676
76.9994,-0.0004776177
77.0994,-0.0004773418
77.19939,-0.000476901
77.29939,-0.0004764613
77.39939,-0.0004761317
77.49939,-0.0004757418
77.59939,-0.0004752916
77.69939,-0.0004750044
77.79939,-0.0004746729
77.89938,-0.0004743461
77.99938,-0.0004740419
78.09938,-0.0004738639
78.19938,-0.000473734
78.29938,-0.0004734788
78.39938,-0.0004736022
78.49937,-0.0004735306
78.59937,-0.0004733733
78.69937,-0.0004732876
78.79937,-0.0004729099
78.89937,-0.0004724617
78.99937,-0.0004721519
79.09937,-0.0004716612
79.19936,-0.0004711442
79.29936,-0.0004707346
79.39936,-0.0004702477
79.49936,-0.0004696836
79.59936,-0.0004692758
79.69936,-0.0004687833
79.79935,-0.0004682729
79.89935,-0.000467818
79.99935,-0.0004674121
80.09935,-0.0004669497
80.19935,-0.0004664186
80.29935,-0.0004661276
80.39935,-0.0004656191
80.49934,-0.0004650908
80.59934,-0.0004646773
80.69934,-0.0004641924
80.79934,-0.0004636848
80.89934,-0.0004632648
80.99934,-0.0004628381
81.09933,-0.0004623277
81.19933,-0.0004619077
81.29933,-0.0004614896
81.39933,-0.0004610037
81.49933,-0.0004605893
81.59933,-0.0004601458
81.69933,-0.0004596711
81.79932,-0.0004592313
81.89932,-0.0004588593
81.99932,-0.000458445
82.09932,-0.0004580466
82.19932,-0.0004576897
82.29932,-0.000457264
82.39931,-0.0004568855
82.49931,-0.0004566293
82.59931,-0.000456279
82.69931,-0.0004557206
82.79931,-0.0004554201
82.89931,-0.0004549399
82.99931,-0.0004544793
83.0993,-0.0004541855
83.1993,-0.0004537429
83.2993,-0.0004532316
83.3993,-0.0004528709
83.4993,-0.0004524706
83.5993,-0.0004519668
83.6993,-0.0004515901
83.79929,-0.0004511871
83.89929,-0.0004507086
83.99929,-0.0004503159
84.09929,-0.000449976
84.19929,-0.0004494844
84.29929,-0.0004490484
84.39928,-0.0004486924
84.49928,-0.0004482724
84.59928,-0.0004478373
84.69928,-0.0004474682
84.79928,-0.0004470689
84.89928,-0.0004466696
84.99928,-0.000446226
85.09927,-0.0004458616
85.19927,-0.0004454576
85.29927,-0.0004450215
85.39927,-0.0004445978
85.49927,-0.0004442098
85.59927,-0.0004438613
85.69926,-0.0004434442
85.79926,-0.0004430354
85.89926,-0.000442735
85.99926,-0.0004423018
86.09926,-0.0004419063
86.19926,-0.0004416727
86.29926,-0.0004412961
86.39925,-0.0004408808
86.49925,-0.0004406246
86.59925,-0.0004403619
86.69925,-0.0004399842
86.79925,-0.0004397073
86.89925,-0.0004394361
86.99924,-0.0004390434
87.09924,-0.0004386808
87.19924,-0.0004384247
87.29924,-0.0004381177
87.39924,-0.0004377438
87.49924,-0.0004374312
87.59924,-0.0004371449
87.69923,-0.0004367738
87.79923,-0.0004365186
87.89923,-0.0004362126
87.99923,-0.0004357925
88.09923,-0.0004355458
88.19923,-0.0004352483
88.29922,-0.0004348301
88.39922,-0.0004345203
88.49922,-0.0004342368
88.59922,-0.000433862
88.69922,-0.0004335051
88.79922,-0.0004331378
88.89922,-0.0004328374
88.99921,-0.0004324155
89.09921,-0.000432052
89.19921,-0.0004317902
89.29921,-0.0004314794
89.39921,-0.000431148
89.49921,-0.0004308588
89.59921,-0.0004305971
89.6992,-0.0004305914
89.7992,-0.0004303211
89.8992,-0.000430146
89.9992,-0.0004303334
90.0992,-0.0004305744
90.1992,-0.0004308504
90.29919,-0.0004312826
90.39919,-0.0004318703
90.49919,-0.0004322319
90.59919,-0.0004323722
90.69919,-0.0004321264
90.79919,-0.0004318222
90.89919,-0.0004313259
90.99918,-0.0004308532
91.09918,-0.0004303305
91.19918,-0.0004296949
91.29918,-0.0004291307
91.39918,-0.0004285977
91.49918,-0.0004279442
91.59917,-0.0004273443
91.69917,-0.0004268037
91.79917,-0.000426185
91.89917,-0.0004256237
91.99917,-0.0004250841
92.09917,-0.000424537
92.19917,-0.0004239889
92.29916,-0.0004235463
92.39916,-0.0004230858
92.49916,-0.0004225518
92.59916,-0.0004221045
92.69916,-0.0004216582
92.79916,-0.0004212974
92.89915,-0.0004208181
92.99915,-0.0004204499
93.09915,-0.0004200421
93.19915,-0.0004196344
93.29915,-0.0004192256
93.39915,-0.0004188169
93.49915,-0.0004183913
93.59914,-0.0004180315
93.69914,-0.0004176454
93.79914,-0.0004172395
93.89914,-0.0004168515
93.99914,-0.0004164296
94.09914,-0.0004160916
94.19913,-0.0004156433
94.29913,-0.0004152487
94.39913,-0.0004149266
94.49913,-0.0004145349
94.59913,-0.0004141036
94.69913,-0.0004137485
94.79913,-0.0004134001
94.89912,-0.0004129914
94.99912,-0.0004126269
95.09912,-0.0004123011
95.19912,-0.000411865
95.29912,-0.0004115006
95.39912,-0.0004111569
95.49911,-0.000410816
95.59911,-0.0004104873
95.69911,-0.0004102425
95.79911,-0.0004099656
95.89911,-0.0004096463
95.99911,-0.0004096115
96.09911,-0.0004094081
96.1991,-0.0004090728
96.2991,-0.0004090078
96.3991,-0.0004087536
96.4991,-0.000408456
96.5991,-0.0004082469
96.6991,-0.0004080916
96.7991,-0.0004077798
96.89909,-0.000407503
96.99909,-0.0004072223
97.09909,-0.0004069483
97.19909,-0.0004066196
97.29909,-0.0004062457
97.39909,-0.0004059162
97.49908,-0.0004055847
97.59908,-0.0004052221
97.69908,-0.0004049
97.79908,-0.0004045262
97.89908,-0.0004043256
97.99908,-0.0004038895
98.09908,-0.0004035025
98.19907,-0.0004033226
98.29907,-0.0004029035
98.39907,-0.000402475
98.49907,-0.0004021681
98.59907,-0.0004018488
98.69907,-0.000401441
98.79906,-0.0004011435
98.89906,-0.0004008308
98.99906,-0.0004003835
99.09906,-0.0004000115
99.19906,-0.0003996969
99.29906,-0.0003994154
99.39906,-0.0003990076
99.49905,-0.0003987373
99.59905,-0.0003984284
99.69905,-0.0003979594
99.79905,-0.0003977861
99.89905,-0.0003973803
99.99905,-0.0003970026
100.099,-0.0003967032
100.199,-0.0003963547
100.299,-0.0003959677
100.399,-0.0003956739
100.499,-0.0003953914
100.599,-0.0003950288
100.699,-0.0003946983
100.799,-0.000394395
100.899,-0.0003940635
100.999,-0.0003937076
101.099,-0.0003933939
101.199,-0.0003930653
101.299,-0.0003926829
101.399,-0.0003923731
101.499,-0.0003921273
101.599,-0.0003917553
101.699,-0.0003913758
101.799,-0.0003911065
101.899,-0.0003908174
101.999,-0.0003905179
102.099,-0.0003901789
102.199,-0.0003898879
102.299,-0.0003896204
102.399,-0.0003892042
102.499,-0.0003889028
102.599,-0.0003886269
102.699,-0.0003882672
102.799,-0.0003879526
102.899,-0.0003876899
102.999,-0.00038738
103.099,-0.0003870636
103.199,-0.0003867491
103.299,-0.0003864449
103.399,-0.0003860701
103.499,-0.0003857706
103.599,-0.0003855126
103.699,-0.0003851905
103.799,-0.000384843
103.899,-0.0003845624
103.999,-0.0003842902
104.099,-0.0003839437
104.199,-0.0003836724
104.299,-0.0003833805
104.399,-0.0003830387
104.499,-0.0003827232
104.599,-0.0003824623
104.699,-0.0003821638
104.799,-0.0003818267
104.899,-0.0003815686
104.999,-0.0003812089
105.099,-0.0003809264
105.199,-0.0003806278
105.299,-0.0003803001
105.399,-0.0003799875
105.499,-0.0003797106
105.599,-0.0003794893
105.699,-0.0003791785
105.799,-0.000378913
105.899,-0.0003786803
105.999,-0.0003783422
106.099,-0.0003780767
106.199,-0.0003778309
106.299,-0.0003774853
106.3989,-0.0003772197
106.4989,-0.0003769381
106.5989,-0.0003766876
106.6989,-0.0003763533
106.7989,-0.0003760783
106.8989,-0.0003758024
106.9989,-0.0003755274
107.0989,-0.0003752157
107.1989,-0.0003749539
107.2989,-0.0003746667
107.3989,-0.0003743681
107.4989,-0.0003741054
107.5989,-0.0003738097
107.6989,-0.0003735074
107.7989,-0.0003732258
107.8989,-0.0003729819
107.9989,-0.0003727182
108.0989,-0.0003724027
108.1989,-0.0003720685
108.2989,-0.0003718405
108.3989,-0.0003715995
108.4989,-0.0003712953
108.5989,-0.0003710325
108.6989,-0.0003707613
108.7989,-0.0003704694
108.8989,-0.0003702414
108.9989,-0.0003699364
109.0989,-0.0003696143
109.1989,-0.0003693939
109.2989,-0.0003691642
109.3989,-0.0003688016
109.4989,-0.0003685897
109.5989,-0.0003683985
109.6989,-0.0003681028
109.7989,-0.0003677525
109.8989,-0.0003676225
109.9989,-0.0003673861
110.0989,-0.0003669765
110.1989,-0.0003668286
110.2989,-0.0003665546
110.3989,-0.0003662062
110.4989,-0.000365999
110.5989,-0.0003658116
110.6989,-0.0003654471
110.7989,-0.0003652333
110.8989,-0.0003650073
110.9989,-0.0003647135
111.0989,-0.0003644508
111.1989,-0.000364237
111.2989,-0.0003639234
111.3989,-0.0003636851
111.4989,-0.0003634648
111.5989,-0.0003631596
111.6989,-0.0003628508
111.7989,-0.0003626558
111.8989,-0.0003623818
111.9989,-0.000362104
112.0989,-0.0003618714
112.1989,-0.0003615785
112.2989,-0.0003613091
112.3989,-0.0003610803
112.4989,-0.0003608628
112.5989,-0.0003605614
112.6989,-0.0003604108
112.7989,-0.0003601226
112.8988,-0.0003598579
112.9988,-0.0003597628
113.0988,-0.0003594361
113.1988,-0.000359114
113.2988,-0.0003589548
113.3988,-0.0003587674
113.4988,-0.0003585047
113.5988,-0.0003582956
113.6988,-0.0003581299
113.7988,-0.0003579557
113.8988,-0.0003577136
113.9988,-0.0003575582
114.0988,-0.0003574095
114.1988,-0.0003571524
114.2988,-0.0003570017
114.3988,-0.0003568312
114.4988,-0.0003565704
114.5988,-0.000356415
114.6988,-0.0003561946
114.7988,-0.000355962
114.8988,-0.0003557708
114.9988,-0.0003554987
115.0988,-0.0003553169
115.1988,-0.000355073
115.2988,-0.0003547952
115.3988,-0.0003545974
115.4988,-0.0003544185
115.5988,-0.0003541868
115.6988,-0.0003539354
115.7988,-0.0003537932
115.8988,-0.0003537904
115.9988,-0.0003535502
116.0988,-0.0003533411
116.1988,-0.000353409
116.2988,-0.0003532489
116.3988,-0.0003530492
116.4988,-0.0003529569
116.5988,-0.0003528081
116.6988,-0.000352633
116.7988,-0.0003524277
116.8988,-0.0003522563
116.9988,-0.0003519945
117.0988,-0.0003517798
117.1988,-0.0003515396
117.2988,-0.000351227
117.3988,-0.000351017
117.4988,-0.0003507599
117.5988,-0.0003504623
117.6988,-0.0003501204
117.7988,-0.0003499038
117.8988,-0.0003495987
117.9988,-0.0003492908
118.0988,-0.000349012
118.1988,-0.0003487606
118.2988,-0.0003484056
118.3988,-0.0003480976
118.4988,-0.0003478368
118.5988,-0.0003475222
118.6988,-0.0003472133
118.7988,-0.0003469232
118.8988,-0.0003466492
118.9988,-0.000346395
119.0988,-0.0003461039
119.1988,-0.00034578
119.2988,-0.0003455211
119.3988,-0.0003452178
119.4987,-0.0003449221
119.5987,-0.0003447177
119.6987,-0.0003444145
119.7987,-0.0003441292
119.8987,-0.0003439286
119.9987,-0.0003437223
120.0987,-0.0003435236
120.1987,-0.0003434596
120.2987,-0.0003434144
120.3987,-0.0003433974
120.4987,-0.0003433522
120.5987,-0.0003434181
120.6987,-0.0003432656
120.7987,-0.0003431714
120.8987,-0.0003431187
120.9987,-0.0003429859
121.0987,-0.0003427778
121.1987,-0.0003426205
121.2987,-0.0003424359
121.3987,-0.0003422014
121.4987,-0.0003420686
121.5987,-0.0003419839
121.6987,-0.0003418822
121.7987,-0.000341772
121.8987,-0.0003417136
121.9987,-0.0003415987
122.0987,-0.000341465
122.1987,-0.0003414885
122.2987,-0.0003414593
122.3987,-0.0003414057
122.4987,-0.0003417089
122.5987,-0.0003418031
122.6987,-0.0003418558
122.7987,-0.0003419179
122.8987,-0.0003417155
122.9987,-0.0003413416
123.0987,-0.0003409725
123.1987,-0.0003406174
123.2987,-0.0003401569
123.3987,-0.0003397821
123.4987,-0.0003394262
123.5987,-0.000339138
123.6987,-0.0003388093
123.7987,-0.0003386633
123.8987,-0.0003383507
123.9987,-0.000337957
124.0987,-0.0003376698
124.1987,-0.0003371924
124.2987,-0.000336745
124.3987,-0.00033631
124.4987,-0.0003358617
124.5987,-0.0003353682
124.6987,-0.0003349124
124.7987,-0.0003344755
124.8987,-0.000333997
124.9987,-0.0003335987
125.0987,-0.0003331928
125.1987,-0.000332738
125.2987,-0.0003323311
125.3987,-0.0003319695
125.4987,-0.0003315919
125.5987,-0.0003312378
125.6987,-0.0003308498
125.7987,-0.0003305889
125.8987,-0.0003301887
125.9986,-0.0003299486
126.0986,-0.000329619
126.1986,-0.0003292743
126.2986,-0.0003291283
126.3986,-0.0003288232
126.4986,-0.0003285152
126.5986,-0.0003284371
126.6986,-0.0003282224
126.7986,-0.0003279154
126.8986,-0.0003278306
126.9986,-0.0003276808
127.0986,-0.0003274379
127.1986,-0.0003273268
127.2986,-0.0003272797
127.3986,-0.000327161
127.4986,-0.0003270669
127.5986,-0.0003270612
127.6986,-0.0003269171
127.7986,-0.0003266873
127.8986,-0.0003266186
127.9986,-0.0003263173
128.0986,-0.000326014
128.1986,-0.0003257645
128.2986,-0.0003254753
128.3986,-0.0003250987
128.4986,-0.0003247841
128.5986,-0.000324446
128.6987,-0.0003240721
128.7987,-0.0003237425
128.8987,-0.0003234129
128.9987,-0.0003230626
129.0987,-0.000322782
129.1987,-0.0003224665
129.2987,-0.0003221444
129.3987,-0.0003218647
129.4987,-0.0003216011
129.5987,-0.0003212752
129.6987,-0.0003209937
129.7987,-0.000320697
129.8987,-0.0003204192
129.9987,-0.0003201009
130.0987,-0.0003199445
130.1987,-0.0003196865
130.2988,-0.000319356
130.3988,-0.0003191083
130.4988,-0.00031887
130.5988,-0.0003185762
130.6988,-0.0003183945
130.7988,-0.0003181468
130.8988,-0.0003178991
130.9988,-0.0003176693
131.0988,-0.000317529
131.1988,-0.0003172305
131.2988,-0.0003169705
131.3988,-0.0003167417
131.4988,-0.0003165204
131.5988,-0.0003162445
131.6988,-0.0003160298
131.7988,-0.0003159168
131.8988,-0.0003156069
131.9989,-0.0003153583
132.0989,-0.0003151549
132.1989,-0.0003149091
132.2989,-0.0003146765
132.3989,-0.0003144505
132.4989,-0.0003141755
132.5989,-0.0003139636
132.6989,-0.0003137301
132.7989,-0.0003134984
132.8989,-0.0003132837
132.9989,-0.0003130275
133.0989,-0.000312762
133.1989,-0.0003125247
133.2989,-0.0003122676
133.3989,-0.0003120895
133.4989,-0.0003118579
133.599,-0.0003115979
133.699,-0.000311355
133.799,-0.0003111215
133.899,-0.0003109002
133.999,-0.0003105903
134.099,-0.0003103596
134.199,-0.0003101731
134.299,-0.0003098953
134.399,-0.0003096288
134.499,-0.0003094734
134.599,-0.0003092672
134.699,-0.0003089178
134.799,-0.0003087973
134.899,-0.000308542
134.999,-0.0003083264
135.099,-0.0003081748
135.1991,-0.0003079374
135.2991,-0.0003076606
135.3991,-0.00030746
135.4991,-0.0003072067
135.5991,-0.0003070212
135.6991,-0.0003068065
135.7991,-0.0003066068
135.8991,-0.0003064495
135.9991,-0.0003062037
136.0991,-0.0003059834
136.1991,-0.000305779
136.2991,-0.0003055455
136.3991,-0.0003053355
136.4991,-0.0003051377
136.5991,-0.0003049089
136.6991,-0.0003046979
136.7991,-0.0003045171
136.8992,-0.0003042638
136.9992,-0.0003040462
137.0992,-0.0003038645
137.1992,-0.0003036752
137.2992,-0.0003034068
137.3992,-0.0003032137
137.4992,-0.0003030094
137.5992,-0.0003027542
137.6992,-0.0003025206
137.7992,-0.0003023181
137.8992,-0.0003021091
137.9992,-0.0003018689
138.0992,-0.0003016882
138.1992,-0.0003014866
138.2992,-0.0003012342
138.3992,-0.0003010242
138.4993,-0.0003008849
138.5993,-0.0003006532
138.6993,-0.0003003443
138.7993,-0.0003001484
138.8993,-0.0002999808
138.9993,-0.0002996888
139.0993,-0.0002994676
139.1993,-0.0002992811
139.2993,-0.0002990767
139.3993,-0.0002988224
139.4993,-0.0002986435
139.5993,-0.0002984467
139.6993,-0.0002981726
139.7993,-0.0002979966
139.8993,-0.0002977677
139.9993,-0.0002975388
140.0993,-0.0002973128
140.1994,-0.0002971292
140.2994,-0.0002968674
140.3994,-0.00029668
140.4994,-0.0002964775
140.5994,-0.0002962346
140.6994,-0.0002960303
140.7994,-0.0002958626
140.8994,-0.00029563
140.9994,-0.0002953964
141.0994,-0.0002952618
141.1994,-0.000295015
141.2994,-0.0002947485
141.3994,-0.0002946157
141.4994,-0.0002943992
141.5994,-0.0002941448
141.6994,-0.0002939424
141.7995,-0.0002937437
141.8995,-0.0002935224
141.9995,-0.0002933152
142.0995,-0.0002931381
142.1995,-0.0002929564
142.2995,-0.0002927389
142.3995,-0.0002925411
142.4995,-0.0002923405
142.5995,-0.0002921202
142.6995,-0.0002919346
142.7995,-0.0002917133
142.8995,-0.0002914845
142.9995,-0.0002913489
143.0995,-0.000291138
143.1995,-0.0002908902
143.2995,-0.0002907235
143.3996,-0.0002905531
143.4996,-0.0002903167
143.5996,-0.0002901482
143.6996,-0.0002899598
143.7996,-0.0002897074
143.8996,-0.0002895134
143.9996,-0.000289375
144.0996,-0.0002891791
144.1996,-0.0002889644
144.2996,-0.0002887572
144.3996,-0.0002885896
144.4996,-0.0002883815
144.5996,-0.0002882073
144.6996,-0.0002879681
144.7996,-0.000287808
144.8996,-0.0002876422
144.9996,-0.0002874162
145.0997,-0.0002872316
145.1997,-0.0002871007
145.2997,-0.0002869425
145.3997,-0.0002866675
145.4997,-0.0002865065
145.5997,-0.0002863153
145.6997,-0.0002861138
145.7997,-0.0002859141
145.8997,-0.0002857729
145.9997,-0.0002855478
146.0997,-0.0002853557
146.1997,-0.000285206
146.2997,-0.0002850261
146.3997,-0.0002848924
146.4997,-0.000284752
146.5997,-0.000284608
146.6998,-0.0002843584
146.7998,-0.0002842416
146.8998,-0.0002841126
146.9998,-0.0002839619
147.0998,-0.0002839036
147.1998,-0.0002837943
147.2998,-0.0002836681
147.3998,-0.000283735
147.4998,-0.0002835966
147.5998,-0.0002835353
147.6998,-0.0002836135
147.7998,-0.0002835466
147.8998,-0.0002834798
147.9998,-0.000283508
148.0998,-0.0002835193
148.1998,-0.0002834525
148.2999,-0.0002834609
148.3999,-0.0002834346
148.4999,-0.000283443
148.5999,-0.0002833385
148.6999,-0.0002833112
148.7999,-0.0002832895
148.8999,-0.0002831106
148.9999,-0.0002830202
149.0999,-0.0002828771
149.1999,-0.000282717
149.2999,-0.0002825493
149.3999,-0.0002823911
149.4999,-0.0002821547
149.5999,-0.0002819692
149.6999,-0.0002817517
149.7999,-0.0002815229
149.8999,-0.0002812789
150,-0.000281035
150.1,-0.0002808448
150.2,-0.0002806094
150.3,-0.0002803485
150.4,-0.000280113
150.5,-0.0002799652
150.6,-0.0002797364
150.7,-0.0002794661
150.8,-0.0002792175
150.9,-0.0002790593
151,-0.0002788587
151.1,-0.0002785893
151.2,-0.0002784556
151.3,-0.000278224
151.4,-0.0002779499
151.5,-0.0002778633
151.6001,-0.0002776184
151.7001,-0.0002773868
151.8001,-0.0002772982
151.9001,-0.0002771749
152.0001,-0.0002769884
152.1001,-0.0002768368
152.2001,-0.000276786
152.3001,-0.0002766871
152.4001,-0.0002764987
152.5001,-0.0002764799
152.6001,-0.0002763697
152.7001,-0.0002762049
152.8001,-0.0002761352
152.9001,-0.0002760843
153.0001,-0.0002759186
153.1001,-0.0002758216
153.2001,-0.0002757453
153.3002,-0.000275556
153.4002,-0.0002753837
153.5002,-0.0002752622
153.6002,-0.0002750475
153.7002,-0.0002748639
153.8002,-0.0002746557
153.9002,-0.000274425
154.0002,-0.0002742536
154.1002,-0.0002740342
154.2002,-0.000273779
154.3002,-0.0002735558
154.4002,-0.0002734296
154.5002,-0.0002731443
154.6002,-0.0002728617
154.7002,-0.000272713
154.8002,-0.0002724804
154.9003,-0.0002722289
155.0003,-0.0002720199
155.1003,-0.0002718296
155.2003,-0.0002716017
155.3003,-0.000271403
155.4003,-0.0002711921
155.5003,-0.0002709745
155.6003,-0.0002707551
155.7003,-0.0002705121
155.8003,-0.000270304
155.9003,-0.0002700837
156.0003,-0.0002699009
156.1003,-0.0002696646
156.2003,-0.0002694791
156.3003,-0.000269254
156.4003,-0.000269092
156.5004,-0.0002688886
156.6004,-0.0002686729
156.7004,-0.000268446
156.8004,-0.0002682378
156.9004,-0.0002680947
157.0004,-0.0002678724
157.1004,-0.0002676521
157.2004,-0.0002675249
157.3004,-0.0002673281
157.4004,-0.0002670889
157.5004,-0.0002669665
157.6004,-0.0002667565
157.7004,-0.0002665418
157.8004,-0.000266425
157.9004,-0.0002662677
158.0004,-0.0002660964
158.1004,-0.000265924
158.2005,-0.0002658543
158.3005,-0.0002656452
158.4005,-0.0002654409
158.5005,-0.0002654098
158.6005,-0.0002651979
158.7005,-0.0002649795
158.8005,-0.0002648561
158.9005,-0.0002647007
159.0005,-0.0002644492
159.1005,-0.0002643287
159.2005,-0.0002641884
159.3005,-0.0002639454
159.4005,-0.0002638098
159.5005,-0.0002637053
159.6005,-0.0002634576
159.7005,-0.0002632514
159.8006,-0.0002631459
159.9006,-0.0002629548
160.0006,-0.0002626948
160.1006,-0.0002625884
160.2006,-0.0002623746
160.3006,-0.0002621204
160.4006,-0.0002619659
160.5006,-0.0002618087
160.6006,-0.0002615412
160.7006,-0.0002613491
160.8006,-0.0002611871
160.9006,-0.0002609903
161.0006,-0.0002608123
161.1006,-0.0002606409
161.2006,-0.0002604535
161.3006,-0.0002602162
161.4007,-0.000260025
161.5007,-0.0002598451
161.6007,-0.0002596822
161.7007,-0.0002595287
161.8007,-0.0002593225
161.9007,-0.0002592104
162.0007,-0.0002590889
162.1007,-0.0002588751
162.2007,-0.0002587377
162.3007,-0.0002586312
162.4007,-0.0002584175
162.5007,-0.0002583186
162.6007,-0.0002582301
162.7007,-0.0002581095
162.8007,-0.0002579701
162.9007,-0.0002578741
163.0007,-0.0002577592
163.1008,-0.0002576537
163.2008,-0.0002575388
163.3008,-0.0002574371
163.4008,-0.0002572704
163.5008,-0.0002571358
163.6008,-0.0002570482
163.7008,-0.0002568843
163.8008,-0.0002566941
163.9008,-0.0002565632
164.0008,-0.0002563937
164.1008,-0.0002561667
164.2008,-0.0002560255
164.3008,-0.0002558673
164.4008,-0.0002556648
164.5008,-0.0002554812
164.6008,-0.0002553201
164.7009,-0.0002550969
164.8009,-0.00025495
164.9009,-0.000254757
165.0009,-0.000254546
165.1009,-0.0002543436
165.2009,-0.0002541674
165.3009,-0.000253932
165.4009,-0.0002537889
165.5009,-0.0002535751
165.6009,-0.0002533915
165.7009,-0.0002532605
165.8009,-0.000253091
165.9009,-0.0002529018
166.0009,-0.0002527351
166.1009,-0.0002526324
166.2009,-0.0002524224
166.3009,-0.0002522388
166.401,-0.0002520768
166.501,-0.0002519336
166.601,-0.0002517575
166.701,-0.0002515673
166.801,-0.0002514195
166.901,-0.0002511756
167.001,-0.0002510399
167.101,-0.0002509062
167.201,-0.0002506793
167.301,-0.0002505079
167.401,-0.0002503911
167.501,-0.0002502555
167.601,-0.0002500455
167.701,-0.0002498552
167.801,-0.0002497761
167.901,-0.0002495624
168.0011,-0.000249536
168.1011,-0.0002494023
168.2011,-0.0002492507
168.3011,-0.0002492327
168.4011,-0.0002491
168.5011,-0.0002489512
168.6011,-0.0002489088
168.7011,-0.000248825
168.8011,-0.0002487073
168.9011,-0.000248648
169.0011,-0.0002485886
169.1011,-0.0002485199
169.2011,-0.0002484134
169.3011,-0.0002484295
169.4011,-0.0002483118
169.5011,-0.0002481648
169.6012,-0.000248194
169.7012,-0.0002480481
169.8012,-0.0002479313
169.9012,-0.0002479087
170.0012,-0.0002478023
170.1012,-0.0002476751
170.2012,-0.0002475885
170.3012,-0.0002475207
170.4012,-0.0002474011
170.5012,-0.000247323
170.6012,-0.0002472533
170.7012,-0.0002471892
170.8012,-0.0002471233
170.9012,-0.0002470894
171.0012,-0.0002470498
171.1012,-0.0002469839
171.2012,-0.0002469622
171.3013,-0.0002467993
171.4013,-0.0002467023
171.5013,-0.0002465761
171.6013,-0.0002464208
171.7013,-0.0002462343
171.8013,-0.0002460384
171.9013,-0.0002458501
172.0013,-0.0002456288
172.1013,-0.000245399
172.2013,-0.0002452078
172.3013,-0.0002449705
172.4013,-0.0002446927
172.5013,-0.0002444855
172.6013,-0.0002442736
172.7013,-0.0002439986
172.8013,-0.0002437349
172.9014,-0.0002435127
173.0014,-0.0002433046
173.1014,-0.0002430644
173.2014,-0.0002428629
173.3014,-0.000242651
173.4014,-0.0002424297
173.5014,-0.0002421943
173.6014,-0.0002419861
173.7014,-0.0002417771
173.8014,-0.0002415501
173.9014,-0.0002413335
174.0014,-0.0002411546
174.1014,-0.0002409352
174.2014,-0.0002407139
174.3014,-0.0002405039
174.4014,-0.0002403419
174.5014,-0.0002400942
174.6015,-0.0002398597
174.7015,-0.0002397081
174.8015,-0.0002395376
174.9015,-0.0002393361
175.0015,-0.0002391299
175.1015,-0.0002389519
175.2015,-0.0002387494
175.3015,-0.0002385808
175.4015,-0.0002383869
175.5015,-0.0002381618
175.6015,-0.0002380102
175.7015,-0.0002378378
175.8015,-0.0002376005
175.9015,-0.0002374498
176.0015,-0.000237302
176.1015,-0.0002370675
176.2016,-0.0002368697
176.3016,-0.000236751
176.4016,-0.0002365316
176.5016,-0.0002363179
176.6016,-0.0002361248
176.7016,-0.000235959
176.8016,-0.000235734
176.9016,-0.0002355711
177.0016,-0.0002354317
177.1016,-0.0002352028
177.2016,-0.0002350409
177.3016,-0.0002348629
177.4016,-0.0002346576
177.5016,-0.0002345182
177.6016,-0.0002343308
177.7016,-0.000234101
177.8017,-0.0002339419
177.9017,-0.0002337903
178.0017,-0.0002335887
178.1017,-0.0002333938
178.2017,-0.0002332516
178.3017,-0.0002330632
178.4017,-0.0002328834
178.5017,-0.0002326903
178.6017,-0.000232533
178.7017,-0.0002323814
178.8017,-0.0002321356
178.9017,-0.000231984
179.0017,-0.0002318032
179.1017,-0.0002316403
179.2017,-0.0002314463
179.3017,-0.0002313182
179.4017,-0.0002311393
179.5018,-0.0002309698
179.6018,-0.0002307758
179.7018,-0.0002306477
179.8018,-0.0002304998
179.9018,-0.0002302879
180.0018,-0.0002301636
180.1018,-0.0002299913
180.2018,-0.000229819
180.3018,-0.0002297323
180.4018,-0.0002295628
180.5018,-0.0002293801
180.6018,-0.0002292907
180.7018,-0.0002291814
180.8018,-0.0002290722
180.9018,-0.0002290016
181.0018,-0.0002288998
181.1019,-0.0002288283
181.2019,-0.0002287162
181.3019,-0.0002286738
181.4019,-0.0002286258
181.5019,-0.0002285646
181.6019,-0.0002285147
181.7019,-0.0002284469
181.8019,-0.0002283979
181.9019,-0.0002283518
182.0019,-0.0002283131
182.1019,-0.0002281964
182.2019,-0.000228137
182.3019,-0.000228057
182.4019,-0.0002279365
182.5019,-0.0002278413
182.6019,-0.000227782
182.702,-0.0002275927
182.802,-0.0002274656
182.902,-0.0002274147
183.002,-0.0002272951
183.102,-0.0002270983
183.202,-0.0002270107
183.302,-0.0002268817
183.402,-0.0002267207
183.502,-0.0002265747
183.602,-0.0002264607
183.702,-0.0002263129
183.802,-0.0002261519
183.902,-0.0002259739
184.002,-0.0002258891
184.102,-0.0002257573
184.202,-0.0002255821
184.302,-0.0002254239
184.4021,-0.0002253514
184.5021,-0.0002251452
184.6021,-0.0002249756
184.7021,-0.0002248702
184.8021,-0.0002247204
184.9021,-0.0002245001
185.0021,-0.000224388
185.1021,-0.0002243098
185.2021,-0.0002240697
185.3021,-0.0002239463
185.4021,-0.0002238474
185.5021,-0.0002236939
185.6021,-0.0002235489
185.7021,-0.0002234519
185.8021,-0.0002233144
185.9021,-0.0002231477
186.0022,-0.0002230536
186.1022,-0.0002229321
186.2022,-0.0002227428
186.3022,-0.00022261
186.4022,-0.0002224499
186.5022,-0.000222303
186.6022,-0.0002221457
186.7022,-0.0002219866
186.8022,-0.0002218048
186.9022,-0.0002216871
187.0022,-0.0002215072
187.1022,-0.0002213556
187.2022,-0.0002212181
187.3022,-0.0002210354
187.4022,-0.0002208744
187.5022,-0.0002207171
187.6022,-0.0002205881
187.7023,-0.0002203885
187.8023,-0.0002202048
187.9023,-0.0002200975
188.0023,-0.00021996
188.1023,-0.0002197349
188.2023,-0.0002196002
188.3023,-0.0002194458
188.4023,-0.000219249
188.5023,-0.000219104
188.6023,-0.0002189316
188.7023,-0.0002187395
188.8023,-0.0002185945
188.9023,-0.0002184429
189.0023,-0.0002182743
189.1023,-0.0002181283
189.2023,-0.0002179889
189.3024,-0.0002177959
189.4024,-0.000217632
189.5024,-0.0002175002
189.6024,-0.0002173683
189.7024,-0.0002171932
189.8024,-0.0002170246
189.9024,-0.0002168824
190.0024,-0.0002167148
190.1024,-0.00021655
190.2024,-0.0002164398
190.3024,-0.0002162204
190.4024,-0.0002161092
190.5024,-0.0002159614
190.6024,-0.0002157956
190.7024,-0.000215661
190.8024,-0.0002155254
190.9025,-0.0002154095
191.0025,-0.0002152833
191.1025,-0.0002151214
191.2025,-0.0002149858
191.3025,-0.0002148972
191.4025,-0.0002147296
191.5025,-0.0002145827
191.6025,-0.0002144867
191.7025,-0.0002143529
191.8025,-0.0002141608
191.9025,-0.0002140403
192.0025,-0.0002139574
192.1025,-0.0002137785
192.2025,-0.0002136363
192.3025,-0.0002135308
192.4025,-0.0002133679
192.5025,-0.0002132445
192.6026,-0.0002131371
192.7026,-0.0002129742
192.8026,-0.0002128377
192.9026,-0.0002127294
193.0026,-0.000212622
193.1026,-0.0002124563
193.2026,-0.0002123499
193.3026,-0.0002122293
193.4026,-0.0002121097
193.5026,-0.0002119779
193.6026,-0.0002118272
193.7026,-0.0002117048
193.8026,-0.0002116464
193.9026,-0.0002114675
194.0026,-0.0002113036
194.1026,-0.0002112057
194.2027,-0.0002110578
194.3027,-0.000210909
194.4027,-0.0002108082
194.5027,-0.0002107282
194.6027,-0.0002105276
194.7027,-0.0002103929
194.8027,-0.0002103063
194.9027,-0.0002101603
195.0027,-0.0002100257
195.1027,-0.0002098872
195.2027,-0.0002097912
195.3027,-0.0002096452
195.4027,-0.0002095058
195.5027,-0.0002093655
195.6027,-0.0002092374
195.7027,-0.0002091386
195.8027,-0.0002089822
195.9028,-0.0002088287
196.0028,-0.0002087317
196.1028,-0.0002086187
196.2028,-0.0002084445
196.3028,-0.0002083428
196.4028,-0.0002082335
196.5028,-0.0002080669
196.6028,-0.0002079991
196.7028,-0.0002078352
196.8028,-0.0002076817
196.9028,-0.0002076017
197.0028,-0.000207483
197.1028,-0.0002073182
197.2028,-0.0002072005
197.3028,-0.0002070649
197.4028,-0.0002069471
197.5029,-0.0002068464
197.6029,-0.000206755
197.7029,-0.000206643
197.8029,-0.0002065102
197.9029,-0.0002064414
198.0029,-0.0002063162
198.1029,-0.0002061514
198.2029,-0.0002060742
198.3029,-0.0002060007
198.4029,-0.00020585
198.5029,-0.0002057794
198.6029,-0.0002056664
198.7029,-0.000205543
198.8029,-0.0002054234
198.9029,-0.0002053226
199.0029,-0.0002051983
199.103,-0.0002050966
199.203,-0.000205026
199.303,-0.0002048866
199.403,-0.0002047652
199.503,-0.0002046983
199.603,-0.0002045636
199.703,-0.0002044468
199.803,-0.0002043414
199.903,-0.0002042152
200.003,-0.0002040843
200.103,-0.0002039892
200.203,-0.0002038809
200.303,-0.0002037669
200.403,-0.0002036304
200.503,-0.0002035362
200.603,-0.0002033836
200.703,-0.0002032791
200.8031,-0.0002031727
200.9031,-0.0002030286
201.0031,-0.0002029184
201.1031,-0.0002028092
201.2031,-0.0002026632
201.3031,-0.0002025596
201.4031,-0.0002024692
201.5031,-0.0002023035
201.6031,-0.0002021829
201.7031,-0.0002020963
201.8031,-0.0002019211
201.9031,-0.0002018119
202.0031,-0.0002017262
202.1031,-0.0002015699
202.2031,-0.0002014521
202.3031,-0.0002013636
202.4032,-0.0002012026
202.5032,-0.0002010962
202.6032,-0.0002009973
202.7032,-0.0002008315
202.8032,-0.0002007421
202.9032,-0.0002006988
203.0032,-0.0002005217
203.1032,-0.000200388
203.2032,-0.0002003626
203.3032,-0.0002001902
203.4032,-0.0002000066
203.5032,-0.0001999454
203.6032,-0.0001998211
203.7032,-0.0001996685
203.8032,-0.0001996045
203.9032,-0.0001995084
204.0033,-0.0001993813
204.1033,-0.000199272
204.2033,-0.0001992174
204.3033,-0.0001990988
204.4033,-0.0001989716
204.5033,-0.0001988916
204.6033,-0.0001987786
204.7033,-0.0001986778
204.8033,-0.0001985893
204.9033,-0.0001984668
205.0033,-0.0001983595
205.1033,-0.0001982936
205.2033,-0.0001981627
205.3033,-0.0001980233
205.4033,-0.0001979489
205.5033,-0.0001978783
205.6033,-0.0001977078
205.7034,-0.0001976014
205.8034,-0.0001975411
205.9034,-0.0001973904
206.0034,-0.0001972869
206.1034,-0.0001971899
206.2034,-0.0001970806
206.3034,-0.0001969667
206.4034,-0.0001968669
206.5034,-0.0001967812
206.6034,-0.0001966465
206.7034,-0.0001965476
206.8034,-0.0001964336
206.9034,-0.0001963254
207.0034,-0.0001961897
207.1034,-0.0001961191
207.2034,-0.0001959892
207.3035,-0.0001958196
207.4035,-0.0001957603
207.5035,-0.0001956596
207.6035,-0.0001955145
207.7035,-0.0001954119
207.8035,-0.0001952819
207.9035,-0.0001952075
208.0035,-0.0001950663
208.1035,-0.0001949335
208.2035,-0.0001948421
208.3035,-0.000194698
208.4035,-0.0001945125
208.5035,-0.0001944588
208.6035,-0.0001943684
208.7035,-0.0001941904
208.8035,-0.0001940303
208.9035,-0.0001939616
209.0036,-0.0001938448
209.1036,-0.0001936697
209.2036,-0.0001935896
209.3036,-0.0001934757
209.4036,-0.0001933109
209.5036,-0.0001931913
209.6036,-0.000193098
209.7036,-0.0001929719
209.8036,-0.0001927854
209.9036,-0.0001926874
210.0036,-0.0001925669
210.1036,-0.0001924426
210.2036,-0.0001922759
210.3036,-0.0001921799
210.4036,-0.0001920433
210.5036,-0.0001919181
210.6037,-0.0001917843
210.7037,-0.0001916779
210.8037,-0.0001915602
210.9037,-0.0001913926
211.0037,-0.0001912654
211.1037,-0.0001911553
211.2037,-0.0001910573
211.3037,-0.0001909123
211.4037,-0.0001908219
211.5037,-0.0001907597
211.6037,-0.0001905808
211.7037,-0.0001904735
211.8037,-0.0001903312
211.9037,-0.0001901796
212.0037,-0.0001900911
212.1037,-0.0001899724
212.2038,-0.0001897935
212.3038,-0.000189704
212.4038,-0.0001895948
212.5038,-0.0001894705
212.6038,-0.000189365
212.7038,-0.0001892501
212.8038,-0.0001891663
212.9038,-0.0001890363
213.0038,-0.0001889281
213.1038,-0.0001888216
213.2038,-0.0001886879
213.3038,-0.0001885721
213.4038,-0.0001884675
213.5038,-0.0001883498
213.6038,-0.000188234
213.7038,-0.0001881652
213.8038,-0.0001880334
213.9039,-0.0001879317
214.0039,-0.0001878413
214.1039,-0.0001877471
214.2039,-0.000187652
214.3039,-0.0001875625
214.4039,-0.0001874458
214.5039,-0.0001873412
214.6039,-0.0001872339
214.7039,-0.0001871774
214.8039,-0.0001870945
214.9039,-0.0001870041
215.0039,-0.0001869222
215.1039,-0.0001868939
215.2039,-0.0001868035
215.3039,-0.0001867093
215.4039,-0.0001866698
215.504,-0.000186617
215.604,-0.0001865087
215.704,-0.0001864447
215.804,-0.0001863571
215.904,-0.0001862366
216.004,-0.0001861716
216.104,-0.0001861358
216.204,-0.0001860407
216.304,-0.0001859475
216.404,-0.0001858655
216.504,-0.0001858024
216.604,-0.0001856998
216.704,-0.0001856037
216.804,-0.0001855378
216.904,-0.0001854305
217.004,-0.000185325
217.104,-0.0001852581
217.2041,-0.0001851592
217.3041,-0.0001850114
217.4041,-0.000184969
217.5041,-0.0001848711
217.6041,-0.0001847562
217.7041,-0.0001846752
217.8041,-0.0001846112
217.9041,-0.0001845151
218.0041,-0.0001844115
218.1041,-0.0001842674
218.2041,-0.0001841977
218.3041,-0.0001841337
218.4041,-0.0001840386
218.5041,-0.0001839378
218.6041,-0.0001838493
218.7041,-0.0001837448
218.8042,-0.0001836515
218.9042,-0.0001835206
219.0042,-0.0001834453
219.1042,-0.0001833266
219.2042,-0.0001831807
219.3042,-0.0001831119
219.4042,-0.0001830243
219.5042,-0.0001828699
219.6042,-0.0001827578
219.7042,-0.0001826571
219.8042,-0.0001825742
219.9042,-0.000182399
220.0042,-0.0001823218
220.1042,-0.0001822333
220.2042,-0.0001820817
220.3042,-0.0001819526
220.4043,-0.0001818651
220.5043,-0.0001817332
220.6043,-0.0001816212
220.7043,-0.0001814837
220.8043,-0.0001813622
220.9043,-0.0001812671
221.0043,-0.0001811456
221.1043,-0.0001809996
221.2043,-0.0001808847
221.3043,-0.0001807877
221.4043,-0.0001806568
221.5043,-0.0001805372
221.6043,-0.0001803922
221.7043,-0.0001802877
221.8043,-0.0001801634
221.9043,-0.0001800306
222.0043,-0.0001799006
222.1044,-0.0001798093
222.2044,-0.0001796605
222.3044,-0.0001795324
222.4044,-0.000179426
222.5044,-0.0001793007
222.6044,-0.0001791849
222.7044,-0.0001790417
222.8044,-0.0001789429
222.9044,-0.0001788186
223.0044,-0.0001787008
223.1044,-0.0001785643
223.2044,-0.0001784211
223.3044,-0.0001783298
223.4044,-0.0001782074
223.5044,-0.0001780784
223.6044,-0.0001779456
223.7045,-0.0001778806
223.8045,-0.0001776998
223.9045,-0.0001775463
224.0045,-0.0001774785
224.1045,-0.0001773645
224.2045,-0.0001771545
224.3045,-0.0001770735
224.4045,-0.0001769586
224.5045,-0.0001768202
224.6045,-0.0001767251
224.7045,-0.0001766262
224.8045,-0.0001765104
224.9045,-0.0001763748
225.0045,-0.0001762872
225.1045,-0.0001761714
225.2045,-0.0001760367
225.3046,-0.0001759388
225.4046,-0.0001758399
225.5046,-0.0001756628
225.6046,-0.0001755941
225.7046,-0.0001754745
225.8046,-0.000175305
225.9046,-0.0001753031
226.0046,-0.0001751759
226.1046,-0.0001750714
226.2046,-0.0001749791
226.3046,-0.0001748746
226.4046,-0.0001747588
226.5046,-0.0001746797
226.6046,-0.0001745827
226.7046,-0.000174513
226.8046,-0.0001744273
226.9046,-0.0001743444
227.0047,-0.0001742559
227.1047,-0.000174189
227.2047,-0.0001741174
227.3047,-0.0001740261
227.4047,-0.0001739319
227.5047,-0.000173866
227.6047,-0.0001737812
227.7047,-0.0001736861
227.8047,-0.0001735788
227.9047,-0.0001735006
228.0047,-0.0001733942
228.1047,-0.0001733283
228.2047,-0.0001732247
228.3047,-0.0001731088
228.4047,-0.0001730392
228.5047,-0.0001729525
228.6048,-0.0001728527
228.7048,-0.0001727434
228.8048,-0.0001726756
228.9048,-0.0001725353
229.0048,-0.0001724336
229.1048,-0.0001723602
229.2048,-0.0001722801
229.3048,-0.000172104
229.4048,-0.0001720551
229.5048,-0.000171975
229.6048,-0.0001718196
229.7048,-0.0001717556
229.8048,-0.0001716963
229.9048,-0.0001715512
230.0048,-0.000171457
230.1048,-0.0001713713
230.2048,-0.0001712414
230.3049,-0.0001711491
230.4049,-0.0001710549
230.5049,-0.000170941
230.6049,-0.0001708402
230.7049,-0.0001707319
230.8049,-0.0001706048
230.9049,-0.0001705097
231.0049,-0.0001704193
231.1049,-0.000170311
231.2049,-0.0001702111
231.3049,-0.0001700765
231.4049,-0.0001700473
231.5049,-0.0001698947
231.6049,-0.0001698213
231.7049,-0.0001697488
231.8049,-0.0001696678
231.905,-0.0001695557
232.005,-0.0001694832
232.105,-0.0001694258
232.205,-0.0001693457
232.305,-0.0001692751
232.405,-0.0001691705
232.505,-0.0001690773
232.605,-0.0001689803
232.705,-0.0001689068
232.805,-0.0001688861
232.905,-0.0001687891
233.005,-0.0001687232
233.105,-0.0001686884
233.205,-0.0001686582
233.305,-0.0001686394
233.405,-0.0001685951
233.5051,-0.0001685857
233.6051,-0.0001685584
233.7051,-0.0001685019
233.8051,-0.0001684925
233.9051,-0.00016842
234.0051,-0.0001683559
234.1051,-0.0001683314
234.2051,-0.0001682599
234.3051,-0.0001681525
234.4051,-0.0001681148
234.5051,-0.0001680065
234.6051,-0.0001679274
234.7051,-0.0001678785
234.8051,-0.0001677636
234.9051,-0.0001676986
235.0051,-0.0001676063
235.1051,-0.0001674961
235.2052,-0.0001673389
235.3052,-0.0001672372
235.4052,-0.0001671844
235.5052,-0.0001670272
235.6052,-0.0001669028
235.7052,-0.0001668266
235.8052,-0.0001667324
235.9052,-0.000166561
236.0052,-0.0001664649
236.1052,-0.0001664009
236.2052,-0.0001662587
236.3052,-0.0001661382
236.4052,-0.0001660562
236.5052,-0.000165946
236.6052,-0.0001658161
236.7052,-0.0001656805
236.8053,-0.0001655995
236.9053,-0.0001654497
237.0053,-0.0001653443
237.1053,-0.0001652181
237.2053,-0.000165123
237.3053,-0.0001649958
237.4053,-0.0001648593
237.5053,-0.0001647595
237.6053,-0.0001646785
237.7053,-0.0001645391
237.8053,-0.000164395
237.9053,-0.0001643442
238.0053,-0.0001641511
238.1053,-0.0001640192
238.2053,-0.0001639251
238.3053,-0.0001638083
238.4053,-0.0001636407
238.5054,-0.0001635352
238.6054,-0.000163426
238.7054,-0.0001632941
238.8054,-0.0001631755
238.9054,-0.0001631011
239.0054,-0.0001629965
239.1054,-0.0001628308
239.2054,-0.0001627272
239.3054,-0.0001626029
239.4054,-0.0001624616
239.5054,-0.0001623778
239.6054,-0.0001622422
239.7054,-0.0001621009
239.8054,-0.0001620605
239.9054,-0.0001619098
240.0054,-0.0001617506
240.1055,-0.0001616725
240.2055,-0.0001615425
240.3055,-0.0001614097
240.4055,-0.0001612769
240.5055,-0.0001611978
240.6055,-0.0001610669
240.7055,-0.0001609031
240.8055,-0.0001608532
240.9055,-0.0001607458
241.0055,-0.0001605998
241.1055,-0.0001605104
241.2055,-0.0001604284
241.3055,-0.0001603164
241.4055,-0.0001601939
241.5055,-0.0001600875
241.6055,-0.0001599613
241.7056,-0.000159902
241.8056,-0.0001597768
241.9056,-0.0001596355
242.0056,-0.0001595668
242.1056,-0.0001594961
242.2056,-0.0001593408
242.3056,-0.0001592258
242.4056,-0.0001591637
242.5056,-0.0001590582
242.6056,-0.0001589188
242.7056,-0.0001588548
242.8056,-0.0001587135
242.9056,-0.0001586335
243.0056,-0.0001585506
243.1056,-0.0001584047
243.2056,-0.0001583246
243.3056,-0.0001582314
243.4057,-0.0001581203
243.5057,-0.0001580223
243.6057,-0.0001579263
243.7057,-0.0001578198
243.8057,-0.0001577228
243.9057,-0.0001576682
244.0057,-0.0001575797
244.1057,-0.0001574554
244.2057,-0.0001573951
244.3057,-0.0001572699
244.4057,-0.0001571286
244.5057,-0.0001570552
244.6057,-0.0001569007
244.7057,-0.0001568131
244.8057,-0.0001567519
244.9057,-0.0001566276
245.0058,-0.0001565645
245.1058,-0.0001564845
245.2058,-0.0001563884
245.3058,-0.0001562999
245.4058,-0.0001562029
245.5058,-0.00015612
245.6058,-0.0001560164
245.7058,-0.0001559166
245.8058,-0.0001558187
245.9058,-0.0001557461
246.0058,-0.0001556218
246.1058,-0.0001555314
246.2058,-0.0001554599
246.3058,-0.0001553365
246.4058,-0.0001552404
246.5058,-0.0001551679
246.6059,-0.0001550719
246.7059,-0.0001549815
246.8059,-0.0001548675
246.9059,-0.0001547997
247.0059,-0.000154699
247.1059,-0.000154618
247.2059,-0.0001544758
247.3059,-0.0001543938
247.4059,-0.0001543439
247.5059,-0.0001542554
247.6059,-0.0001541094
247.7059,-0.0001540331
247.8059,-0.0001539606
247.9059,-0.0001538363
248.0059,-0.00015376
248.1059,-0.0001536555
248.2059,-0.0001535406
248.306,-0.0001534926
248.406,-0.0001534012
248.506,-0.0001532788
248.606,-0.0001531997
248.706,-0.0001531131
248.806,-0.000153033
248.906,-0.0001528889
249.006,-0.000152839
249.106,-0.0001527533
249.206,-0.0001526111
249.306,-0.0001525452
249.406,-0.0001524821
249.506,-0.000152322
249.606,-0.0001522589
249.706,-0.0001521836
249.806,-0.0001520772
249.9061,-0.0001519792
250.0061,-0.0001518982
250.1061,-0.0001517984
250.2061,-0.0001516929
250.3061,-0.0001515912
250.4061,-0.0001514895
250.5061,-0.0001514001
250.6061,-0.0001513087
250.7061,-0.0001511919
250.8061,-0.0001511156
250.9061,-0.0001510507
251.0061,-0.0001509188
251.1061,-0.0001508124
251.2061,-0.0001507314
251.3061,-0.000150626
251.4061,-0.0001505101
251.5061,-0.0001504696
251.6062,-0.0001503896
251.7062,-0.0001502681
251.8062,-0.000150254
251.9062,-0.0001501193
252.0062,-0.0001499837
252.1062,-0.0001499517
252.2062,-0.0001497859
252.3062,-0.0001496908
252.4062,-0.0001496437
252.5062,-0.000149559
252.6062,-0.0001494563
252.7062,-0.0001493979
252.8062,-0.0001493508
252.9062,-0.0001492388
253.0062,-0.0001491503
253.1062,-0.0001491145
253.2063,-0.0001490297
253.3063,-0.0001488969
253.4063,-0.0001488649
253.5063,-0.0001487802
253.6063,-0.0001486615
253.7063,-0.000148588
253.8063,-0.0001485278
253.9063,-0.000148427
254.0063,-0.0001483583
254.1063,-0.000148266
254.2063,-0.0001481906
254.3063,-0.0001480927
254.4063,-0.0001480287
254.5063,-0.0001479524
254.6063,-0.0001478902
254.7063,-0.0001478064
254.8064,-0.0001477593
254.9064,-0.0001476567
255.0064,-0.0001475879
255.1064,-0.0001474966
255.2064,-0.0001474241
255.3064,-0.0001473902
255.4064,-0.0001473064
255.5064,-0.0001472225
255.6064,-0.0001471576
255.7064,-0.0001471114
255.8064,-0.0001470078
255.9064,-0.0001469391
256.0064,-0.0001468863
256.1064,-0.0001468148
256.2064,-0.0001467065
256.3064,-0.0001466443
256.4064,-0.0001465567
256.5064,-0.0001464729
256.6064,-0.0001464353
256.7065,-0.000146342
256.8065,-0.0001462638
256.9065,-0.0001462102
257.0065,-0.0001461028
257.1065,-0.0001459644
257.2065,-0.0001459239
257.3065,-0.0001458372
257.4065,-0.0001457403
257.5065,-0.0001457252
257.6065,-0.0001456395
257.7065,-0.0001455124
257.8065,-0.0001455189
257.9065,-0.0001454031
258.0065,-0.0001453447
258.1065,-0.0001453005
258.2065,-0.0001452119
258.3065,-0.0001451385
258.4066,-0.0001450735
258.5066,-0.0001450208
258.6066,-0.0001449445
258.7066,-0.0001448814
258.8066,-0.0001448334
258.9066,-0.000144758
259.0066,-0.0001446855
259.1066,-0.0001446337
259.2066,-0.0001445603
259.3066,-0.0001444755
259.4066,-0.0001444115
259.5066,-0.0001443559
259.6066,-0.0001442777
259.7066,-0.0001442203
259.8066,-0.0001441289
259.9066,-0.0001440442
260.0067,-0.0001440159
260.1067,-0.0001439463
260.2067,-0.0001438163
260.3067,-0.0001437504
260.4067,-0.0001437127
260.5067,-0.0001436091
260.6067,-0.0001435074
260.7067,-0.0001434462
260.8067,-0.0001433699
260.9067,-0.0001432513
261.0067,-0.000143175
261.1067,-0.00014311
261.2067,-0.0001430111
261.3067,-0.000142964
261.4067,-0.0001428821
261.5067,-0.0001427729
261.6068,-0.000142802
261.7068,-0.0001426693
261.8068,-0.0001425638
261.9068,-0.000142545
262.0068,-0.0001424583
262.1068,-0.0001423849
262.2068,-0.0001423538
262.3068,-0.0001423124
262.4068,-0.0001422483
262.5068,-0.0001421937
262.6068,-0.0001421325
262.7068,-0.0001421212
262.8068,-0.0001420148
262.9068,-0.0001420185
263.0068,-0.0001419912
263.1068,-0.0001419074
263.2068,-0.0001418782
263.3069,-0.0001418537
263.4069,-0.0001417643
263.5069,-0.0001417115
263.6069,-0.0001416776
263.7069,-0.0001416277
263.8069,-0.0001415618
263.9069,-0.0001415326
264.0069,-0.0001414733
264.1069,-0.0001414092
264.2069,-0.0001413574
264.3069,-0.0001412708
264.4069,-0.0001411672
264.5069,-0.0001411465
264.6069,-0.0001410504
264.7069,-0.0001410071
264.8069,-0.0001409337
264.907,-0.0001408112
265.007,-0.0001407406
265.107,-0.0001407246
265.207,-0.0001406172
265.307,-0.0001405137
265.407,-0.0001404647
265.507,-0.0001404148
265.607,-0.000140282
265.707,-0.0001402311
265.807,-0.0001401473
265.907,-0.0001400447
266.007,-0.0001399703
266.107,-0.0001398733
266.207,-0.0001397885
266.307,-0.0001397103
266.407,-0.0001396124
266.507,-0.0001395305
266.6071,-0.0001394485
266.7071,-0.0001393713
266.8071,-0.0001392932
266.9071,-0.0001392357
267.0071,-0.0001391613
267.1071,-0.0001390662
267.2071,-0.0001389673
267.3071,-0.0001389193
267.4071,-0.0001388402
267.5071,-0.0001387112
267.6071,-0.0001386227
267.7071,-0.0001385661
267.8071,-0.0001384597
267.9071,-0.0001383608
268.0071,-0.0001382949
268.1071,-0.0001381734
268.2072,-0.0001380774
268.3072,-0.0001379955
268.4072,-0.0001379154
268.5072,-0.0001377996
268.6072,-0.0001377111
268.7072,-0.0001376319
268.8072,-0.0001375199
268.9072,-0.0001374662
269.0072,-0.0001373692
269.1072,-0.0001372656
269.2072,-0.0001371733
269.3072,-0.0001370434
269.4072,-0.0001369002
269.5072,-0.0001368616
269.6072,-0.0001367335
269.7072,-0.0001366158
269.8073,-0.0001365527
269.9073,-0.0001364727
270.0073,-0.0001363437
270.1073,-0.0001363192
270.2073,-0.0001362127
270.3073,-0.0001360828
270.4073,-0.0001360159
270.5073,-0.000135951
270.6073,-0.0001357956
270.7073,-0.0001356995
270.8073,-0.0001356242
270.9073,-0.0001354933
271.0073,-0.0001353718
271.1073,-0.0001353247
271.2073,-0.0001352371
271.3073,-0.0001351025
271.4073,-0.0001350459
271.5074,-0.000134997
271.6074,-0.0001348689
271.7074,-0.00013477
271.8074,-0.0001346928
271.9074,-0.0001346099
272.0074,-0.0001344913
272.1074,-0.0001344225
272.2074,-0.0001343745
272.3074,-0.0001342351
272.4074,-0.0001341626
272.5074,-0.0001341005
272.6074,-0.0001339893
272.7074,-0.0001339083
272.8074,-0.0001338471
272.9074,-0.0001337181
273.0074,-0.0001336381
273.1075,-0.0001335863
273.2075,-0.0001335072
273.3075,-0.0001334177
273.4075,-0.0001332962
273.5075,-0.0001332369
273.6075,-0.0001331625
273.7075,-0.0001330702
273.8075,-0.000132977
273.9075,-0.0001328903
274.0075,-0.0001328451
274.1075,-0.0001327189
274.2075,-0.0001326483
274.3075,-0.0001326144
274.4075,-0.0001325033
274.5075,-0.00013241
274.6075,-0.0001323498
274.7076,-0.0001322744
274.8076,-0.0001321708
274.9076,-0.0001321162
275.0076,-0.0001320202
275.1076,-0.0001319392
275.2076,-0.000131909
275.3076,-0.000131813
275.4076,-0.0001316755
275.5076,-0.0001316425
275.6076,-0.0001315437
275.7076,-0.0001314175
275.8076,-0.0001313619
275.9076,-0.0001313205
276.0076,-0.000131198
276.1076,-0.0001311236
276.2076,-0.0001311057
276.3076,-0.0001309937
276.4077,-0.0001309306
276.5077,-0.0001308779
276.6077,-0.0001307865
276.7077,-0.0001306867
276.8077,-0.0001306198
276.9077,-0.0001305143
277.0077,-0.0001304597
277.1077,-0.0001304277
277.2077,-0.0001303392
277.3077,-0.000130229
277.4077,-0.0001301979
277.5077,-0.0001301301
277.6077,-0.000130019
277.7077,-0.0001299474
277.8077,-0.0001299107
277.9077,-0.0001298165
278.0078,-0.0001297374
278.1078,-0.000129647
278.2078,-0.0001295604
278.3078,-0.0001295171
278.4078,-0.0001294361
278.5078,-0.000129324
278.6078,-0.0001292807
278.7078,-0.0001292195
278.8078,-0.0001291083
278.9078,-0.0001290264
279.0078,-0.0001289727
279.1078,-0.0001289021
279.2078,-0.0001288221
279.3078,-0.0001287401
279.4078,-0.0001286563
279.5078,-0.0001285885
279.6078,-0.0001285348
279.7079,-0.0001284209
279.8079,-0.0001283615
279.9079,-0.0001283079
280.0079,-0.0001282024
280.1079,-0.0001281402
280.2079,-0.0001280724
280.3079,-0.0001280432
280.4079,-0.0001279509
280.5079,-0.0001279227
280.6079,-0.0001278464
280.7079,-0.0001277626
280.8079,-0.0001277485
280.9079,-0.0001276242
281.0079,-0.000127562
281.1079,-0.0001275121
281.2079,-0.0001274368
281.308,-0.0001273586
281.408,-0.0001273294
281.508,-0.0001272644
281.608,-0.0001272371
281.708,-0.0001271853
281.808,-0.0001271241
281.908,-0.000127078
282.008,-0.0001270262
282.108,-0.0001269819
282.208,-0.0001269056
282.308,-0.0001268604
282.408,-0.000126786
282.508,-0.0001266937
282.608,-0.0001266664
282.708,-0.0001266156
282.808,-0.0001265289
282.9081,-0.0001264649
283.0081,-0.0001264413
283.1081,-0.0001263924
283.2081,-0.0001262963
283.3081,-0.0001262502
283.4081,-0.000126253
283.5081,-0.0001261645
283.6081,-0.0001260505
283.7081,-0.000126043
283.8081,-0.0001259808
283.9081,-0.0001258782
284.0081,-0.0001258377
284.1081,-0.0001257972
284.2081,-0.0001257021
284.3081,-0.0001256399
284.4081,-0.0001255834
284.5081,-0.0001255119
284.6082,-0.0001254365
284.7082,-0.0001253829
284.8082,-0.0001253282
284.9082,-0.0001252293
285.0082,-0.000125187
285.1082,-0.0001251154
285.2082,-0.0001250146
285.3082,-0.0001250457
285.4082,-0.0001249609
285.5082,-0.0001248291
285.6082,-0.0001248592
285.7082,-0.0001247726
285.8082,-0.0001246728
285.9082,-0.0001246737
286.0082,-0.0001245937
286.1082,-0.0001245532
286.2083,-0.0001244986
286.3083,-0.0001244336
286.4083,-0.0001243648
286.5083,-0.0001243253
286.6083,-0.0001242631
286.7083,-0.0001242565
286.8083,-0.0001241803
286.9083,-0.0001241275
287.0083,-0.0001240899
287.1083,-0.0001240343
287.2083,-0.000123991
287.3083,-0.0001239175
287.4083,-0.0001238714
287.5083,-0.0001238337
287.6083,-0.0001237423
287.7083,-0.0001237085
287.8083,-0.0001236369
287.9084,-0.0001235738
288.0084,-0.0001235003
288.1084,-0.000123457
288.2084,-0.0001233967
288.3084,-0.0001233035
288.4084,-0.0001232574
288.5084,-0.0001232197
288.6084,-0.0001231368
288.7084,-0.0001230389
288.8084,-0.0001230069
288.9084,-0.0001229541
289.0084,-0.0001228534
289.1084,-0.0001228129
289.2084,-0.0001227328
289.3084,-0.0001226094
289.4084,-0.0001226132
289.5085,-0.0001225247
289.6085,-0.0001224192
289.7085,-0.0001223448
289.8085,-0.0001223053
289.9085,-0.000122213
290.0085,-0.0001221518
290.1085,-0.000122051
290.2085,-0.0001220001
290.3085,-0.000121938
290.4085,-0.0001218372
290.5085,-0.000121744
290.6085,-0.0001216894
290.7085,-0.0001216366
290.8085,-0.0001215283
290.9085,-0.0001214417
291.0085,-0.000121388
291.1086,-0.0001213287
291.2086,-0.0001212505
291.3086,-0.0001211808
291.4086,-0.0001211187
291.5086,-0.0001209802
291.6086,-0.0001209473
291.7086,-0.0001208399
291.8086,-0.0001207476
291.9086,-0.0001207034
292.0086,-0.0001206422
292.1086,-0.0001205536
292.2086,-0.0001204915
292.3086,-0.0001203907
292.4086,-0.0001203644
292.5086,-0.0001203013
292.6086,-0.0001202457
292.7086,-0.0001201355
292.8087,-0.000120111
292.9087,-0.0001200291
293.0087,-0.000119917
293.1087,-0.0001198747
293.2087,-0.0001197796
293.3087,-0.0001196449
293.4087,-0.0001195903
293.5087,-0.0001195206
293.6087,-0.0001194386
293.7087,-0.0001193303
293.8087,-0.0001192654
293.9087,-0.0001192173
294.0087,-0.0001191175
294.1087,-0.0001190563
294.2087,-0.0001189857
294.3087,-0.0001188821
294.4088,-0.0001188614
294.5088,-0.0001187785
294.6088,-0.000118673
294.7088,-0.0001186278
294.8088,-0.0001185628
294.9088,-0.0001184555
295.0088,-0.0001183905
295.1088,-0.000118334
295.2088,-0.0001182398
295.3088,-0.0001181447
295.4088,-0.0001180788
295.5088,-0.0001180289
295.6088,-0.0001179469
295.7088,-0.0001178876
295.8088,-0.0001177963
295.9088,-0.0001177435
296.0089,-0.0001177002
296.1089,-0.0001175834
296.2089,-0.00011751
296.3089,-0.0001174902
296.4089,-0.0001174101
296.5089,-0.0001172915
296.6089,-0.0001172877
296.7089,-0.0001172171
296.8089,-0.0001170824
296.9089,-0.0001170918
297.0089,-0.0001169911
297.1089,-0.000116911
297.2089,-0.0001168941
297.3089,-0.0001168404
297.4089,-0.0001167048
297.5089,-0.0001166671
297.6089,-0.0001166379
297.709,-0.0001165127
297.809,-0.0001164778
297.909,-0.0001164609
298.009,-0.000116394
298.109,-0.0001163281
298.209,-0.0001162904
298.309,-0.0001162273
298.409,-0.0001161463
298.509,-0.000116151
298.609,-0.000116104
298.709,-0.0001160446
298.809,-0.0001160173
298.909,-0.0001159947
299.009,-0.0001159232
299.109,-0.0001159213
299.209,-0.0001158996
299.3091,-0.0001158478
299.4091,-0.0001158139
299.5091,-0.000115813
299.6091,-0.0001157678
299.7091,-0.0001157122
299.8091,-0.0001157659
299.9091,-0.0001156858
300.0091,-0.0001156623
300.1091,-0.0001157207
300.2091,-0.0001156604
300.3091,-0.0001156161
300.4091,-0.0001155907
300.5091,-0.0001155766
300.6091,-0.0001155399
300.7091,-0.0001155239
300.8091,-0.0001155163
300.9091,-0.0001154966
301.0092,-0.0001154344
301.1092,-0.0001154579
301.2092,-0.000115408
301.3092,-0.0001153543
301.4092,-0.0001153525
301.5092,-0.0001153063
301.6092,-0.0001152432
301.7092,-0.0001151999
301.8092,-0.0001151745
301.9092,-0.0001151199
302.0092,-0.0001150455
302.1092,-0.000115021
302.2092,-0.0001149777
302.3092,-0.0001149061
302.4092,-0.0001148628
302.5092,-0.000114826
302.6093,-0.0001147319
302.7093,-0.0001146772
302.8093,-0.0001146584
302.9093,-0.000114568
303.0093,-0.0001144908
303.1093,-0.0001144286
303.2093,-0.0001143495
303.3093,-0.000114277
303.4093,-0.0001142224
303.5093,-0.0001141612
303.6093,-0.0001140755
303.7093,-0.0001139587
303.8093,-0.0001139267
303.9093,-0.0001138551
304.0093,-0.0001137751
304.1093,-0.0001137091
304.2094,-0.0001136611
304.3094,-0.0001135556
304.4094,-0.0001134643
304.5094,-0.0001133974
304.6094,-0.0001133522
304.7094,-0.0001132515
304.8094,-0.0001131714
304.9094,-0.0001131177
305.0094,-0.0001130207
305.1094,-0.0001129558
305.2094,-0.0001128946
305.3094,-0.0001127928
305.4094,-0.000112694
305.5094,-0.0001126525
305.6094,-0.0001125659
305.7094,-0.0001124472
305.8094,-0.000112403
305.9095,-0.0001123295
306.0095,-0.0001122156
306.1095,-0.0001121675
306.2095,-0.0001121063
306.3095,-0.0001119594
306.4095,-0.0001119246
306.5095,-0.0001118747
306.6095,-0.0001117362
306.7095,-0.0001116364
306.8095,-0.0001116194
306.9095,-0.0001115347
307.0095,-0.000111416
307.1095,-0.000111352
307.2095,-0.0001112861
307.3095,-0.0001111749
307.4095,-0.0001111109
307.5096,-0.0001110337
307.6096,-0.0001109414
307.7096,-0.0001108698
307.8096,-0.0001107841
307.9096,-0.0001106984
308.0096,-0.0001106532
308.1096,-0.0001105845
308.2096,-0.0001104809
308.3096,-0.0001104084
308.4096,-0.000110301
308.5096,-0.0001101993
308.6096,-0.0001101277
308.7096,-0.0001100807
308.8096,-0.0001100119
308.9096,-0.0001099262
309.0096,-0.0001098499
309.1096,-0.0001097812
309.2097,-0.0001096861
309.3097,-0.0001096136
309.4097,-0.0001095476
309.5097,-0.0001094535
309.6097,-0.0001094139
309.7097,-0.0001093056
309.8097,-0.0001092218
309.9097,-0.0001091851
310.0097,-0.0001090824
310.1097,-0.0001089798
310.2097,-0.0001089515
310.3097,-0.0001088649
310.4097,-0.0001087566
310.5097,-0.0001087048
310.6097,-0.0001086539
310.7097,-0.0001085296
310.8098,-0.0001084562
310.9098,-0.0001084166
311.0098,-0.0001083695
311.1098,-0.0001082499
311.2098,-0.0001082264
311.3098,-0.0001081539
311.4098,-0.0001080418
311.5098,-0.0001079928
311.6098,-0.0001079062
311.7098,-0.0001078431
311.8098,-0.000107747
311.9098,-0.0001076585
312.0098,-0.0001075983
312.1098,-0.0001075399
312.2098,-0.000107456
312.3098,-0.0001073854
312.4099,-0.000107327
312.5099,-0.0001072583
312.6099,-0.0001072018
312.7099,-0.0001071217
312.8099,-0.0001070831
312.9099,-0.000106988
313.0099,-0.0001069089
313.1099,-0.0001068759
313.2099,-0.000106811
313.3099,-0.0001067601
313.4099,-0.0001067111
313.5099,-0.0001066358
313.6099,-0.0001065501
313.7099,-0.0001064842
313.8099,-0.0001064248
313.9099,-0.0001063439
314.0099,-0.0001062535
314.11,-0.0001062064
314.21,-0.0001061517
314.31,-0.0001060642
314.41,-0.0001060444
314.51,-0.0001059813
314.61,-0.0001059116
314.71,-0.0001059389
314.81,-0.0001058278
314.91,-0.0001057581
315.01,-0.0001057393
315.11,-0.0001056583
315.21,-0.0001055735
315.31,-0.0001055293
315.41,-0.0001054812
315.51,-0.0001054181
315.61,-0.0001053908
315.7101,-0.0001053607
315.8101,-0.0001053324
315.9101,-0.0001052439
316.0101,-0.0001052439
316.1101,-0.0001051771
316.2101,-0.0001050961
316.3101,-0.0001050979
316.4101,-0.0001050697
316.5101,-0.0001050066
316.6101,-0.0001049699
316.7101,-0.0001049623
316.8101,-0.0001049209
316.9101,-0.0001048493
317.0101,-0.0001048437
317.1101,-0.0001048644
317.2101,-0.0001047467
317.3102,-0.0001047552
317.4102,-0.0001047448
317.5102,-0.00010466
317.6102,-0.0001046459
317.7102,-0.0001046082
317.8102,-0.0001045781
317.9102,-0.0001045715
318.0102,-0.0001044962
318.1102,-0.0001044642
318.2102,-0.000104451
318.3102,-0.0001044058
318.4102,-0.000104353
318.5102,-0.0001043483
318.6102,-0.0001042928
318.7102,-0.0001042268
318.8102,-0.0001041892
318.9102,-0.0001042071
319.0103,-0.0001041421
319.1103,-0.0001040752
319.2103,-0.0001040649
319.3103,-0.0001040281
319.4103,-0.0001039594
319.5103,-0.0001039537
319.6103,-0.0001039048
319.7103,-0.0001038511
319.8103,-0.0001038652
319.9103,-0.000103788
320.0103,-0.000103707
320.1103,-0.0001036731
320.2103,-0.0001036044
320.3103,-0.0001035601
320.4103,-0.0001035271
320.5103,-0.0001034782
320.6104,-0.000103433
320.7104,-0.0001034094
320.8104,-0.0001033482
320.9104,-0.0001032559
321.0104,-0.0001032474
321.1104,-0.0001031975
321.2104,-0.0001031391
321.3104,-0.0001030525
321.4104,-0.0001030798
321.5104,-0.0001029791
321.6104,-0.0001028905
321.7104,-0.0001028952
321.8104,-0.0001028048
321.9104,-0.0001027709
322.0104,-0.0001026994
322.1104,-0.000102656
322.2104,-0.0001025647
322.3105,-0.000102512
322.4105,-0.0001024733
322.5105,-0.00010243
322.6105,-0.000102349
322.7105,-0.0001022963
322.8105,-0.0001022568
322.9105,-0.0001021654
323.0105,-0.0001021136
323.1105,-0.0001020712
323.2105,-0.0001020128
323.3105,-0.0001019601
323.4105,-0.0001018763
323.5105,-0.000101816
323.6105,-0.0001017793
323.7105,-0.0001017576
323.8105,-0.0001016484
323.9106,-0.0001016041
324.0106,-0.0001015467
324.1106,-0.0001014685
324.2106,-0.000101428
324.3106,-0.0001013649
324.4106,-0.0001012952
324.5106,-0.0001012312
324.6106,-0.0001011869
324.7106,-0.0001011041
324.8106,-0.0001010636
324.9106,-0.0001009948
325.0106,-0.0001009251
325.1106,-0.0001008376
325.2106,-0.0001007924
325.3106,-0.0001007462
325.4106,-0.0001006577
325.5107,-0.0001006793
325.6107,-0.0001005927
325.7107,-0.0001004835
325.8107,-0.0001004891
325.9107,-0.0001003705
326.0107,-0.0001003045
326.1107,-0.0001002979
326.2107,-0.0001002273
326.3107,-0.0001001548
326.4107,-0.0001001115
326.5107,-0.0001000456
326.6107,-9.995045E-05
326.7107,-9.989772E-05
326.8107,-9.983178E-05
326.9107,-9.978847E-05
327.0107,-9.969524E-05
327.1107,-9.96877E-05
327.2108,-9.963967E-05
327.3108,-9.956057E-05
327.4108,-9.958223E-05
327.5108,-9.950501E-05
327.6108,-9.94259E-05
327.7108,-9.937317E-05
327.8108,-9.931007E-05
327.9108,-9.925733E-05
328.0108,-9.919895E-05
328.1108,-9.915657E-05
328.2108,-9.912549E-05
328.3108,-9.901813E-05
328.4108,-9.899836E-05
328.5108,-9.89767E-05
328.6108,-9.888911E-05
328.7108,-9.883827E-05
328.8109,-9.882979E-05
328.9109,-9.873561E-05
329.0109,-9.863485E-05
329.1109,-9.863768E-05
329.2109,-9.860189E-05
329.3109,-9.848793E-05
329.4109,-9.848135E-05
329.5109,-9.845404E-05
329.6109,-9.836645E-05
329.7109,-9.830713E-05
329.8109,-9.828452E-05
329.9109,-9.821013E-05
330.0109,-9.814232E-05
330.1109,-9.809618E-05
330.2109,-9.806039E-05
330.3109,-9.798882E-05
330.4109,-9.792478E-05
330.511,-9.786733E-05
330.611,-9.78033E-05
330.711,-9.773362E-05
330.811,-9.767334E-05
330.911,-9.767523E-05
331.011,-9.759989E-05
331.111,-9.752643E-05
331.211,-9.749159E-05
331.311,-9.741813E-05
331.411,-9.735974E-05
331.511,-9.729194E-05
331.611,-9.723449E-05
331.711,-9.721001E-05
331.811,-9.709982E-05
331.911,-9.707816E-05
332.011,-9.701319E-05
332.1111,-9.693314E-05
332.2111,-9.689547E-05
332.3111,-9.684273E-05
332.4111,-9.676363E-05
332.5111,-9.672879E-05
332.6111,-9.669112E-05
332.7111,-9.658E-05
332.8111,-9.65508E-05
332.9111,-9.653572E-05
333.0111,-9.646981E-05
333.1111,-9.637752E-05
333.2111,-9.633043E-05
333.3111,-9.629464E-05
333.4111,-9.622308E-05
333.5111,-9.617599E-05
333.6111,-9.612984E-05
333.7112,-9.60319E-05
333.8112,-9.599989E-05
333.9112,-9.599141E-05
334.0112,-9.588594E-05
334.1112,-9.583414E-05
334.2112,-9.582567E-05
334.3112,-9.573902E-05
334.4112,-9.570324E-05
334.5112,-9.56279E-05
334.6112,-9.556386E-05
334.7112,-9.549041E-05
334.8112,-9.54452E-05
334.9112,-9.541319E-05
335.0112,-9.535009E-05
335.1112,-9.52691E-05
335.2112,-9.523426E-05
335.3112,-9.518058E-05
335.4113,-9.510713E-05
335.5113,-9.503744E-05
335.6113,-9.500824E-05
335.7113,-9.496304E-05
335.8113,-9.490277E-05
335.9113,-9.482649E-05
336.0113,-9.483873E-05
336.1113,-9.479447E-05
336.2113,-9.468993E-05
336.3113,-9.464191E-05
336.4113,-9.462213E-05
336.5113,-9.452889E-05
336.6113,-9.448087E-05
336.7113,-9.44611E-05
336.8113,-9.437164E-05
336.9113,-9.430948E-05
337.0114,-9.427086E-05
337.1114,-9.424921E-05
337.2114,-9.415032E-05
337.3114,-9.40844E-05
337.4114,-9.407499E-05
337.5114,-9.400059E-05
337.6114,-9.395539E-05
337.7114,-9.389135E-05
337.8114,-9.384709E-05
337.9114,-9.382165E-05
338.0114,-9.373314E-05
338.1114,-9.368228E-05
338.2114,-9.366345E-05
338.3114,-9.357304E-05
338.4114,-9.350806E-05
338.5114,-9.345062E-05
338.6115,-9.341672E-05
338.7115,-9.332348E-05
338.8115,-9.329429E-05
338.9115,-9.324626E-05
339.0115,-9.316998E-05
339.1115,-9.316245E-05
339.2115,-9.311066E-05
339.3115,-9.300989E-05
339.4115,-9.297881E-05
339.5115,-9.297128E-05
339.6115,-9.286957E-05
339.7115,-9.277257E-05
339.8115,-9.27641E-05
339.9115,-9.272736E-05
340.0115,-9.262567E-05
340.1115,-9.257857E-05
340.2115,-9.256728E-05
340.3116,-9.243638E-05
340.4116,-9.241E-05
340.5116,-9.239589E-05
340.6116,-9.230547E-05
340.7116,-9.223766E-05
340.8116,-9.222731E-05
340.9116,-9.21934E-05
341.0116,-9.207757E-05
341.1116,-9.20239E-05
341.2116,-9.2006E-05
341.3116,-9.190336E-05
341.4116,-9.195421E-05
341.5116,-9.185344E-05
341.6116,-9.179411E-05
341.7116,-9.187133E-05
341.8116,-9.176774E-05
341.9117,-9.164061E-05
342.0117,-9.161989E-05
342.1117,-9.157374E-05
342.2117,-9.145885E-05
342.3117,-9.143155E-05
342.4117,-9.143531E-05
342.5117,-9.137221E-05
342.6117,-9.127617E-05
342.7117,-9.131101E-05
342.8117,-9.125827E-05
342.9117,-9.115939E-05
343.0117,-9.116033E-05
343.1117,-9.113772E-05
343.2117,-9.106427E-05
343.3117,-9.103979E-05
343.4117,-9.105862E-05
343.5117,-9.094938E-05
343.6118,-9.094561E-05
343.7118,-9.096068E-05
343.8118,-9.087404E-05
343.9118,-9.08147E-05
344.0118,-9.083543E-05
344.1118,-9.081094E-05
344.2118,-9.072807E-05
344.3118,-9.074126E-05
344.4118,-9.074032E-05
344.5118,-9.063672E-05
344.6118,-9.066497E-05
344.7118,-9.063578E-05
344.8118,-9.057269E-05
344.9118,-9.057364E-05
345.0118,-9.054444E-05
345.1118,-9.049735E-05
345.2119,-9.043519E-05
345.3119,-9.039752E-05
345.4119,-9.038811E-05
345.5119,-9.035421E-05
345.6119,-9.029582E-05
345.7119,-9.029111E-05
345.8119,-9.024968E-05
345.9119,-9.023461E-05
346.0119,-9.020164E-05
346.1119,-9.012913E-05
346.2119,-9.015079E-05
346.3119,-9.011124E-05
346.4119,-9.001989E-05
346.5119,-8.999823E-05
346.6119,-8.998505E-05
346.7119,-8.993797E-05
346.812,-8.989747E-05
346.912,-8.985697E-05
347.012,-8.980894E-05
347.112,-8.977504E-05
347.212,-8.973266E-05
347.312,-8.968182E-05
347.412,-8.967333E-05
347.512,-8.963472E-05
347.612,-8.956127E-05
347.712,-8.952265E-05
347.812,-8.949252E-05
347.912,-8.943507E-05
348.012,-8.935879E-05
348.112,-8.938046E-05
348.212,-8.930606E-05
348.312,-8.921376E-05
348.412,-8.920153E-05
348.5121,-8.91761E-05
348.6121,-8.908947E-05
348.7121,-8.903578E-05
348.8121,-8.899717E-05
348.9121,-8.894161E-05
349.0121,-8.889923E-05
349.1121,-8.885119E-05
349.2121,-8.878152E-05
349.3121,-8.87382E-05
349.4121,-8.870052E-05
349.5121,-8.864119E-05
349.6121,-8.860164E-05
349.7121,-8.855079E-05
349.8121,-8.846792E-05
349.9121,-8.842177E-05
350.0121,-8.83907E-05
350.1122,-8.833419E-05
350.2122,-8.825886E-05
350.3122,-8.826073E-05
350.4122,-8.821647E-05
350.5122,-8.816092E-05
350.6122,-8.810913E-05
350.7122,-8.806579E-05
350.8122,-8.799517E-05
350.9122,-8.794526E-05
351.0122,-8.78944E-05
351.1122,-8.78266E-05
351.2122,-8.778799E-05
351.3122,-8.772771E-05
351.4122,-8.767969E-05
351.5122,-8.764295E-05
351.6122,-8.757045E-05
351.7122,-8.750735E-05
351.8123,-8.747345E-05
351.9123,-8.743672E-05
352.0123,-8.735385E-05
352.1123,-8.735574E-05
352.2123,-8.733313E-05
352.3123,-8.72625E-05
352.4123,-8.717304E-05
352.5123,-8.715797E-05
352.6123,-8.711089E-05
352.7123,-8.7012E-05
352.8123,-8.695738E-05
352.9123,-8.692159E-05
353.0123,-8.687074E-05
353.1123,-8.681706E-05
353.2123,-8.675773E-05
353.3123,-8.669558E-05
353.4124,-8.665602E-05
353.5124,-8.658352E-05
353.6124,-8.65515E-05
353.7124,-8.649593E-05
353.8124,-8.646674E-05
353.9124,-8.639611E-05
354.0124,-8.636692E-05
354.1124,-8.633961E-05
354.2124,-8.624638E-05
354.3124,-8.62087E-05
354.4124,-8.617668E-05
354.5124,-8.608346E-05
354.6124,-8.604013E-05
354.7124,-8.60147E-05
354.8124,-8.59469E-05
354.9124,-8.589134E-05
355.0125,-8.586686E-05
355.1125,-8.581694E-05
355.2125,-8.577362E-05
355.3125,-8.571619E-05
355.4125,-8.568039E-05
355.5125,-8.560506E-05
355.6125,-8.555796E-05
355.7125,-8.551842E-05
355.8125,-8.548262E-05
355.9125,-8.545061E-05
356.0125,-8.534419E-05
356.1125,-8.532159E-05
356.2125,-8.529617E-05
356.3125,-8.521141E-05
356.4125,-8.516903E-05
356.5125,-8.512854E-05
356.6125,-8.509747E-05
356.7126,-8.504943E-05
356.8126,-8.497221E-05
356.9126,-8.497127E-05
357.0126,-8.490912E-05
357.1126,-8.483943E-05
357.2126,-8.479423E-05
357.3126,-8.478009E-05
357.4126,-8.471795E-05
357.5126,-8.465014E-05
357.6126,-8.461718E-05
357.7126,-8.456538E-05
357.8126,-8.452206E-05
357.9126,-8.448533E-05
358.0126,-8.440529E-05
358.1126,-8.435631E-05
358.2126,-8.434784E-05
358.3127,-8.431112E-05
358.4127,-8.421223E-05
358.5127,-8.425744E-05
358.6127,-8.419905E-05
358.7127,-8.409734E-05
358.8127,-8.407285E-05
358.9127,-8.403049E-05
359.0127,-8.394573E-05
359.1127,-8.389016E-05
359.2127,-8.389016E-05
359.3127,-8.382047E-05
359.4127,-8.372065E-05
359.5127,-8.373101E-05
359.6127,-8.36858E-05
359.7127,-8.360011E-05
359.8127,-8.35615E-05
359.9128,-8.353419E-05
360.0128,-8.346921E-05
360.1128,-8.342966E-05
360.2128,-8.337221E-05
360.3128,-8.33562E-05
360.4128,-8.329404E-05
360.5128,-8.327333E-05
360.6128,-8.323565E-05
360.7128,-8.317915E-05
360.8128,-8.310476E-05
360.9128,-8.306426E-05
361.0128,-8.300776E-05
361.1128,-8.299646E-05
361.2128,-8.2923E-05
361.3128,-8.287686E-05
361.4128,-8.282318E-05
361.5128,-8.277044E-05
361.6129,-8.273749E-05
361.7129,-8.270264E-05
361.8129,-8.267532E-05
361.9129,-8.260282E-05
362.0129,-8.260093E-05
362.1129,-8.258021E-05
362.2129,-8.251147E-05
362.3129,-8.247945E-05
362.4129,-8.245968E-05
362.5129,-8.240694E-05
362.6129,-8.235419E-05
362.7129,-8.229676E-05
362.8129,-8.229487E-05
362.9129,-8.226191E-05
363.0129,-8.219222E-05
363.1129,-8.219128E-05
363.213,-8.212913E-05
363.313,-8.206603E-05
363.413,-8.203966E-05
363.513,-8.20359E-05
363.613,-8.198975E-05
363.713,-8.190876E-05
363.813,-8.188239E-05
363.913,-8.19144E-05
364.013,-8.18758E-05
364.113,-8.17788E-05
364.213,-8.175808E-05
364.313,-8.172135E-05
364.413,-8.163471E-05
364.513,-8.159987E-05
364.613,-8.15735E-05
364.713,-8.152924E-05
364.813,-8.145485E-05
364.9131,-8.144259E-05
365.0131,-8.142753E-05
365.1131,-8.133713E-05
365.2131,-8.132865E-05
365.3131,-8.130134E-05
365.4131,-8.122695E-05
365.5131,-8.120811E-05
365.6131,-8.119305E-05
365.7131,-8.113748E-05
365.8131,-8.106214E-05
365.9131,-8.102636E-05
366.0131,-8.100564E-05
366.1131,-8.096325E-05
366.2131,-8.089922E-05
366.3131,-8.085496E-05
366.4131,-8.080975E-05
366.5132,-8.076832E-05
366.6132,-8.07024E-05
366.7132,-8.068922E-05
366.8132,-8.06798E-05
366.9132,-8.060352E-05
367.0132,-8.054702E-05
367.1132,-8.052535E-05
367.2132,-8.053194E-05
367.3132,-8.044625E-05
367.4132,-8.041423E-05
367.5132,-8.036902E-05
367.6132,-8.030688E-05
367.7132,-8.028521E-05
367.8132,-8.025037E-05
367.9132,-8.017785E-05
368.0132,-8.016561E-05
368.1133,-8.014395E-05
368.2133,-8.007426E-05
368.3133,-8.001494E-05
368.4133,-7.999893E-05
368.5133,-7.996314E-05
368.6133,-7.990099E-05
368.7133,-7.989063E-05
368.8133,-7.981246E-05
368.9133,-7.975313E-05
369.0133,-7.977197E-05
369.1133,-7.974466E-05
369.2133,-7.965519E-05
369.3133,-7.965708E-05
369.4133,-7.962224E-05
369.5133,-7.952618E-05
369.6133,-7.954689E-05
369.7133,-7.949321E-05
369.8134,-7.940846E-05
369.9134,-7.937268E-05
370.0134,-7.932841E-05
370.1134,-7.929074E-05
370.2134,-7.923519E-05
370.3134,-7.918715E-05
370.4134,-7.911558E-05
370.5134,-7.910334E-05
370.6134,-7.907415E-05
370.7134,-7.898562E-05
370.8134,-7.895361E-05
370.9134,-7.892159E-05
371.0134,-7.88971E-05
371.1134,-7.880764E-05
371.2134,-7.88114E-05
371.3134,-7.877562E-05
371.4135,-7.86871E-05
371.5135,-7.866826E-05
371.6135,-7.865037E-05
371.7135,-7.859198E-05
371.8135,-7.852606E-05
371.9135,-7.849593E-05
372.0135,-7.844978E-05
372.1135,-7.842811E-05
372.2135,-7.838857E-05
372.3135,-7.831323E-05
372.4135,-7.829345E-05
372.5135,-7.82539E-05
372.6135,-7.822095E-05
372.7135,-7.81795E-05
372.8135,-7.81635E-05
372.9135,-7.811264E-05
373.0135,-7.807498E-05
373.1136,-7.805332E-05
373.2136,-7.801281E-05
373.3136,-7.789322E-05
373.4136,-7.790641E-05
373.5136,-7.784613E-05
373.6136,-7.776137E-05
373.7136,-7.773406E-05
373.8136,-7.771428E-05
373.9136,-7.76286E-05
374.0136,-7.757868E-05
374.1136,-7.756361E-05
374.2136,-7.753065E-05
374.3136,-7.745437E-05
374.4136,-7.745531E-05
374.5136,-7.740634E-05
374.6136,-7.734701E-05
374.7137,-7.734701E-05
374.8137,-7.730652E-05
374.9137,-7.723683E-05
375.0137,-7.719539E-05
375.1137,-7.719539E-05
375.2137,-7.713041E-05
375.3137,-7.709275E-05
375.4137,-7.704754E-05
375.5137,-7.701647E-05
375.6137,-7.697126E-05
375.7137,-7.690722E-05
375.8137,-7.686014E-05
375.9137,-7.683754E-05
376.0137,-7.676973E-05
376.1137,-7.6733E-05
376.2137,-7.67283E-05
376.3138,-7.668121E-05
376.4138,-7.661435E-05
376.5138,-7.65908E-05
376.6138,-7.658326E-05
376.7138,-7.651452E-05
376.8138,-7.644389E-05
376.9138,-7.64599E-05
377.0138,-7.642412E-05
377.1138,-7.636196E-05
377.2138,-7.635819E-05
377.3138,-7.633465E-05
377.4138,-7.629227E-05
377.5138,-7.636573E-05
377.6138,-7.629792E-05
377.7138,-7.621317E-05
377.8138,-7.628097E-05
377.9138,-7.623106E-05
378.0139,-7.609357E-05
378.1139,-7.607756E-05
378.2139,-7.604554E-05
378.3139,-7.597303E-05
378.4139,-7.592405E-05
378.5139,-7.590617E-05
378.6139,-7.587414E-05
378.7139,-7.580916E-05
378.8139,-7.582988E-05
378.9139,-7.578186E-05
379.0139,-7.572629E-05
379.1139,-7.574419E-05
379.2139,-7.571594E-05
379.3139,-7.566508E-05
379.4139,-7.564812E-05
379.5139,-7.56453E-05
379.614,-7.558127E-05
379.714,-7.551722E-05
379.814,-7.552759E-05
379.914,-7.551722E-05
380.014,-7.542493E-05
380.114,-7.542964E-05
380.214,-7.54334E-05
380.314,-7.536654E-05
380.414,-7.534771E-05
380.514,-7.532888E-05
380.614,-7.52752E-05
380.714,-7.524977E-05
380.814,-7.524601E-05
380.914,-7.519893E-05
381.014,-7.515843E-05
381.114,-7.5133E-05
381.2141,-7.511793E-05
381.3141,-7.509722E-05
381.4141,-7.504825E-05
381.5141,-7.502471E-05
381.6141,-7.499457E-05
381.7141,-7.493619E-05
381.8141,-7.491829E-05
381.9141,-7.486461E-05
382.0141,-7.486084E-05
382.1141,-7.485802E-05
382.2141,-7.479774E-05
382.3141,-7.476856E-05
382.4141,-7.475442E-05
382.5141,-7.468851E-05
382.6141,-7.46546E-05
382.7141,-7.464518E-05
382.8141,-7.462635E-05
382.9142,-7.458397E-05
383.0142,-7.457173E-05
383.1142,-7.451711E-05
383.2142,-7.449451E-05
383.3142,-7.446249E-05
383.4142,-7.443895E-05
383.5142,-7.439469E-05
383.6142,-7.433441E-05
383.7142,-7.434477E-05
383.8142,-7.430239E-05
383.9142,-7.425908E-05
384.0142,-7.419127E-05
384.1142,-7.419315E-05
384.2142,-7.416866E-05
384.3142,-7.410839E-05
384.4142,-7.406696E-05
384.5143,-7.406979E-05
384.6143,-7.404153E-05
384.7143,-7.399633E-05
384.8143,-7.401799E-05
384.9143,-7.395302E-05
385.0143,-7.388144E-05
385.1143,-7.393323E-05
385.2143,-7.38645E-05
385.3143,-7.380421E-05
385.4143,-7.380045E-05
385.5143,-7.378255E-05
385.6143,-7.368838E-05
385.7143,-7.367144E-05
385.8143,-7.366296E-05
385.9143,-7.360928E-05
386.0143,-7.356408E-05
386.1143,-7.354807E-05
386.2144,-7.353677E-05
386.3144,-7.347932E-05
386.4144,-7.345766E-05
386.5144,-7.342847E-05
386.6144,-7.340775E-05
386.7144,-7.343317E-05
386.8144,-7.338232E-05
386.9144,-7.331451E-05
387.0144,-7.336443E-05
387.1144,-7.327591E-05
387.2144,-7.319963E-05
387.3144,-7.322694E-05
387.4144,-7.315818E-05
387.5144,-7.312146E-05
387.6144,-7.308568E-05
387.7144,-7.309604E-05
387.8145,-7.306496E-05
387.9145,-7.300186E-05
388.0145,-7.297549E-05
388.1145,-7.296702E-05
388.2145,-7.291993E-05
388.3145,-7.287756E-05
388.4145,-7.285683E-05
388.5145,-7.28267E-05
388.6145,-7.27928E-05
388.7145,-7.275042E-05
388.8145,-7.27184E-05
388.9145,-7.271087E-05
389.0145,-7.265247E-05
389.1145,-7.262422E-05
389.2145,-7.262046E-05
389.3145,-7.256772E-05
389.4146,-7.251311E-05
389.5146,-7.249992E-05
389.6146,-7.249427E-05
389.7146,-7.243588E-05
389.8146,-7.242835E-05
389.9146,-7.240292E-05
390.0146,-7.235019E-05
390.1146,-7.231534E-05
390.2146,-7.229557E-05
390.3146,-7.225695E-05
390.4146,-7.218539E-05
390.5146,-7.223247E-05
390.6146,-7.218256E-05
390.7146,-7.211287E-05
390.8146,-7.214112E-05
390.9146,-7.208932E-05
391.0146,-7.202906E-05
391.1147,-7.20008E-05
391.2147,-7.198668E-05
391.3147,-7.193018E-05
391.4147,-7.18991E-05
391.5147,-7.189722E-05
391.6147,-7.183129E-05
391.7147,-7.177384E-05
391.8147,-7.180021E-05
391.9147,-7.177761E-05
392.0147,-7.167873E-05
392.1147,-7.17051E-05
392.2147,-7.171357E-05
392.3147,-7.161281E-05
392.4147,-7.159304E-05
392.5147,-7.159586E-05
392.6147,-7.152146E-05
392.7148,-7.150922E-05
392.8148,-7.147344E-05
392.9148,-7.142729E-05
393.0148,-7.1432E-05
393.1148,-7.135948E-05
393.2148,-7.132653E-05
393.3148,-7.13124E-05
393.4148,-7.126813E-05
393.5148,-7.122952E-05
393.6148,-7.12041E-05
393.7148,-7.11636E-05
393.8148,-7.109297E-05
393.9148,-7.107225E-05
394.0148,-7.104023E-05
394.1148,-7.101199E-05
394.2148,-7.09423E-05
394.3148,-7.09357E-05
394.4149,-7.088956E-05
394.5149,-7.084718E-05
394.6149,-7.084059E-05
394.7149,-7.08001E-05
394.8149,-7.073511E-05
394.9149,-7.077467E-05
395.0149,-7.071062E-05
395.1149,-7.066166E-05
395.2149,-7.061175E-05
395.3149,-7.056654E-05
395.4149,-7.050062E-05
395.5149,-7.048273E-05
395.6149,-7.044977E-05
395.7149,-7.04008E-05
395.8149,-7.03669E-05
395.9149,-7.033676E-05
396.015,-7.029062E-05
396.115,-7.025766E-05
396.215,-7.023223E-05
396.315,-7.019551E-05
396.415,-7.013241E-05
396.515,-7.01211E-05
396.615,-7.007214E-05
396.715,-7.000904E-05
396.815,-7.000715E-05
396.915,-7.001187E-05
397.015,-6.990734E-05
397.115,-6.986119E-05
397.215,-6.987531E-05
397.315,-6.983576E-05
397.415,-6.9751E-05
397.515,-6.974347E-05
397.6151,-6.972181E-05
397.7151,-6.967284E-05
397.8151,-6.961916E-05
397.9151,-6.961822E-05
398.0151,-6.955984E-05
398.1151,-6.953346E-05
398.2151,-6.94779E-05
398.3151,-6.943553E-05
398.4151,-6.94101E-05
398.5151,-6.935831E-05
398.6151,-6.933099E-05
398.7151,-6.928486E-05
398.8151,-6.926979E-05
398.9151,-6.921704E-05
399.0151,-6.917561E-05
399.1151,-6.916431E-05
399.2151,-6.910309E-05
399.3152,-6.907861E-05
399.4152,-6.901834E-05
399.5152,-6.899385E-05
399.6152,-6.897691E-05
399.7152,-6.890816E-05
399.8152,-6.890627E-05
399.9152,-6.886202E-05
400.0152,-6.882905E-05
400.1152,-6.87716E-05
400.2152,-6.87603E-05
400.3152,-6.8733E-05
400.4152,-6.865107E-05
400.5152,-6.864635E-05
400.6152,-6.865578E-05
400.7152,-6.861716E-05
400.8152,-6.856348E-05
400.9153,-6.855596E-05
401.0153,-6.848061E-05
401.1153,-6.8442E-05
401.2153,-6.84354E-05
401.3153,-6.841658E-05
401.4153,-6.835159E-05
401.5153,-6.832051E-05
401.6153,-6.830074E-05
401.7153,-6.824801E-05
401.8153,-6.824235E-05
401.9153,-6.825742E-05
402.0153,-6.8232E-05
402.1153,-6.814724E-05
402.2153,-6.815195E-05
402.3153,-6.805118E-05
402.4153,-6.801727E-05
402.5154,-6.799186E-05
402.6154,-6.793158E-05
402.7154,-6.787507E-05
402.8154,-6.785907E-05
402.9154,-6.783364E-05
403.0154,-6.779126E-05
403.1154,-6.773099E-05
403.2154,-6.771969E-05
403.3154,-6.771876E-05
403.4154,-6.7634E-05
403.5154,-6.762552E-05
403.6154,-6.760951E-05
403.7154,-6.754642E-05
403.8154,-6.751911E-05
403.9154,-6.749838E-05
404.0154,-6.745883E-05
404.1154,-6.741363E-05
404.2155,-6.736466E-05
404.3155,-6.73543E-05
404.4155,-6.732699E-05
404.5155,-6.727425E-05
404.6155,-6.725448E-05
404.7155,-6.72121E-05
404.8155,-6.720174E-05
404.9155,-6.713017E-05
405.0155,-6.707838E-05
405.1155,-6.708873E-05
405.2155,-6.704918E-05
405.3155,-6.698703E-05
405.4155,-6.701904E-05
405.5155,-6.697478E-05
405.6155,-6.690321E-05
405.7155,-6.698232E-05
405.8156,-6.695501E-05
405.9156,-6.68759E-05
406.0156,-6.690604E-05
406.1156,-6.685989E-05
406.2156,-6.678361E-05
406.3156,-6.673559E-05
406.4156,-6.66772E-05
406.5156,-6.669603E-05
406.6156,-6.663011E-05
406.7156,-6.657078E-05
406.8156,-6.658678E-05
406.9156,-6.653499E-05
407.0156,-6.64945E-05
407.1156,-6.647001E-05
407.2156,-6.643799E-05
407.3156,-6.64088E-05
407.4156,-6.635889E-05
407.5157,-6.63297E-05
407.6157,-6.632216E-05
407.7157,-6.627225E-05
407.8157,-6.623835E-05
407.9157,-6.621952E-05
408.0157,-6.620068E-05
408.1157,-6.615547E-05
408.2157,-6.61197E-05
408.3157,-6.609144E-05
408.4157,-6.604718E-05
408.5157,-6.60274E-05
408.6157,-6.601045E-05
408.7157,-6.595207E-05
408.8157,-6.594264E-05
408.9157,-6.595394E-05
409.0157,-6.589838E-05
409.1158,-6.585317E-05
409.2158,-6.587861E-05
409.3158,-6.580421E-05
409.4158,-6.573828E-05
409.5158,-6.572416E-05
409.6158,-6.570156E-05
409.7158,-6.565259E-05
409.8158,-6.562151E-05
409.9158,-6.559514E-05
410.0158,-6.55716E-05
410.1158,-6.555465E-05
410.2158,-6.552546E-05
410.3158,-6.548967E-05
410.4158,-6.547931E-05
410.5158,-6.539927E-05
410.6158,-6.537383E-05
410.7159,-6.538702E-05
410.8159,-6.533429E-05
410.9159,-6.52759E-05
411.0159,-6.52759E-05
411.1159,-6.524765E-05
411.2159,-6.518455E-05
411.3159,-6.51723E-05
411.4159,-6.512899E-05
411.5159,-6.508567E-05
411.6159,-6.504801E-05
411.7159,-6.504235E-05
411.8159,-6.502069E-05
411.9159,-6.49284E-05
412.0159,-6.491427E-05
412.1159,-6.495194E-05
412.2159,-6.490203E-05
412.3159,-6.483611E-05
412.416,-6.488602E-05
412.516,-6.481351E-05
412.616,-6.472592E-05
412.716,-6.472592E-05
412.816,-6.469768E-05
412.916,-6.462328E-05
413.016,-6.461951E-05
413.116,-6.462328E-05
413.216,-6.455641E-05
413.316,-6.449332E-05
413.416,-6.455077E-05
413.516,-6.447166E-05
413.616,-6.441515E-05
413.716,-6.443022E-05
413.816,-6.44161E-05
413.916,-6.434547E-05
414.0161,-6.432758E-05
414.1161,-6.429273E-05
414.2161,-6.425506E-05
414.3161,-6.425317E-05
414.4161,-6.423623E-05
414.5161,-6.416936E-05
414.6161,-6.414017E-05
414.7161,-6.411758E-05
414.8161,-6.408084E-05
414.9161,-6.406577E-05
415.0161,-6.401304E-05
415.1161,-6.398761E-05
415.2161,-6.396218E-05
415.3161,-6.394146E-05
415.4161,-6.389532E-05
415.5161,-6.383882E-05
415.6161,-6.385388E-05
415.7162,-6.380585E-05
415.8162,-6.378419E-05
415.9162,-6.374464E-05
416.0162,-6.369568E-05
416.1162,-6.368249E-05
416.2162,-6.367872E-05
416.3162,-6.364952E-05
416.4162,-6.35855E-05
416.5162,-6.361375E-05
416.6162,-6.357701E-05
416.7162,-6.348284E-05
416.8162,-6.35045E-05
416.9162,-6.347342E-05
417.0162,-6.341127E-05
417.1162,-6.340939E-05
417.2162,-6.340656E-05
417.3163,-6.334818E-05
417.4163,-6.331428E-05
417.5163,-6.331898E-05
417.6163,-6.32879E-05
417.7163,-6.322293E-05
417.8163,-6.322293E-05
417.9163,-6.320786E-05
418.0163,-6.316454E-05
418.1163,-6.315888E-05
418.2163,-6.314288E-05
418.3163,-6.310144E-05
418.4163,-6.316454E-05
418.5163,-6.309767E-05
418.6163,-6.306754E-05
418.7163,-6.311556E-05
418.8163,-6.307036E-05
418.9164,-6.298467E-05
419.0164,-6.295359E-05
419.1164,-6.291498E-05
419.2164,-6.282928E-05
419.3164,-6.279443E-05
419.4164,-6.280292E-05
419.5164,-6.274641E-05
419.6164,-6.273323E-05
419.7164,-6.27304E-05
419.8164,-6.266165E-05
419.9164,-6.264752E-05
420.0164,-6.265035E-05
420.1164,-6.261645E-05
420.2164,-6.255806E-05
420.3164,-6.256183E-05
420.4164,-6.254583E-05
420.5164,-6.250156E-05
420.6165,-6.247236E-05
420.7165,-6.248272E-05
420.8165,-6.243564E-05
420.9165,-6.23716E-05
421.0165,-6.241492E-05
421.1165,-6.236312E-05
421.2165,-6.230285E-05
421.3165,-6.231133E-05
421.4165,-6.23151E-05
421.5165,-6.224259E-05
421.6165,-6.223316E-05
421.7165,-6.22068E-05
421.8165,-6.217477E-05
421.9165,-6.2155E-05
422.0165,-6.214558E-05
422.1165,-6.211733E-05
422.2166,-6.208626E-05
422.3166,-6.206836E-05
422.4166,-6.20533E-05
422.5166,-6.20128E-05
422.6166,-6.201657E-05
422.7166,-6.196571E-05
422.8166,-6.193369E-05
422.9166,-6.191862E-05
423.0166,-6.190073E-05
423.1166,-6.184329E-05
423.2166,-6.181881E-05
423.3166,-6.183199E-05
423.4166,-6.175476E-05
423.5166,-6.177266E-05
423.6166,-6.174629E-05
423.7166,-6.171239E-05
423.8167,-6.164364E-05
423.9167,-6.164081E-05
424.0167,-6.163422E-05
424.1167,-6.156454E-05
424.2167,-6.155417E-05
424.3167,-6.157584E-05
424.4167,-6.150991E-05
424.5167,-6.152404E-05
424.6167,-6.149485E-05
424.7167,-6.147318E-05
424.8167,-6.152216E-05
424.9167,-6.145906E-05
425.0167,-6.141009E-05
425.1167,-6.139879E-05
425.2167,-6.13696E-05
425.3167,-6.131027E-05
425.4167,-6.129049E-05
425.5168,-6.128201E-05
425.6168,-6.127166E-05
425.7168,-6.123022E-05
425.8168,-6.120291E-05
425.9168,-6.119255E-05
426.0168,-6.116336E-05
426.1168,-6.114547E-05
426.2168,-6.108425E-05
426.3168,-6.107955E-05
426.4168,-6.104658E-05
426.5168,-6.099573E-05
426.6168,-6.099197E-05
426.7168,-6.096654E-05
426.8168,-6.09185E-05
426.9168,-6.09072E-05
427.0168,-6.089308E-05
427.1169,-6.086106E-05
427.2169,-6.081868E-05
427.3169,-6.079138E-05
427.4169,-6.083375E-05
427.5169,-6.073958E-05
427.6169,-6.070662E-05
427.7169,-6.071416E-05
427.8169,-6.07085E-05
427.9169,-6.063881E-05
428.0169,-6.06228E-05
428.1169,-6.059643E-05
428.2169,-6.057948E-05
428.3169,-6.055311E-05
428.4169,-6.054276E-05
428.5169,-6.051262E-05
428.6169,-6.043728E-05
428.7169,-6.043446E-05
428.817,-6.042128E-05
428.917,-6.040244E-05
429.017,-6.039961E-05
429.117,-6.031768E-05
429.217,-6.03271E-05
429.317,-6.030827E-05
429.417,-6.023952E-05
429.517,-6.021597E-05
429.617,-6.019526E-05
429.717,-6.019997E-05
429.817,-6.014911E-05
429.917,-6.011803E-05
430.017,-6.011992E-05
430.117,-6.006907E-05
430.217,-6.00314E-05
430.317,-6.001256E-05
430.4171,-6.001068E-05
430.5171,-5.994852E-05
430.6171,-5.993722E-05
430.7171,-5.994947E-05
430.8171,-5.987319E-05
430.9171,-5.987225E-05
431.0171,-5.986659E-05
431.1171,-5.98148E-05
431.2171,-5.981009E-05
431.3171,-5.975736E-05
431.4171,-5.971309E-05
431.5171,-5.974135E-05
431.6171,-5.968201E-05
431.7171,-5.963022E-05
431.8171,-5.964152E-05
431.9171,-5.960008E-05
432.0172,-5.955394E-05
432.1172,-5.956618E-05
432.2172,-5.954923E-05
432.3172,-5.950968E-05
432.4172,-5.948708E-05
432.5172,-5.946448E-05
432.6172,-5.941174E-05
432.7172,-5.936842E-05
432.8172,-5.934016E-05
432.9172,-5.933923E-05
433.0172,-5.930532E-05
433.1172,-5.927895E-05
433.2172,-5.929402E-05
433.3172,-5.922433E-05
433.4172,-5.919514E-05
433.5172,-5.916406E-05
433.6172,-5.913298E-05
433.7173,-5.913769E-05
433.8173,-5.909343E-05
433.9173,-5.904258E-05
434.0173,-5.907083E-05
434.1173,-5.904635E-05
434.2173,-5.901433E-05
434.3173,-5.898419E-05
434.4173,-5.897477E-05
434.5173,-5.893616E-05
434.6173,-5.887024E-05
434.7173,-5.888437E-05
434.8173,-5.886271E-05
434.9173,-5.87949E-05
435.0173,-5.876948E-05
435.1173,-5.874405E-05
435.2173,-5.871109E-05
435.3174,-5.86932E-05
435.4174,-5.868095E-05
435.5174,-5.865741E-05
435.6174,-5.862351E-05
435.7174,-5.860844E-05
435.8174,-5.858584E-05
435.9174,-5.858396E-05
436.0174,-5.854817E-05
436.1174,-5.848978E-05
436.2174,-5.848978E-05
436.3174,-5.847848E-05
436.4174,-5.843328E-05
436.5174,-5.839844E-05
436.6174,-5.837678E-05
436.7174,-5.836453E-05
436.8174,-5.832687E-05
436.9174,-5.830238E-05
437.0175,-5.82939E-05
437.1175,-5.827413E-05
437.2175,-5.823552E-05
437.3175,-5.823552E-05
437.4175,-5.818183E-05
437.5175,-5.819784E-05
437.6175,-5.815076E-05
437.7175,-5.810838E-05
437.8175,-5.810179E-05
437.9175,-5.806882E-05
438.0175,-5.801421E-05
438.1175,-5.800573E-05
438.2175,-5.797277E-05
438.3175,-5.793228E-05
438.4175,-5.790214E-05
438.5175,-5.788331E-05
438.6176,-5.781832E-05
438.7176,-5.781739E-05
438.8176,-5.782775E-05
438.9176,-5.776936E-05
439.0176,-5.771286E-05
439.1176,-5.770815E-05
439.2176,-5.770626E-05
439.3176,-5.764411E-05
439.4176,-5.761868E-05
439.5176,-5.762151E-05
439.6176,-5.757442E-05
439.7176,-5.754805E-05
439.8176,-5.752922E-05
439.9176,-5.746706E-05
440.0176,-5.74407E-05
440.1176,-5.741809E-05
440.2177,-5.738324E-05
440.3177,-5.737383E-05
440.4177,-5.73258E-05
440.5177,-5.727118E-05
440.6177,-5.728248E-05
440.7177,-5.727966E-05
440.8177,-5.720621E-05
440.9177,-5.718078E-05
441.0177,-5.720244E-05
441.1177,-5.718172E-05
441.2177,-5.710638E-05
441.3177,-5.715912E-05
441.4177,-5.714405E-05
441.5177,-5.703481E-05
441.6177,-5.705458E-05
441.7177,-5.703857E-05
441.8177,-5.696418E-05
441.9178,-5.693781E-05
442.0178,-5.693499E-05
442.1178,-5.690014E-05
442.2178,-5.68587E-05
442.3178,-5.685117E-05
442.4178,-5.683422E-05
442.5178,-5.676548E-05
442.6178,-5.676924E-05
442.7178,-5.676359E-05
442.8178,-5.669955E-05
442.9178,-5.66713E-05
443.0178,-5.664587E-05
443.1178,-5.663928E-05
443.2178,-5.659219E-05
443.3178,-5.658749E-05
443.4178,-5.654982E-05
443.5179,-5.653192E-05
443.6179,-5.650179E-05
443.7179,-5.651309E-05
443.8179,-5.645094E-05
443.9179,-5.638784E-05
444.0179,-5.637183E-05
444.1179,-5.63756E-05
444.2179,-5.632851E-05
444.3179,-5.627766E-05
444.4179,-5.629555E-05
444.5179,-5.628519E-05
444.6179,-5.622963E-05
444.7179,-5.620703E-05
444.8179,-5.623245E-05
444.9179,-5.615241E-05
445.0179,-5.611003E-05
445.118,-5.611003E-05
445.218,-5.610155E-05
445.318,-5.604599E-05
445.418,-5.600267E-05
445.518,-5.599608E-05
445.618,-5.597442E-05
445.718,-5.593204E-05
445.818,-5.590002E-05
445.918,-5.590002E-05
446.018,-5.587459E-05
446.118,-5.584446E-05
446.218,-5.580114E-05
446.318,-5.580867E-05
446.418,-5.577571E-05
446.518,-5.573051E-05
446.618,-5.568813E-05
446.718,-5.571921E-05
446.8181,-5.570038E-05
446.9181,-5.562598E-05
447.0181,-5.564858E-05
447.1181,-5.558643E-05
447.2181,-5.553934E-05
447.3181,-5.555158E-05
447.4181,-5.552427E-05
447.5181,-5.550826E-05
447.6181,-5.549696E-05
447.7181,-5.552804E-05
447.8181,-5.548472E-05
447.9181,-5.547624E-05
448.0181,-5.551109E-05
448.1181,-5.546871E-05
448.2181,-5.541126E-05
448.3181,-5.542068E-05
448.4182,-5.53444E-05
448.5182,-5.528036E-05
448.6182,-5.52879E-05
448.7182,-5.525023E-05
448.8182,-5.520126E-05
448.9182,-5.517583E-05
449.0182,-5.520314E-05
449.1182,-5.51278E-05
449.2182,-5.51118E-05
449.3182,-5.512592E-05
449.4182,-5.510143E-05
449.5182,-5.505623E-05
449.6182,-5.503268E-05
449.7182,-5.501668E-05
449.8182,-5.496394E-05
449.9182,-5.496959E-05
450.0182,-5.4963E-05
450.1183,-5.493287E-05
450.2183,-5.500349E-05
450.3183,-5.493663E-05
450.4183,-5.487165E-05
450.5183,-5.494322E-05
450.6183,-5.486694E-05
450.7183,-5.484999E-05
450.8183,-5.483304E-05
450.9183,-5.482456E-05
451.0183,-5.476994E-05
451.1183,-5.473887E-05
451.2183,-5.475582E-05
451.3183,-5.472003E-05
451.4183,-5.468801E-05
451.5183,-5.470025E-05
451.6183,-5.468425E-05
451.7184,-5.464187E-05
451.8184,-5.469555E-05
451.9184,-5.465694E-05
452.0184,-5.460515E-05
452.1184,-5.460043E-05
452.2184,-5.457124E-05
452.3184,-5.453639E-05
452.4184,-5.450155E-05
452.5184,-5.451473E-05
452.6184,-5.449025E-05
452.7184,-5.443751E-05
452.8184,-5.446765E-05
452.9184,-5.443375E-05
453.0184,-5.43876E-05
453.1184,-5.442245E-05
453.2184,-5.438101E-05
453.3185,-5.434522E-05
453.4185,-5.43537E-05
453.5185,-5.433863E-05
453.6185,-5.429249E-05
453.7185,-5.428966E-05
453.8185,-5.427459E-05
453.9185,-5.423127E-05
454.0185,-5.423221E-05
454.1185,-5.422939E-05
454.2185,-5.418325E-05
454.3185,-5.420114E-05
454.4185,-5.420585E-05
454.5185,-5.416535E-05
454.6185,-5.412486E-05
454.7185,-5.414464E-05
454.8185,-5.412674E-05
454.9185,-5.4058E-05
455.0186,-5.405988E-05
455.1186,-5.404104E-05
455.2186,-5.401468E-05
455.3186,-5.398737E-05
455.4186,-5.399396E-05
455.5186,-5.392898E-05
455.6186,-5.392521E-05
455.7186,-5.393463E-05
455.8186,-5.389037E-05
455.9186,-5.387342E-05
456.0186,-5.386871E-05
456.1186,-5.382538E-05
456.2186,-5.381785E-05
456.3186,-5.383386E-05
456.4186,-5.378207E-05
456.5186,-5.375758E-05
456.6187,-5.37783E-05
456.7187,-5.373592E-05
456.8187,-5.37152E-05
456.9187,-5.371614E-05
457.0187,-5.370767E-05
457.1187,-5.363798E-05
457.2187,-5.367094E-05
457.3187,-5.367283E-05
457.4187,-5.361632E-05
457.5187,-5.369354E-05
457.6187,-5.365682E-05
457.7187,-5.360031E-05
457.8187,-5.366153E-05
457.9187,-5.364928E-05
458.0187,-5.359561E-05
458.1187,-5.359372E-05
458.2188,-5.353628E-05
458.3188,-5.349484E-05
458.4188,-5.34713E-05
458.5188,-5.347036E-05
458.6188,-5.343645E-05
458.7188,-5.34082E-05
458.8188,-5.346094E-05
458.9188,-5.341103E-05
459.0188,-5.337147E-05
459.1188,-5.338748E-05
459.2188,-5.338278E-05
459.3188,-5.332156E-05
459.4188,-5.332909E-05
459.5188,-5.331968E-05
459.6188,-5.331403E-05
459.7188,-5.331497E-05
459.8188,-5.330367E-05
459.9189,-5.329802E-05
460.0189,-5.324811E-05
460.1189,-5.32547E-05
460.2189,-5.323021E-05
460.3189,-5.32321E-05
460.4189,-5.325752E-05
460.5189,-5.323586E-05
460.6189,-5.321703E-05
460.7189,-5.323869E-05
460.8189,-5.32142E-05
460.9189,-5.320008E-05
461.0189,-5.317277E-05
461.1189,-5.313322E-05
461.2189,-5.310967E-05
461.3189,-5.31285E-05
461.4189,-5.31172E-05
461.519,-5.309272E-05
461.619,-5.30899E-05
461.719,-5.306729E-05
461.819,-5.305034E-05
461.919,-5.304658E-05
462.019,-5.301644E-05
462.119,-5.30268E-05
462.219,-5.300985E-05
462.319,-5.297971E-05
462.419,-5.296747E-05
462.519,-5.298254E-05
462.619,-5.297406E-05
462.719,-5.294204E-05
462.819,-5.292792E-05
462.919,-5.293357E-05
463.019,-5.29185E-05
463.119,-5.287235E-05
463.2191,-5.287613E-05
463.3191,-5.289308E-05
463.4191,-5.284787E-05
463.5191,-5.283657E-05
463.6191,-5.285729E-05
463.7191,-5.283657E-05
463.8191,-5.280644E-05
463.9191,-5.279137E-05
464.0191,-5.276123E-05
464.1191,-5.2765E-05
464.2191,-5.275746E-05
464.3191,-5.271038E-05
464.4191,-5.269908E-05
464.5191,-5.274899E-05
464.6191,-5.269342E-05
464.7191,-5.266141E-05
464.8192,-5.271603E-05
464.9192,-5.266612E-05
465.0192,-5.26454E-05
465.1192,-5.266235E-05
465.2192,-5.265388E-05
465.3192,-5.261715E-05
465.4192,-5.262562E-05
465.5192,-5.261997E-05
465.6192,-5.254463E-05
465.7192,-5.254087E-05
465.8192,-5.253427E-05
465.9192,-5.24627E-05
466.0192,-5.246365E-05
466.1192,-5.248436E-05
466.2192,-5.243162E-05
466.3192,-5.239961E-05
466.4193,-5.239019E-05
466.5193,-5.237701E-05
466.6193,-5.233934E-05
466.7193,-5.23431E-05
466.8193,-5.234875E-05
466.9193,-5.23092E-05
467.0193,-5.229413E-05
467.1193,-5.2264E-05
467.2193,-5.226023E-05
467.3193,-5.22235E-05
467.4193,-5.220655E-05
467.5193,-5.221408E-05
467.6193,-5.219902E-05
467.7193,-5.218301E-05
467.8193,-5.21783E-05
467.9193,-5.215382E-05
468.0193,-5.216888E-05
468.1194,-5.211803E-05
468.2194,-5.211049E-05
468.3194,-5.211332E-05
468.4194,-5.205117E-05
468.5194,-5.20248E-05
468.6194,-5.20248E-05
468.7194,-5.201538E-05
468.8194,-5.195699E-05
468.9194,-5.195323E-05
469.0194,-5.19843E-05
469.1194,-5.192215E-05
469.2194,-5.190237E-05
469.3194,-5.192686E-05
469.4194,-5.187506E-05
469.5194,-5.18421E-05
469.6194,-5.187129E-05
469.7195,-5.182798E-05
469.8195,-5.180066E-05
469.9195,-5.180161E-05
470.0195,-5.179878E-05
470.1195,-5.172344E-05
470.2195,-5.17564E-05
470.3195,-5.175452E-05
470.4195,-5.171309E-05
470.5195,-5.16886E-05
470.6195,-5.169048E-05
470.7195,-5.164246E-05
470.8195,-5.15803E-05
470.9195,-5.162268E-05
471.0195,-5.162079E-05
471.1195,-5.152003E-05
471.2195,-5.152662E-05
471.3195,-5.153228E-05
471.4196,-5.146917E-05
471.5196,-5.145505E-05
471.6196,-5.143245E-05
471.7196,-5.137971E-05
471.8196,-5.136935E-05
471.9196,-5.13458E-05
472.0196,-5.130626E-05
472.1196,-5.132132E-05
472.2196,-5.128931E-05
472.3196,-5.126294E-05
472.4196,-5.12554E-05
472.5196,-5.123751E-05
472.6196,-5.118571E-05
472.7196,-5.113674E-05
472.8196,-5.117724E-05
472.9196,-5.112544E-05
473.0197,-5.111414E-05
473.1197,-5.109343E-05
473.2197,-5.106235E-05
473.3197,-5.101903E-05
473.4197,-5.100866E-05
473.5197,-5.100301E-05
473.6197,-5.093993E-05
473.7197,-5.098324E-05
473.8197,-5.094087E-05
473.9197,-5.089001E-05
474.0197,-5.094652E-05
474.1197,-5.090508E-05
474.2197,-5.085799E-05
474.3197,-5.084951E-05
474.4197,-5.084481E-05
474.5197,-5.082032E-05
474.6198,-5.079867E-05
474.7198,-5.079489E-05
474.8198,-5.076664E-05
474.9198,-5.070826E-05
475.0198,-5.073557E-05
475.1198,-5.070166E-05
475.2198,-5.064045E-05
475.3198,-5.061031E-05
475.4198,-5.060843E-05
475.5198,-5.056323E-05
475.6198,-5.054817E-05
475.7198,-5.053404E-05
475.8198,-5.048978E-05
475.9198,-5.048601E-05
476.0198,-5.047188E-05
476.1198,-5.043233E-05
476.2198,-5.040785E-05
476.3199,-5.040219E-05
476.4199,-5.036076E-05
476.5199,-5.032874E-05
476.6199,-5.03278E-05
476.7199,-5.032026E-05
476.8199,-5.028071E-05
476.9199,-5.031461E-05
477.0199,-5.026188E-05
477.1199,-5.021479E-05
477.2199,-5.022515E-05
477.3199,-5.020819E-05
477.4199,-5.012815E-05
477.5199,-5.014698E-05
477.6199,-5.015169E-05
477.7199,-5.009802E-05
477.8199,-5.008012E-05
477.92,-5.008295E-05
478.02,-5.000761E-05
478.12,-5.001514E-05
478.22,-5.003304E-05
478.32,-5.000855E-05
478.42,-4.995958E-05
478.52,-4.996711E-05
478.62,-4.997182E-05
478.72,-4.990308E-05
478.82,-4.98899E-05
478.92,-4.990119E-05
479.02,-4.982021E-05
479.12,-4.984563E-05
479.22,-4.980231E-05
479.32,-4.975899E-05
479.42,-4.977123E-05
479.5201,-4.975522E-05
479.6201,-4.969025E-05
479.7201,-4.969213E-05
479.8201,-4.97072E-05
479.9201,-4.962903E-05
480.0201,-4.961397E-05
480.1201,-4.964881E-05
480.2201,-4.957535E-05
480.3201,-4.953109E-05
480.4201,-4.954522E-05
480.5201,-4.955181E-05
480.6201,-4.948683E-05
480.7201,-4.946046E-05
480.8201,-4.94793E-05
480.9201,-4.944351E-05
481.0201,-4.938795E-05
481.1201,-4.940208E-05
481.2202,-4.937382E-05
481.3202,-4.93305E-05
481.4202,-4.931732E-05
481.5202,-4.930131E-05
481.6202,-4.929566E-05
481.7202,-4.92401E-05
481.8202,-4.925046E-05
481.9202,-4.925234E-05
482.0202,-4.922408E-05
482.1202,-4.919113E-05
482.2202,-4.917041E-05
482.3202,-4.913744E-05
482.4202,-4.911673E-05
482.5202,-4.910449E-05
482.6202,-4.910731E-05
482.7202,-4.905928E-05
482.8203,-4.90574E-05
482.9203,-4.909225E-05
483.0203,-4.90753E-05
483.1203,-4.899336E-05
483.2203,-4.903386E-05
483.3203,-4.898206E-05
483.4203,-4.894063E-05
483.5203,-4.89717E-05
483.6203,-4.891991E-05
483.7203,-4.887094E-05
483.8203,-4.883798E-05
483.9203,-4.884363E-05
484.0203,-4.88182E-05
484.1203,-4.878148E-05
484.2203,-4.876923E-05
484.3203,-4.878053E-05
484.4203,-4.86986E-05
484.5204,-4.870614E-05
484.6204,-4.871367E-05
484.7204,-4.865999E-05
484.8204,-4.863739E-05
484.9204,-4.864304E-05
485.0204,-4.85969E-05
485.1204,-4.856487E-05
485.2204,-4.857524E-05
485.3204,-4.856017E-05
485.4204,-4.850931E-05
485.5204,-4.849424E-05
485.6204,-4.847729E-05
485.7204,-4.845376E-05
485.8204,-4.843398E-05
485.9204,-4.841043E-05
486.0204,-4.841138E-05
486.1205,-4.838877E-05
486.2205,-4.834545E-05
486.3205,-4.83464E-05
486.4205,-4.833792E-05
486.5205,-4.829742E-05
486.6205,-4.831155E-05
486.7205,-4.831061E-05
486.8205,-4.823527E-05
486.9205,-4.822774E-05
487.0205,-4.826352E-05
487.1205,-4.821644E-05
487.2205,-4.815993E-05
487.3205,-4.818724E-05
487.4205,-4.816841E-05
487.5205,-4.811284E-05
487.6205,-4.808271E-05
487.7206,-4.810437E-05
487.8206,-4.806576E-05
487.9206,-4.800831E-05
488.0206,-4.80215E-05
488.1206,-4.801585E-05
488.2206,-4.797252E-05
488.3206,-4.79584E-05
488.4206,-4.79584E-05
488.5206,-4.791791E-05
488.6206,-4.791414E-05
488.7206,-4.78953E-05
488.8206,-4.787082E-05
488.9206,-4.784069E-05
489.0206,-4.783221E-05
489.1206,-4.780584E-05
489.2206,-4.780207E-05
489.3206,-4.776629E-05
489.4207,-4.771732E-05
489.5207,-4.771543E-05
489.6207,-4.77079E-05
489.7207,-4.766741E-05
489.8207,-4.764857E-05
489.9207,-4.764951E-05
490.0207,-4.760807E-05
490.1207,-4.759583E-05
490.2207,-4.759207E-05
490.3207,-4.753368E-05
490.4207,-4.750919E-05
490.5207,-4.751202E-05
490.6207,-4.750166E-05
490.7207,-4.741879E-05
490.8207,-4.745928E-05
490.9207,-4.744233E-05
491.0208,-4.738771E-05
491.1208,-4.739995E-05
491.2208,-4.740937E-05
491.3208,-4.737359E-05
491.4208,-4.738112E-05
491.5208,-4.73491E-05
491.6208,-4.731049E-05
491.7208,-4.731614E-05
491.8208,-4.723986E-05
491.9208,-4.725399E-05
492.0208,-4.724174E-05
492.1208,-4.718242E-05
492.2208,-4.71843E-05
492.3208,-4.717299E-05
492.4208,-4.71438E-05
492.5208,-4.710237E-05
492.6208,-4.70873E-05
492.7209,-4.710142E-05
492.8209,-4.706564E-05
492.9209,-4.703174E-05
493.0209,-4.70355E-05
493.1209,-4.703833E-05
493.2209,-4.70016E-05
493.3209,-4.700254E-05
493.4209,-4.697711E-05
493.5209,-4.694321E-05
493.6209,-4.691967E-05
493.7209,-4.688671E-05
493.8209,-4.687541E-05
493.9209,-4.686222E-05
494.0209,-4.685281E-05
494.1209,-4.682833E-05
494.2209,-4.682267E-05
494.321,-4.680101E-05
494.421,-4.677841E-05
494.521,-4.676994E-05
494.621,-4.67511E-05
494.721,-4.672567E-05
494.821,-4.674074E-05
494.921,-4.664092E-05
495.021,-4.665787E-05
495.121,-4.66541E-05
495.221,-4.663903E-05
495.321,-4.659289E-05
495.421,-4.657311E-05
495.521,-4.65976E-05
495.621,-4.658536E-05
495.721,-4.650531E-05
495.821,-4.649966E-05
495.9211,-4.650907E-05
496.0211,-4.644881E-05
496.1211,-4.641584E-05
496.2211,-4.644127E-05
496.3211,-4.643374E-05
496.4211,-4.635463E-05
496.5211,-4.637347E-05
496.6211,-4.638948E-05
496.7211,-4.632167E-05
496.8211,-4.629342E-05
496.9211,-4.629719E-05
497.0211,-4.625952E-05
497.1211,-4.623315E-05
497.2211,-4.624633E-05
497.3211,-4.618889E-05
497.4211,-4.617194E-05
497.5211,-4.617288E-05
497.6212,-4.615311E-05
497.7212,-4.615875E-05
497.8212,-4.612014E-05
497.9212,-4.609283E-05
498.0212,-4.604763E-05
498.1212,-4.604292E-05
498.2212,-4.602785E-05
498.3212,-4.600054E-05
498.4212,-4.601467E-05
498.5212,-4.59883E-05
498.6212,-4.597418E-05
498.7212,-4.59996E-05
498.8212,-4.59365E-05
498.9212,-4.59318E-05
499.0212,-4.593085E-05
499.1212,-4.58574E-05
499.2213,-4.587435E-05
499.3213,-4.583668E-05
499.4213,-4.581031E-05
499.5213,-4.580278E-05
499.6213,-4.578771E-05
499.7213,-4.577829E-05
499.8213,-4.571991E-05
499.9213,-4.573591E-05
500.0213,-4.571896E-05
500.1213,-4.5686E-05
500.2213,-4.563139E-05
500.3213,-4.567753E-05
500.4213,-4.565022E-05
500.5213,-4.558901E-05
500.6213,-4.562103E-05
500.7213,-4.563892E-05
500.8214,-4.557394E-05
500.9214,-4.558618E-05
501.0214,-4.557582E-05
501.1214,-4.554757E-05
501.2214,-4.555792E-05
501.3214,-4.552779E-05
501.4214,-4.546941E-05
501.5214,-4.541855E-05
501.6214,-4.542797E-05
501.7214,-4.540819E-05
501.8214,-4.535263E-05
501.9214,-4.541949E-05
502.0214,-4.5379E-05
502.1214,-4.530648E-05
502.2214,-4.540066E-05
502.3214,-4.532908E-05
502.4214,-4.528577E-05
502.5215,-4.53159E-05
502.6215,-4.530083E-05
502.7215,-4.524245E-05
502.8215,-4.520196E-05
502.9215,-4.522079E-05
503.0215,-4.519159E-05
503.1215,-4.513321E-05
503.2215,-4.519725E-05
503.3215,-4.515675E-05
503.4215,-4.509271E-05
503.5215,-4.512379E-05
503.6215,-4.510872E-05
503.7215,-4.507105E-05
503.8215,-4.504751E-05
503.9215,-4.50202E-05
504.0215,-4.50089E-05
504.1216,-4.50089E-05
504.2216,-4.500136E-05
504.3216,-4.494203E-05
504.4216,-4.493733E-05
504.5216,-4.494674E-05
504.6216,-4.4894E-05
504.7216,-4.485728E-05
504.8216,-4.490719E-05
504.9216,-4.488365E-05
505.0216,-4.482055E-05
505.1216,-4.484504E-05
505.2216,-4.484127E-05
505.3216,-4.477723E-05
505.4216,-4.4781E-05
505.5216,-4.479889E-05
505.6216,-4.473297E-05
505.7216,-4.473297E-05
505.8217,-4.47245E-05
505.9217,-4.470095E-05
506.0217,-4.468118E-05
506.1217,-4.465857E-05
506.2217,-4.465293E-05
506.3217,-4.465481E-05
506.4217,-4.462185E-05
506.5217,-4.460866E-05
506.6217,-4.459642E-05
506.7217,-4.459171E-05
506.8217,-4.454651E-05
506.9217,-4.455593E-05
507.0217,-4.456063E-05
507.1217,-4.453898E-05
507.2217,-4.451166E-05
507.3217,-4.45079E-05
507.4218,-4.4474E-05
507.5218,-4.446929E-05
507.6218,-4.448906E-05
507.7218,-4.442879E-05
507.8218,-4.441278E-05
507.9218,-4.440807E-05
508.0218,-4.441843E-05
508.1218,-4.437229E-05
508.2218,-4.435911E-05
508.3218,-4.4377E-05
508.4218,-4.433179E-05
508.5218,-4.429601E-05
508.6218,-4.431955E-05
508.7218,-4.431202E-05
508.8218,-4.427152E-05
508.9218,-4.425175E-05
509.0219,-4.424421E-05
509.1219,-4.423197E-05
509.2219,-4.421502E-05
509.3219,-4.42056E-05
509.4219,-4.418112E-05
509.5219,-4.418112E-05
509.6219,-4.416793E-05
509.7219,-4.414062E-05
509.8219,-4.413309E-05
509.9219,-4.411331E-05
510.0219,-4.408883E-05
510.1219,-4.40973E-05
510.2219,-4.405775E-05
510.3219,-4.404739E-05
510.4219,-4.403892E-05
510.5219,-4.403609E-05
510.6219,-4.399936E-05
510.722,-4.398994E-05
510.822,-4.398806E-05
510.922,-4.395604E-05
511.022,-4.397111E-05
511.122,-4.396546E-05
511.222,-4.393438E-05
511.322,-4.391649E-05
511.422,-4.394474E-05
511.522,-4.386752E-05
511.622,-4.384209E-05
511.722,-4.384586E-05
511.822,-4.384963E-05
511.922,-4.379689E-05
512.022,-4.379312E-05
512.122,-4.380348E-05
512.222,-4.376016E-05
512.322,-4.373944E-05
512.4219,-4.375451E-05
512.5219,-4.373662E-05
512.6219,-4.370083E-05
512.7219,-4.370178E-05
512.8218,-4.368859E-05
512.9218,-4.36707E-05
513.0218,-4.367258E-05
513.1218,-4.365187E-05
513.2217,-4.363585E-05
513.3217,-4.365657E-05
513.4217,-4.360101E-05
513.5217,-4.357558E-05
513.6216,-4.358406E-05
513.7216,-4.357088E-05
513.8216,-4.35285E-05
513.9216,-4.351625E-05
514.0215,-4.353227E-05
514.1215,-4.350213E-05
514.2215,-4.346917E-05
514.3215,-4.348801E-05
514.4214,-4.347482E-05
514.5214,-4.34202E-05
514.6214,-4.341832E-05
514.7214,-4.342679E-05
514.8214,-4.339759E-05
514.9213,-4.338535E-05
515.0213,-4.33571E-05
515.1213,-4.337405E-05
515.2213,-4.33684E-05
515.3212,-4.333638E-05
515.4212,-4.332508E-05
515.5212,-4.332791E-05
515.6212,-4.329118E-05
515.7211,-4.324974E-05
515.8211,-4.326481E-05
515.9211,-4.325634E-05
516.0211,-4.325445E-05
516.121,-4.325257E-05
516.221,-4.328082E-05
516.321,-4.326387E-05
516.421,-4.318759E-05
516.5209,-4.321679E-05
516.6209,-4.319042E-05
516.7209,-4.31179E-05
516.8209,-4.316499E-05
516.9208,-4.311979E-05
517.0208,-4.306611E-05
517.1208,-4.307458E-05
517.2208,-4.307741E-05
517.3207,-4.305104E-05
517.4207,-4.301996E-05
517.5207,-4.301713E-05
517.6207,-4.30209E-05
517.7206,-4.300112E-05
517.8206,-4.297382E-05
517.9206,-4.297382E-05
518.0206,-4.296346E-05
518.1205,-4.294368E-05
518.2205,-4.292202E-05
518.3205,-4.28674E-05
518.4205,-4.288341E-05
518.5204,-4.287682E-05
518.6204,-4.283632E-05
518.7204,-4.284009E-05
518.8204,-4.28335E-05
518.9203,-4.280902E-05
519.0203,-4.279959E-05
519.1203,-4.276005E-05
519.2203,-4.277605E-05
519.3203,-4.275816E-05
519.4202,-4.270636E-05
519.5202,-4.272426E-05
519.6202,-4.272332E-05
519.7202,-4.267623E-05
519.8201,-4.265645E-05
519.9201,-4.266964E-05
520.0201,-4.26621E-05
520.1201,-4.261973E-05
520.22,-4.263668E-05
520.32,-4.26687E-05
520.42,-4.260466E-05
520.52,-4.255663E-05
520.6199,-4.259807E-05
520.7199,-4.257547E-05
520.8199,-4.250578E-05
520.9199,-4.24973E-05
521.0198,-4.25199E-05
521.1198,-4.246717E-05
521.2198,-4.246717E-05
521.3198,-4.24634E-05
521.4197,-4.24342E-05
521.5197,-4.242855E-05
521.6197,-4.240501E-05
521.7197,-4.239277E-05
521.8196,-4.237582E-05
521.9196,-4.24003E-05
522.0196,-4.234568E-05
522.1196,-4.23325E-05
522.2195,-4.237864E-05
522.3195,-4.230896E-05
522.4195,-4.229859E-05
522.5195,-4.231743E-05
522.6194,-4.230801E-05
522.7194,-4.227976E-05
522.8194,-4.224774E-05
522.9194,-4.225245E-05
523.0193,-4.223644E-05
523.1193,-4.221196E-05
523.2193,-4.221478E-05
523.3193,-4.222231E-05
523.4193,-4.218276E-05
523.5192,-4.218088E-05
523.6192,-4.217052E-05
523.7192,-4.212438E-05
523.8192,-4.212532E-05
523.9191,-4.211213E-05
524.0191,-4.207258E-05
524.1191,-4.208859E-05
524.2191,-4.208953E-05
524.319,-4.204527E-05
524.419,-4.206505E-05
524.519,-4.205187E-05
524.619,-4.201513E-05
524.7189,-4.199253E-05
524.8189,-4.20189E-05
524.9189,-4.195863E-05
525.0189,-4.197087E-05
525.1188,-4.198594E-05
525.2188,-4.194356E-05
525.3188,-4.194262E-05
525.4188,-4.193414E-05
525.5187,-4.192943E-05
525.6187,-4.188894E-05
525.7187,-4.188706E-05
525.8187,-4.190872E-05
525.9186,-4.187294E-05
526.0186,-4.191908E-05
526.1186,-4.187387E-05
526.2186,-4.185316E-05
526.3185,-4.192567E-05
526.4185,-4.1888E-05
526.5185,-4.183244E-05
526.6185,-4.182585E-05
526.7184,-4.183432E-05
526.8184,-4.178064E-05
526.9184,-4.176087E-05
527.0184,-4.178347E-05
527.1183,-4.17684E-05
527.2183,-4.171943E-05
527.3183,-4.175616E-05
527.4183,-4.171189E-05
527.5182,-4.16667E-05
527.6182,-4.169401E-05
527.7182,-4.168082E-05
527.8182,-4.165068E-05
527.9182,-4.16262E-05
528.0181,-4.16422E-05
528.1181,-4.159794E-05
528.2181,-4.156028E-05
528.3181,-4.155463E-05
528.418,-4.157629E-05
528.518,-4.152732E-05
528.618,-4.153297E-05
528.718,-4.154238E-05
528.8179,-4.14953E-05
528.9179,-4.147552E-05
529.0179,-4.147647E-05
529.1179,-4.146234E-05
529.2178,-4.144539E-05
529.3178,-4.141996E-05
529.4178,-4.139736E-05
529.5178,-4.140113E-05
529.6177,-4.139548E-05
529.7177,-4.137193E-05
529.8177,-4.13644E-05
529.9177,-4.134179E-05
530.0176,-4.133897E-05
530.1176,-4.132767E-05
530.2176,-4.132579E-05
530.3176,-4.128623E-05
530.4175,-4.128059E-05
530.5175,-4.127305E-05
530.6175,-4.124668E-05
530.7175,-4.12269E-05
530.8174,-4.121372E-05
530.9174,-4.123538E-05
531.0174,-4.120054E-05
531.1174,-4.121278E-05
531.2173,-4.119959E-05
531.3173,-4.118641E-05
531.4173,-4.119206E-05
531.5173,-4.115345E-05
531.6172,-4.113085E-05
531.7172,-4.112802E-05
531.8172,-4.113273E-05
531.9172,-4.111013E-05
532.0172,-4.108753E-05
532.1171,-4.109129E-05
532.2171,-4.111107E-05
532.3171,-4.10847E-05
532.4171,-4.112332E-05
532.517,-4.11186E-05
532.617,-4.111767E-05
532.717,-4.111578E-05
532.817,-4.109318E-05
532.9169,-4.109035E-05
533.0169,-4.104421E-05
533.1169,-4.098865E-05
533.2169,-4.099806E-05
533.3168,-4.098017E-05
533.4168,-4.095474E-05
533.5168,-4.09425E-05
533.6168,-4.092555E-05
533.7167,-4.092461E-05
533.8167,-4.09086E-05
533.9167,-4.087941E-05
534.0167,-4.088411E-05
534.1166,-4.089824E-05
534.2166,-4.083609E-05
534.3166,-4.084645E-05
534.4166,-4.087658E-05
534.5165,-4.077676E-05
534.6165,-4.078429E-05
534.7165,-4.084174E-05
534.8165,-4.078052E-05
534.9164,-4.073438E-05
535.0164,-4.078052E-05
535.1164,-4.075039E-05
535.2164,-4.071648E-05
535.3163,-4.073909E-05
535.4163,-4.073156E-05
535.5163,-4.069859E-05
535.6163,-4.069859E-05
535.7162,-4.068541E-05
535.8162,-4.067599E-05
535.9162,-4.068635E-05
536.0162,-4.067694E-05
536.1161,-4.063079E-05
536.2161,-4.066281E-05
536.3161,-4.065527E-05
536.4161,-4.060065E-05
536.5161,-4.068541E-05
536.616,-4.06016E-05
536.716,-4.05903E-05
536.816,-4.062043E-05
536.916,-4.059595E-05
537.0159,-4.054415E-05
537.1159,-4.054697E-05
537.2159,-4.055169E-05
537.3159,-4.053097E-05
537.4158,-4.047823E-05
537.5158,-4.051966E-05
537.6158,-4.051684E-05
537.7158,-4.045563E-05
537.8157,-4.049706E-05
537.9157,-4.049141E-05
538.0157,-4.040666E-05
538.1157,-4.04368E-05
538.2156,-4.046693E-05
538.3156,-4.041042E-05
538.4156,-4.040383E-05
538.5156,-4.04189E-05
538.6155,-4.040571E-05
538.7155,-4.036617E-05
538.8155,-4.035392E-05
538.9155,-4.037276E-05
539.0154,-4.035863E-05
539.1154,-4.034921E-05
539.2154,-4.036428E-05
539.3154,-4.036993E-05
539.4153,-4.037087E-05
539.5153,-4.03398E-05
539.6153,-4.030401E-05
539.7153,-4.035392E-05
539.8152,-4.029553E-05
539.9152,-4.025692E-05
540.0152,-4.027952E-05
540.1152,-4.026917E-05
540.2151,-4.024279E-05
540.3151,-4.020418E-05
540.4151,-4.024279E-05
540.5151,-4.024939E-05
540.6151,-4.016934E-05
540.715,-4.021172E-05
540.815,-4.024279E-05
540.915,-4.014109E-05
541.015,-4.018064E-05
541.1149,-4.018723E-05
541.2149,-4.014486E-05
541.3149,-4.014674E-05
541.4149,-4.014109E-05
541.5148,-4.012885E-05
541.6148,-4.012131E-05
541.7148,-4.008458E-05
541.8148,-4.011378E-05
541.9147,-4.007423E-05
542.0147,-4.006293E-05
542.1147,-4.004503E-05
542.2147,-4.006575E-05
542.3146,-4.005728E-05
542.4146,-4.003561E-05
542.5146,-4.001584E-05
542.6146,-4.005163E-05
542.7145,-4.005728E-05
542.8145,-4.001772E-05
542.9145,-4.004598E-05
543.0145,-4.001867E-05
543.1144,-4.000454E-05
543.2144,-4.003844E-05
543.3144,-4.001019E-05
543.4144,-4.000265E-05
543.5143,-4.00149E-05
543.6143,-4.004409E-05
543.7143,-4.00262E-05
543.8143,-4.000265E-05
543.9142,-4.002055E-05
544.0142,-4.00149E-05
544.1142,-3.99518E-05
544.2142,-3.998194E-05
544.3141,-3.994709E-05
544.4141,-3.991037E-05
544.5141,-3.994332E-05
544.6141,-3.992355E-05
544.7141,-3.990377E-05
544.814,-3.990189E-05
544.914,-3.989247E-05
545.014,-3.986799E-05
545.114,-3.984444E-05
545.2139,-3.983785E-05
545.3139,-3.985009E-05
545.4139,-3.981713E-05
545.5139,-3.986799E-05
545.6138,-3.983126E-05
545.7138,-3.981148E-05
545.8138,-3.98774E-05
545.9138,-3.983974E-05
546.0137,-3.981336E-05
546.1137,-3.983126E-05
546.2137,-3.981996E-05
546.3137,-3.980018E-05
546.4136,-3.978135E-05
546.5136,-3.978323E-05
546.6136,-3.977947E-05
546.7136,-3.9787E-05
546.8135,-3.977852E-05
546.9135,-3.982184E-05
547.0135,-3.975686E-05
547.1135,-3.982843E-05
547.2134,-3.977381E-05
547.3134,-3.975875E-05
547.4134,-3.981242E-05
547.5134,-3.976817E-05
547.6133,-3.975122E-05
547.7133,-3.974368E-05
547.8133,-3.975875E-05
547.9133,-3.972296E-05
548.0132,-3.971448E-05
548.1132,-3.975122E-05
548.2132,-3.974179E-05
548.3132,-3.968153E-05
548.4131,-3.975592E-05
548.5131,-3.974462E-05
548.6131,-3.969094E-05
548.7131,-3.972014E-05
548.813,-3.973709E-05
548.913,-3.967116E-05
549.013,-3.967305E-05
549.113,-3.968812E-05
549.213,-3.967022E-05
549.3129,-3.967681E-05
549.4129,-3.969941E-05
549.5129,-3.964668E-05
549.6129,-3.966269E-05
549.7128,-3.966552E-05
549.8128,-3.966363E-05
549.9128,-3.961937E-05
550.0128,-3.970413E-05
550.1127,-3.968812E-05
550.2127,-3.96109E-05
550.3127,-3.968435E-05
550.4127,-3.966457E-05
550.5126,-3.960336E-05
550.6126,-3.961466E-05
550.7126,-3.962408E-05
550.8126,-3.960336E-05
550.9125,-3.960336E-05
551.0125,-3.960807E-05
551.1125,-3.959959E-05
551.2125,-3.95817E-05
551.3124,-3.9593E-05
551.4124,-3.957605E-05
551.5124,-3.959395E-05
551.6124,-3.960618E-05
551.7123,-3.95591E-05
551.8123,-3.956286E-05
551.9123,-3.959583E-05
552.0123,-3.958735E-05
552.1122,-3.952143E-05
552.2122,-3.959395E-05
552.3122,-3.956004E-05
552.4122,-3.952237E-05
552.5121,-3.956381E-05
552.6121,-3.955345E-05
552.7121,-3.953461E-05
552.8121,-3.951955E-05
552.912,-3.952708E-05
553.012,-3.952708E-05
553.112,-3.951484E-05
553.212,-3.950448E-05
553.312,-3.952614E-05
553.4119,-3.948753E-05
553.5119,-3.949035E-05
553.6119,-3.951013E-05
553.7119,-3.948941E-05
553.8118,-3.948188E-05
553.9118,-3.946398E-05
554.0118,-3.946964E-05
554.1118,-3.947152E-05
554.2117,-3.945928E-05
554.3117,-3.945457E-05
554.4117,-3.948188E-05
554.5117,-3.942443E-05
554.6116,-3.94282E-05
554.7116,-3.942255E-05
554.8116,-3.94103E-05
554.9116,-3.940748E-05
555.0115,-3.936981E-05
555.1115,-3.940277E-05
555.2115,-3.94056E-05
555.3115,-3.935003E-05
555.4114,-3.938488E-05
555.5114,-3.938959E-05
555.6114,-3.933214E-05
555.7114,-3.935475E-05
555.8113,-3.935475E-05
555.9113,-3.936322E-05
556.0113,-3.934721E-05
556.1113,-3.931802E-05
556.2112,-3.932178E-05
556.3112,-3.935757E-05
556.4112,-3.935286E-05
556.5112,-3.929636E-05
556.6111,-3.935475E-05
556.7111,-3.930483E-05
556.8111,-3.929447E-05
556.9111,-3.929259E-05
557.011,-3.934345E-05
557.111,-3.926716E-05
557.211,-3.926245E-05
557.311,-3.929824E-05
557.4109,-3.927376E-05
557.5109,-3.921725E-05
557.6109,-3.927564E-05
557.7109,-3.923138E-05
557.8109,-3.919276E-05
557.9108,-3.921913E-05
558.0108,-3.920784E-05
558.1108,-3.918618E-05
558.2108,-3.917958E-05
558.3107,-3.917864E-05
558.4107,-3.91485E-05
558.5107,-3.915981E-05
558.6107,-3.91711E-05
558.7106,-3.913815E-05
558.8106,-3.91146E-05
558.9106,-3.913061E-05
559.0106,-3.913344E-05
559.1105,-3.909577E-05
559.2105,-3.912119E-05
559.3105,-3.912402E-05
559.4105,-3.907034E-05
559.5104,-3.910048E-05
559.6104,-3.908635E-05
559.7104,-3.905339E-05
559.8104,-3.906469E-05
559.9103,-3.905151E-05
560.0103,-3.901383E-05
560.1103,-3.901289E-05
560.2103,-3.901949E-05
560.3102,-3.900442E-05
560.4102,-3.898088E-05
560.5102,-3.898935E-05
560.6102,-3.898464E-05
560.7101,-3.895262E-05
560.8101,-3.895168E-05
560.9101,-3.896769E-05
561.0101,-3.895545E-05
561.11,-3.892625E-05
561.21,-3.894886E-05
561.31,-3.892437E-05
561.41,-3.890554E-05
561.5099,-3.890648E-05
561.6099,-3.89159E-05
561.7099,-3.88933E-05
561.8099,-3.886975E-05
561.9099,-3.888011E-05
562.0098,-3.889894E-05
562.1098,-3.88415E-05
562.2098,-3.885563E-05
562.3098,-3.882172E-05
562.4097,-3.878876E-05
562.5097,-3.880195E-05
562.6097,-3.881137E-05
562.7097,-3.876993E-05
562.8096,-3.876333E-05
562.9096,-3.877935E-05
563.0096,-3.874827E-05
563.1096,-3.872567E-05
563.2095,-3.873697E-05
563.3095,-3.871531E-05
563.4095,-3.870872E-05
563.5095,-3.868706E-05
563.6094,-3.873885E-05
563.7094,-3.868894E-05
563.8094,-3.865975E-05
563.9094,-3.869176E-05
564.0093,-3.868423E-05
564.1093,-3.865033E-05
564.2093,-3.864938E-05
564.3093,-3.865315E-05
564.4092,-3.864279E-05
564.5092,-3.859476E-05
564.6092,-3.861737E-05
564.7092,-3.864279E-05
564.8091,-3.856745E-05
564.9091,-3.856652E-05
565.0091,-3.860701E-05
565.1091,-3.854297E-05
565.209,-3.854392E-05
565.309,-3.85505E-05
565.409,-3.851566E-05
565.509,-3.850624E-05
565.6089,-3.853167E-05
565.7089,-3.850718E-05
565.8089,-3.8494E-05
565.9089,-3.849776E-05
566.0089,-3.846763E-05
566.1088,-3.845822E-05
566.2088,-3.845162E-05
566.3088,-3.844409E-05
566.4088,-3.840548E-05
566.5087,-3.843844E-05
566.6087,-3.845539E-05
566.7087,-3.842713E-05
566.8087,-3.845916E-05
566.9086,-3.840265E-05
567.0086,-3.837629E-05
567.1086,-3.841301E-05
567.2086,-3.836122E-05
567.3085,-3.834144E-05
567.4085,-3.835745E-05
567.5085,-3.83744E-05
567.6085,-3.832072E-05
567.7084,-3.831978E-05
567.8084,-3.833014E-05
567.9084,-3.829718E-05
568.0084,-3.830471E-05
568.1083,-3.826422E-05
568.2083,-3.82548E-05
568.3083,-3.823032E-05
568.4083,-3.823032E-05
568.5082,-3.822749E-05
568.6082,-3.821242E-05
568.7082,-3.825574E-05
568.8082,-3.825104E-05
568.9081,-3.817475E-05
569.0081,-3.825009E-05
569.1081,-3.823597E-05
569.2081,-3.820395E-05
569.308,-3.8203E-05
569.408,-3.8203E-05
569.508,-3.818041E-05
569.608,-3.815592E-05
569.7079,-3.810601E-05
569.8079,-3.815592E-05
569.9079,-3.812672E-05
570.0079,-3.810884E-05
570.1078,-3.808999E-05
570.2078,-3.811542E-05
570.3078,-3.81013E-05
570.4078,-3.805986E-05
570.5078,-3.805986E-05
570.6077,-3.806363E-05
570.7077,-3.801372E-05
570.8077,-3.798829E-05
570.9077,-3.80448E-05
571.0076,-3.800148E-05
571.1076,-3.795721E-05
571.2076,-3.801842E-05
571.3076,-3.801372E-05
571.4075,-3.79252E-05
571.5075,-3.793838E-05
571.6075,-3.798641E-05
571.7075,-3.79186E-05
571.8074,-3.791672E-05
571.9074,-3.794685E-05
572.0074,-3.792048E-05
572.1074,-3.788282E-05
572.2073,-3.796286E-05
572.3073,-3.78781E-05
572.4073,-3.787057E-05
572.5073,-3.790165E-05
572.6072,-3.7896E-05
572.7072,-3.783573E-05
572.8072,-3.782066E-05
572.9072,-3.783291E-05
573.0071,-3.781219E-05
573.1071,-3.779523E-05
573.2071,-3.779994E-05
573.3071,-3.780748E-05
573.407,-3.774721E-05
573.507,-3.775192E-05
573.607,-3.777264E-05
573.707,-3.773591E-05
573.8069,-3.774721E-05
573.9069,-3.771425E-05
574.0069,-3.770012E-05
574.1069,-3.772649E-05
574.2068,-3.771707E-05
574.3068,-3.766999E-05
574.4068,-3.768034E-05
574.5068,-3.768976E-05
574.6068,-3.766245E-05
574.7067,-3.761254E-05
574.8067,-3.765491E-05
574.9067,-3.765209E-05
575.0067,-3.760877E-05
575.1066,-3.760407E-05
575.2066,-3.759841E-05
575.3066,-3.761065E-05
575.4066,-3.76003E-05
575.5065,-3.756734E-05
575.6065,-3.752308E-05
575.7065,-3.756546E-05
575.8065,-3.756357E-05
575.9064,-3.751837E-05
576.0064,-3.754568E-05
576.1064,-3.753061E-05
576.2064,-3.751271E-05
576.3063,-3.752873E-05
576.4063,-3.749671E-05
576.5063,-3.748823E-05
576.6063,-3.743549E-05
576.7062,-3.745527E-05
576.8062,-3.74581E-05
576.9062,-3.738746E-05
577.0062,-3.745433E-05
577.1061,-3.743173E-05
577.2061,-3.737051E-05
577.3061,-3.743926E-05
577.4061,-3.738558E-05
577.506,-3.733756E-05
577.606,-3.736769E-05
577.706,-3.737616E-05
577.806,-3.731684E-05
577.9059,-3.730177E-05
578.0059,-3.734226E-05
578.1059,-3.731024E-05
578.2059,-3.726881E-05
578.3058,-3.728576E-05
578.4058,-3.727069E-05
578.5058,-3.725562E-05
578.6058,-3.723867E-05
578.7057,-3.725562E-05
578.8057,-3.722361E-05
578.9057,-3.722361E-05
579.0057,-3.721607E-05
579.1057,-3.717369E-05
579.2056,-3.719912E-05
579.3056,-3.717087E-05
579.4056,-3.713885E-05
579.5056,-3.714826E-05
579.6055,-3.714921E-05
579.7055,-3.711248E-05
579.8055,-3.710683E-05
579.9055,-3.710212E-05
580.0054,-3.710212E-05
580.1054,-3.705974E-05
580.2054,-3.705221E-05
580.3054,-3.706916E-05
580.4053,-3.705221E-05
580.5053,-3.705315E-05
580.6053,-3.708894E-05
580.7053,-3.705598E-05
580.8052,-3.704374E-05
580.9052,-3.704468E-05
581.0052,-3.701077E-05
581.1052,-3.697687E-05
581.2051,-3.69797E-05
581.3051,-3.697687E-05
581.4051,-3.69458E-05
581.5051,-3.691754E-05
581.605,-3.69458E-05
581.705,-3.690436E-05
581.805,-3.688458E-05
581.905,-3.690624E-05
582.0049,-3.687328E-05
582.1049,-3.685633E-05
582.2049,-3.68601E-05
582.3049,-3.685633E-05
582.4048,-3.684691E-05
582.5048,-3.68309E-05
582.6048,-3.681207E-05
582.7048,-3.681113E-05
582.8047,-3.683561E-05
582.9047,-3.678758E-05
583.0047,-3.677534E-05
583.1047,-3.677816E-05
583.2047,-3.676498E-05
583.3046,-3.673202E-05
583.4046,-3.672731E-05
583.5046,-3.673673E-05
583.6046,-3.673579E-05
583.7045,-3.66953E-05
583.8045,-3.672825E-05
583.9045,-3.670095E-05
584.0045,-3.668305E-05
584.1044,-3.666327E-05
584.2044,-3.66435E-05
584.3044,-3.667175E-05
584.4044,-3.66435E-05
584.5043,-3.661996E-05
584.6043,-3.662654E-05
584.7043,-3.661901E-05
584.8043,-3.660301E-05
584.9042,-3.660018E-05
585.0042,-3.656251E-05
585.1042,-3.655121E-05
585.2042,-3.655874E-05
585.3041,-3.654368E-05
585.4041,-3.651354E-05
585.5041,-3.651165E-05
585.6041,-3.652861E-05
585.704,-3.648058E-05
585.804,-3.648434E-05
585.904,-3.648529E-05
586.004,-3.64608E-05
586.1039,-3.644668E-05
586.2039,-3.644008E-05
586.3039,-3.644479E-05
586.4039,-3.642973E-05
586.5038,-3.641842E-05
586.6038,-3.643349E-05
586.7038,-3.642973E-05
586.8038,-3.645515E-05
586.9037,-3.642878E-05
587.0037,-3.642784E-05
587.1037,-3.644196E-05
587.2037,-3.63638E-05
587.3036,-3.634873E-05
587.4036,-3.636945E-05
587.5036,-3.634026E-05
587.6036,-3.63412E-05
587.7036,-3.633178E-05
587.8035,-3.631484E-05
587.9035,-3.63073E-05
588.0035,-3.631295E-05
588.1035,-3.633932E-05
588.2034,-3.635627E-05
588.3034,-3.632331E-05
588.4034,-3.632614E-05
588.5034,-3.632425E-05
588.6033,-3.628941E-05
588.7033,-3.629882E-05
588.8033,-3.629506E-05
588.9033,-3.62781E-05
589.0032,-3.62508E-05
589.1032,-3.622443E-05
589.2032,-3.620465E-05
589.3032,-3.621407E-05
589.4031,-3.619618E-05
589.5031,-3.620183E-05
589.6031,-3.616887E-05
589.7031,-3.617358E-05
589.803,-3.615003E-05
589.903,-3.614909E-05
590.003,-3.616133E-05
590.103,-3.610765E-05
590.2029,-3.608128E-05
590.3029,-3.612366E-05
590.4029,-3.61312E-05
590.5029,-3.607187E-05
590.6028,-3.611801E-05
590.7028,-3.608128E-05
590.8028,-3.60681E-05
590.9028,-3.606151E-05
591.0027,-3.606999E-05
591.1027,-3.604644E-05
591.2027,-3.602196E-05
591.3027,-3.600406E-05
591.4026,-3.602384E-05
591.5026,-3.599935E-05
591.6026,-3.598052E-05
591.7026,-3.598617E-05
591.8026,-3.596262E-05
591.9025,-3.598052E-05
592.0025,-3.597016E-05
592.1025,-3.596262E-05
592.2025,-3.598994E-05
592.3024,-3.596545E-05
592.4024,-3.59259E-05
592.5024,-3.592684E-05
592.6024,-3.592778E-05
592.7023,-3.58854E-05
592.8023,-3.588258E-05
592.9023,-3.588352E-05
593.0023,-3.589011E-05
593.1022,-3.586563E-05
593.2022,-3.584774E-05
593.3022,-3.584868E-05
593.4022,-3.584585E-05
593.5021,-3.584397E-05
593.6021,-3.580442E-05
593.7021,-3.581007E-05
593.8021,-3.583079E-05
593.902,-3.583079E-05
594.002,-3.579688E-05
594.102,-3.583644E-05
594.202,-3.579876E-05
594.3019,-3.579217E-05
594.4019,-3.578935E-05
594.5019,-3.578746E-05
594.6019,-3.576204E-05
594.7018,-3.574603E-05
594.8018,-3.575168E-05
594.9018,-3.572437E-05
595.0018,-3.573943E-05
595.1017,-3.57432E-05
595.2017,-3.571589E-05
595.3017,-3.573285E-05
595.4017,-3.568293E-05
595.5016,-3.571872E-05
595.6016,-3.57206E-05
595.7016,-3.570082E-05
595.8016,-3.568199E-05
595.9016,-3.565845E-05
596.0015,-3.568199E-05
596.1015,-3.566127E-05
596.2015,-3.562172E-05
596.3015,-3.564244E-05
596.4014,-3.565656E-05
596.5014,-3.562455E-05
596.6014,-3.560854E-05
596.7014,-3.562925E-05
596.8013,-3.560948E-05
596.9013,-3.558593E-05
597.0013,-3.557181E-05
597.1013,-3.559441E-05
597.2012,-3.559347E-05
597.3012,-3.556522E-05
597.4012,-3.555862E-05
597.5012,-3.554073E-05
597.6011,-3.557463E-05
597.7011,-3.554167E-05
597.8011,-3.550871E-05
597.9011,-3.553131E-05
598.001,-3.553791E-05
598.101,-3.551531E-05
598.201,-3.552378E-05
598.301,-3.550588E-05
598.4009,-3.550024E-05
598.5009,-3.551531E-05
598.6009,-3.548423E-05
598.7009,-3.545597E-05
598.8008,-3.547669E-05
598.9008,-3.546728E-05
599.0008,-3.54362E-05
599.1008,-3.545597E-05
599.2007,-3.544185E-05
599.3007,-3.542678E-05
599.4007,-3.541548E-05
599.5007,-3.542301E-05
599.6006,-3.540136E-05
599.7006,-3.541171E-05
599.8006,-3.540983E-05
599.9006,-3.537781E-05
600.0005,-3.537687E-05
