EXPID. 0743
[电化学]: i-t : @ 0(V) X 600(sec)
起始电位 (V),0
静置时间 (秒),0
运行时间 (秒),600
记录间隔,0.1
电解液 信息:
HNO3,0.4
0.1,-0.01005814
0.2,-0.01005814
0.3,-0.01005814
0.4,-0.01005814
0.5,-0.01005814
0.6,-0.01005814
0.7,-0.01005814
0.8000001,-0.01005814
0.9000001,-0.01005814
1,-0.01005814
1.1,-0.01005814
1.2,-0.01005814
1.3,-0.01005814
1.4,-0.01005814
1.5,-0.01005814
1.6,-0.01005814
1.7,-0.01005814
1.8,-0.01005814
1.9,-0.01005814
2,-0.01005814
2.1,-0.01005814
2.2,-0.01005814
2.3,-0.01005814
2.4,-0.01005814
2.5,-0.01005814
2.6,-0.01005814
2.7,-0.01005814
2.799999,-0.01005814
2.899999,-0.01005814
2.999999,-0.01005814
3.099999,-0.01005814
3.199999,-0.009375855
3.299999,-0.0004313806
3.399999,-0.002890599
3.499999,-0.006701525
3.599999,-0.008164967
3.699999,-0.008474344
3.799999,-0.008477141
3.899998,-0.008373279
3.999998,-0.008205503
4.099998,-0.007985492
4.199998,-0.007758197
4.299998,-0.007534661
4.399998,-0.007326741
4.499998,-0.007124179
4.599998,-0.006950344
4.699998,-0.006784638
4.799998,-0.006628091
4.899998,-0.006494179
4.999998,-0.006358918
5.099998,-0.00623804
5.199997,-0.006126094
5.299997,-0.006021548
5.399997,-0.005917553
5.499997,-0.005827062
5.599997,-0.005735739
5.699997,-0.005647106
5.799997,-0.005566987
5.899997,-0.005482011
5.999997,-0.005401303
6.099997,-0.005328632
6.199996,-0.005252187
6.299996,-0.005176781
6.399996,-0.005107328
6.499996,-0.005037899
6.599996,-0.004972148
6.699996,-0.004911418
6.799996,-0.004842791
6.899996,-0.004778042
6.999996,-0.004713206
7.099996,-0.00464955
7.199996,-0.004589425
7.299995,-0.004525405
7.399995,-0.004464224
7.499995,-0.004406305
7.599995,-0.00434704
7.699995,-0.004292056
7.799995,-0.004240173
7.899995,-0.004187178
7.999995,-0.004139349
8.099995,-0.00409251
8.199995,-0.004046344
8.299995,-0.004003479
8.399996,-0.003958435
8.499996,-0.00391589
8.599997,-0.003876701
8.699997,-0.00383707
8.799997,-0.003799291
8.899998,-0.003760954
8.999998,-0.003723986
9.099998,-0.003690474
9.199999,-0.00365738
9.299999,-0.003623647
9.4,-0.0035931
9.5,-0.003563982
9.6,-0.003533963
9.700001,-0.003507094
9.800001,-0.003480785
9.900002,-0.003454815
10,-0.003431785
10.1,-0.003408178
10.2,-0.003382772
10.3,-0.003360269
10.4,-0.003338439
10.5,-0.003316273
10.6,-0.003295758
10.7,-0.003275379
10.8,-0.003254833
10.90001,-0.003236305
11.00001,-0.003217686
11.10001,-0.003198704
11.20001,-0.003181052
11.30001,-0.0031638
11.40001,-0.003146409
11.50001,-0.003130021
11.60001,-0.003113496
11.70001,-0.003097803
11.80001,-0.003081834
11.90001,-0.003066647
12.00001,-0.003051812
12.10001,-0.003036899
12.20001,-0.003022008
12.30001,-0.003008572
12.40001,-0.002994035
12.50001,-0.002980548
12.60001,-0.002967849
12.70001,-0.002954473
12.80001,-0.002941792
12.90001,-0.002929163
13.00001,-0.002916347
13.10001,-0.002904176
13.20001,-0.002892129
13.30001,-0.002880214
13.40001,-0.002868293
13.50002,-0.002857075
13.60002,-0.002845429
13.70002,-0.002834051
13.80002,-0.002822821
13.90002,-0.002811889
14.00002,-0.002801293
14.10002,-0.002791567
14.20002,-0.002780288
14.30002,-0.002769943
14.40002,-0.002760157
14.50002,-0.002749562
14.60002,-0.00273957
14.70002,-0.002729967
14.80002,-0.002719783
14.90002,-0.002710131
15.00002,-0.002700853
15.10002,-0.002691291
15.20002,-0.002681899
15.30002,-0.002672903
15.40002,-0.002663608
15.50002,-0.002654895
15.60002,-0.002646279
15.70002,-0.002636958
15.80002,-0.002628687
15.90002,-0.002620097
16.00002,-0.002611475
16.10003,-0.002603408
16.20003,-0.002594943
16.30003,-0.00258632
16.40003,-0.002578642
16.50003,-0.002570486
16.60003,-0.002562234
16.70003,-0.002554606
16.80003,-0.002546672
16.90003,-0.002538992
17.00003,-0.002531255
17.10003,-0.002523727
17.20003,-0.002516056
17.30003,-0.002508653
17.40003,-0.002500925
17.50003,-0.002493942
17.60003,-0.002486733
17.70003,-0.002479357
17.80003,-0.002472383
17.90003,-0.002465373
18.00003,-0.002457664
18.10003,-0.002450969
18.20003,-0.002444118
18.30003,-0.00243711
18.40003,-0.002430206
18.50003,-0.002423672
18.60003,-0.002416816
18.70004,-0.002410138
18.80004,-0.002403705
18.90004,-0.002396965
19.00004,-0.002390592
19.10004,-0.002384016
19.20004,-0.002377653
19.30004,-0.002371382
19.40004,-0.002364885
19.50004,-0.00235853
19.60004,-0.002352396
19.70004,-0.002346031
19.80004,-0.002339859
19.90004,-0.002333925
20.00004,-0.002327695
20.10004,-0.002321651
20.20004,-0.002315932
20.30004,-0.002309728
20.40004,-0.002304044
20.50004,-0.002298184
20.60004,-0.002292132
20.70004,-0.002286322
20.80004,-0.002280631
20.90004,-0.002274804
21.00004,-0.002269183
21.10004,-0.002263721
21.20004,-0.002257701
21.30005,-0.002252344
21.40005,-0.002246869
21.50005,-0.002241113
21.60005,-0.00223578
21.70005,-0.002230251
21.80005,-0.00222475
21.90005,-0.002219504
22.00005,-0.002214103
22.10005,-0.002208545
22.20005,-0.002203666
22.30005,-0.002198273
22.40005,-0.002192736
22.50005,-0.002188081
22.60005,-0.002182673
22.70005,-0.002177149
22.80005,-0.002172417
22.90005,-0.002167412
23.00005,-0.002162045
23.10005,-0.002157261
23.20005,-0.002152154
23.30005,-0.002146894
23.40005,-0.002142122
23.50005,-0.002137197
23.60005,-0.002132039
23.70005,-0.002127142
23.80005,-0.002122269
23.90005,-0.002117279
24.00006,-0.002112595
24.10006,-0.002107724
24.20006,-0.002102898
24.30006,-0.00209812
24.40006,-0.002093312
24.50006,-0.002088717
24.60006,-0.002083952
24.70006,-0.002079238
24.80006,-0.002074542
24.90006,-0.002069906
25.00006,-0.00206528
25.10006,-0.002060804
25.20006,-0.002055957
25.30006,-0.002051684
25.40006,-0.002047364
25.50006,-0.002042506
25.60006,-0.00203826
25.70006,-0.00203393
25.80006,-0.002029182
25.90006,-0.002024723
26.00006,-0.002020514
26.10006,-0.002015979
26.20006,-0.002011434
26.30006,-0.002007418
26.40006,-0.002002766
26.50006,-0.001998432
26.60007,-0.001994262
26.70007,-0.001989793
26.80007,-0.001985582
26.90007,-0.00198141
27.00007,-0.001977127
27.10007,-0.001972765
27.20007,-0.001968809
27.30007,-0.001964325
27.40007,-0.001960098
27.50007,-0.001955899
27.60007,-0.001951924
27.70007,-0.001947786
27.80007,-0.001943522
27.90007,-0.001939518
28.00007,-0.001935424
28.10007,-0.001931365
28.20007,-0.001927077
28.30007,-0.001923196
28.40007,-0.001919118
28.50007,-0.001914988
28.60007,-0.001911183
28.70007,-0.001907006
28.80007,-0.001903067
28.90007,-0.001899224
29.00007,-0.001894988
29.10007,-0.001891093
29.20008,-0.001887364
29.30008,-0.001883149
29.40008,-0.001879373
29.50008,-0.001875829
29.60008,-0.001871644
29.70008,-0.001867681
29.80008,-0.001864064
29.90008,-0.001859921
30.00008,-0.001856077
30.10008,-0.001852568
30.20008,-0.001848587
30.30008,-0.001844637
30.40008,-0.001841109
30.50008,-0.001837122
30.60008,-0.001833375
30.70008,-0.001829788
30.80008,-0.001825922
30.90008,-0.00182212
31.00008,-0.001818447
31.10008,-0.001814685
31.20008,-0.001811075
31.30008,-0.001807341
31.40008,-0.00180385
31.50008,-0.001800293
31.60008,-0.001796567
31.70008,-0.001792793
31.80009,-0.001789286
31.90009,-0.001785486
32.00008,-0.001782085
32.10008,-0.001778719
32.20008,-0.001775036
32.30008,-0.001771422
32.40008,-0.001768
32.50008,-0.001764467
32.60007,-0.001760743
32.70007,-0.001757428
32.80007,-0.001753747
32.90007,-0.001750192
33.00007,-0.001746782
33.10007,-0.001743204
33.20007,-0.001739642
33.30006,-0.001736207
33.40006,-0.001732547
33.50006,-0.001729108
33.60006,-0.001725773
33.70006,-0.001722208
33.80006,-0.00171894
33.90005,-0.001715558
34.00005,-0.001712056
34.10005,-0.001708616
34.20005,-0.001705353
34.30005,-0.001701843
34.40005,-0.001698462
34.50005,-0.001695351
34.60004,-0.001691826
34.70004,-0.001688582
34.80004,-0.001685254
34.90004,-0.001681805
35.00004,-0.001678633
35.10004,-0.001675271
35.20004,-0.001671875
35.30003,-0.001668785
35.40003,-0.001665389
35.50003,-0.001662157
35.60003,-0.001659107
35.70003,-0.001655696
35.80003,-0.001652458
35.90002,-0.001649484
36.00002,-0.001646253
36.10002,-0.001642909
36.20002,-0.001639936
36.30002,-0.001636767
36.40002,-0.001633434
36.50002,-0.001630367
36.60001,-0.001627289
36.70001,-0.001623929
36.80001,-0.001620863
36.90001,-0.001617721
37.00001,-0.001614499
37.10001,-0.001611339
37.2,-0.001608226
37.3,-0.001604991
37.4,-0.001602002
37.5,-0.001598811
37.6,-0.00159574
37.7,-0.001592698
37.8,-0.00158951
37.89999,-0.001586355
37.99999,-0.001583451
38.09999,-0.001580195
38.19999,-0.001577235
38.29999,-0.001574183
38.39999,-0.001571023
38.49998,-0.00156808
38.59998,-0.001565064
38.69998,-0.001561939
38.79998,-0.001559066
38.89998,-0.001556218
38.99998,-0.001553205
39.09998,-0.001550284
39.19997,-0.001547353
39.29997,-0.001544288
39.39997,-0.001541331
39.49997,-0.00153858
39.59997,-0.001535652
39.69997,-0.00153275
39.79996,-0.001529753
39.89996,-0.00152686
39.99996,-0.001523973
40.09996,-0.001520912
40.19996,-0.001518041
40.29996,-0.001515261
40.39996,-0.001512185
40.49995,-0.001509397
40.59995,-0.001506762
40.69995,-0.001503626
40.79995,-0.001500691
40.89995,-0.001497978
40.99995,-0.001495172
41.09995,-0.001492363
41.19994,-0.001489574
41.29994,-0.001486603
41.39994,-0.001483844
41.49994,-0.001481165
41.59994,-0.001478233
41.69994,-0.001475511
41.79993,-0.001472647
41.89993,-0.001469878
41.99993,-0.001467144
42.09993,-0.001464277
42.19993,-0.001461476
42.29993,-0.001458801
42.39993,-0.001455999
42.49992,-0.001453216
42.59992,-0.001450679
42.69992,-0.001448005
42.79992,-0.001445269
42.89992,-0.001442773
42.99992,-0.001440214
43.09991,-0.00143762
43.19991,-0.001435113
43.29991,-0.001432486
43.39991,-0.001429733
43.49991,-0.00142713
43.59991,-0.001424278
43.69991,-0.001421546
43.7999,-0.001418898
43.8999,-0.001416107
43.9999,-0.001413389
44.0999,-0.001410718
44.1999,-0.001408015
44.2999,-0.001405296
44.39989,-0.001402675
44.49989,-0.001399917
44.59989,-0.001397295
44.69989,-0.001394628
44.79989,-0.001391959
44.89989,-0.00138946
44.99989,-0.001386778
45.09988,-0.001384138
45.19988,-0.001381768
45.29988,-0.001379208
45.39988,-0.001376444
45.49988,-0.001373988
45.59988,-0.001371478
45.69987,-0.001368779
45.79987,-0.001366192
45.89987,-0.001363682
45.99987,-0.00136119
46.09987,-0.001358622
46.19987,-0.00135608
46.29987,-0.001353569
46.39986,-0.00135103
46.49986,-0.001348604
46.59986,-0.001346097
46.69986,-0.001343333
46.79986,-0.00134089
46.89986,-0.001338498
46.99986,-0.001335928
47.09985,-0.001333416
47.19985,-0.001331014
47.29985,-0.001328519
47.39985,-0.001325979
47.49985,-0.001323661
47.59985,-0.001321254
47.69984,-0.001318686
47.79984,-0.001316268
47.89984,-0.001313888
47.99984,-0.001311432
48.09984,-0.001309078
48.19984,-0.001306629
48.29984,-0.00130419
48.39983,-0.001301788
48.49983,-0.001299441
48.59983,-0.001297024
48.69983,-0.001294591
48.79983,-0.001292191
48.89983,-0.001289881
48.99982,-0.0012875
49.09982,-0.001285118
49.19982,-0.001282928
49.29982,-0.00128052
49.39982,-0.001278143
49.49982,-0.00127592
49.59982,-0.001273521
49.69981,-0.001271343
49.79981,-0.001269057
49.89981,-0.001266639
49.99981,-0.00126438
50.09981,-0.001262334
50.19981,-0.001259982
50.2998,-0.001257666
50.3998,-0.001255559
50.4998,-0.001253255
50.5998,-0.00125113
50.6998,-0.001249255
50.7998,-0.001246842
50.8998,-0.001244637
50.99979,-0.001242625
51.09979,-0.00124027
51.19979,-0.001237933
51.29979,-0.001235711
51.39979,-0.001233349
51.49979,-0.001231027
51.59978,-0.001228907
51.69978,-0.001226592
51.79978,-0.00122428
51.89978,-0.001222142
51.99978,-0.001219835
52.09978,-0.001217513
52.19978,-0.001215452
52.29977,-0.001213098
52.39977,-0.001210902
52.49977,-0.001208734
52.59977,-0.001206487
52.69977,-0.001204251
52.79977,-0.001202091
52.89977,-0.001199839
52.99976,-0.001197682
53.09976,-0.001195497
53.19976,-0.001193204
53.29976,-0.001191145
53.39976,-0.001188877
53.49976,-0.001186611
53.59975,-0.001184476
53.69975,-0.001182281
53.79975,-0.001180135
53.89975,-0.001177999
53.99975,-0.001175852
54.09975,-0.001173732
54.19975,-0.001171592
54.29974,-0.00116949
54.39974,-0.001167304
54.49974,-0.001165252
54.59974,-0.001163152
54.69974,-0.001161014
54.79974,-0.001158896
54.89973,-0.001156796
54.99973,-0.001154698
55.09973,-0.001152637
55.19973,-0.001150602
55.29973,-0.001148515
55.39973,-0.001146451
55.49973,-0.001144253
55.59972,-0.001142353
55.69972,-0.00114024
55.79972,-0.001138113
55.89972,-0.001136134
55.99972,-0.001134109
56.09972,-0.001131995
56.19971,-0.001129996
56.29971,-0.001127896
56.39971,-0.00112603
56.49971,-0.001124108
56.59971,-0.001121978
56.69971,-0.001120025
56.79971,-0.001118223
56.8997,-0.001116125
56.9997,-0.001114148
57.0997,-0.001112301
57.1997,-0.001110293
57.2997,-0.001108259
57.3997,-0.001106463
57.49969,-0.001104477
57.59969,-0.001102426
57.69969,-0.00110058
57.79969,-0.001098596
57.89969,-0.001096652
57.99969,-0.001094777
58.09969,-0.001092713
58.19968,-0.001090768
58.29968,-0.001088955
58.39968,-0.001086944
58.49968,-0.001085037
58.59968,-0.001083127
58.69968,-0.001081089
58.79967,-0.001079226
58.89967,-0.001077406
58.99967,-0.001075328
59.09967,-0.001073427
59.19967,-0.001071545
59.29967,-0.00106969
59.39967,-0.00106791
59.49966,-0.001065995
59.59966,-0.001064066
59.69966,-0.001062054
59.79966,-0.001060194
59.89966,-0.001058261
59.99966,-0.001056457
60.09966,-0.001054596
60.19965,-0.001052665
60.29965,-0.001050811
60.39965,-0.001048986
60.49965,-0.001047092
60.59965,-0.001045317
60.69965,-0.001043424
60.79964,-0.001041479
60.89964,-0.001039775
60.99964,-0.001037872
61.09964,-0.001035994
61.19964,-0.001034174
61.29964,-0.001032372
61.39964,-0.001030436
61.49963,-0.001028584
61.59963,-0.001026806
61.69963,-0.001025051
61.79963,-0.001023215
61.89963,-0.001021417
61.99963,-0.001019731
62.09962,-0.00101787
62.19962,-0.001016059
62.29962,-0.00101434
62.39962,-0.001012563
62.49962,-0.001010753
62.59962,-0.001009025
62.69962,-0.001007278
62.79961,-0.001005481
62.89961,-0.001003691
62.99961,-0.001001935
63.09961,-0.001000139
63.19961,-0.0009984083
63.29961,-0.0009966982
63.3996,-0.0009949013
63.4996,-0.0009931864
63.5996,-0.000991367
63.6996,-0.0009897472
63.7996,-0.0009881048
63.8996,-0.0009862572
63.9996,-0.0009845224
64.09959,-0.0009828726
64.19959,-0.0009810908
64.29959,-0.0009793929
64.39959,-0.0009777835
64.49959,-0.000976012
64.59959,-0.0009742689
64.69958,-0.0009726689
64.79958,-0.0009709408
64.89958,-0.0009691883
64.99958,-0.0009676015
65.09958,-0.0009658555
65.19958,-0.0009642075
65.29958,-0.0009625774
65.39957,-0.0009608436
65.49957,-0.0009591429
65.59957,-0.0009574448
65.69957,-0.0009558129
65.79957,-0.000954113
65.89957,-0.0009524885
65.99957,-0.0009506767
66.09956,-0.0009490852
66.19956,-0.0009474371
66.29956,-0.0009457683
66.39956,-0.0009441391
66.49956,-0.0009425703
66.59956,-0.0009408648
66.69955,-0.000939261
66.79955,-0.0009376685
66.89955,-0.0009359894
66.99955,-0.0009344271
67.09955,-0.0009329561
67.19955,-0.0009311564
67.29955,-0.0009295772
67.39954,-0.0009280581
67.49954,-0.0009263923
67.59954,-0.0009248252
67.69954,-0.0009232619
67.79954,-0.000921628
67.89954,-0.0009200515
67.99953,-0.0009185523
68.09953,-0.0009168469
68.19953,-0.0009153561
68.29953,-0.0009138135
68.39953,-0.0009121834
68.49953,-0.0009107416
68.59953,-0.0009092216
68.69952,-0.0009075906
68.79952,-0.0009060518
68.89952,-0.0009045714
68.99952,-0.000902978
69.09952,-0.0009013884
69.19952,-0.000899939
69.29951,-0.0008983296
69.39951,-0.0008968219
69.49951,-0.0008953434
69.59951,-0.0008937575
69.69951,-0.0008923186
69.79951,-0.0008907703
69.89951,-0.0008891543
69.9995,-0.0008876796
70.0995,-0.0008862218
70.1995,-0.0008846481
70.2995,-0.0008831582
70.3995,-0.0008816525
70.4995,-0.000880141
70.59949,-0.0008786267
70.69949,-0.0008771105
70.79949,-0.0008756084
70.89949,-0.0008740912
70.99949,-0.0008726025
71.09949,-0.0008710909
71.19949,-0.0008696011
71.29948,-0.0008680981
71.39948,-0.0008666723
71.49948,-0.0008652014
71.59948,-0.0008636814
71.69948,-0.0008622292
71.79948,-0.000860828
71.89948,-0.000859389
71.99947,-0.0008579181
72.09947,-0.0008564037
72.19947,-0.0008550561
72.29947,-0.0008536491
72.39947,-0.0008520971
72.49947,-0.0008508522
72.59946,-0.0008494415
72.69946,-0.0008478716
72.79946,-0.00084667
72.89946,-0.0008453091
72.99946,-0.0008437346
73.09946,-0.000842451
73.19946,-0.000841142
73.29945,-0.0008397134
73.39945,-0.0008383959
73.49945,-0.000837166
73.59945,-0.0008356725
73.69945,-0.0008343955
73.79945,-0.0008330912
73.89944,-0.0008316757
73.99944,-0.0008303281
74.09944,-0.0008289692
74.19944,-0.0008275848
74.29944,-0.0008261967
74.39944,-0.0008247917
74.49944,-0.0008234968
74.59943,-0.0008221058
74.69943,-0.0008207309
74.79943,-0.0008193889
74.89943,-0.000818013
74.99943,-0.0008165524
75.09943,-0.0008151963
75.19942,-0.0008138355
75.29942,-0.0008124239
75.39942,-0.000811097
75.49942,-0.0008097824
75.59942,-0.000808365
75.69942,-0.0008070184
75.79942,-0.0008056717
75.89941,-0.0008042808
75.99941,-0.000802936
76.09941,-0.0008016138
76.19941,-0.000800237
76.29941,-0.0007989515
76.39941,-0.0007975079
76.4994,-0.0007962544
76.5994,-0.0007948662
76.6994,-0.0007934518
76.7994,-0.0007921239
76.8994,-0.0007908451
76.9994,-0.0007894852
77.0994,-0.0007880962
77.19939,-0.0007868832
77.29939,-0.0007855205
77.39939,-0.0007842642
77.49939,-0.000782943
77.59939,-0.0007816058
77.69939,-0.0007802685
77.79939,-0.0007789388
77.89938,-0.0007776976
77.99938,-0.0007764178
78.09938,-0.000775154
78.19938,-0.0007738506
78.29938,-0.0007726245
78.39938,-0.0007713691
78.49937,-0.0007700601
78.59937,-0.000768818
78.69937,-0.0007675447
78.79937,-0.0007662706
78.89937,-0.0007650379
78.99937,-0.0007637929
79.09937,-0.0007625216
79.19936,-0.000761319
79.29936,-0.000760156
79.39936,-0.0007588441
79.49936,-0.0007576169
79.59936,-0.0007564888
79.69936,-0.0007553324
79.79935,-0.0007541703
79.89935,-0.0007530233
79.99935,-0.0007518141
80.09935,-0.0007505455
80.19935,-0.0007494598
80.29935,-0.0007482082
80.39935,-0.0007469557
80.49934,-0.0007458256
80.59934,-0.0007446541
80.69934,-0.0007432885
80.79934,-0.000742232
80.89934,-0.0007410049
80.99934,-0.0007397326
81.09933,-0.0007385526
81.19933,-0.0007374715
81.29933,-0.0007361493
81.39933,-0.0007350146
81.49933,-0.0007338345
81.59933,-0.000732614
81.69933,-0.0007314058
81.79932,-0.0007302927
81.89932,-0.0007289969
81.99932,-0.0007278084
82.09932,-0.0007266925
82.19932,-0.0007254466
82.29932,-0.0007242977
82.39931,-0.0007231176
82.49931,-0.0007218774
82.59931,-0.0007207774
82.69931,-0.0007195476
82.79931,-0.0007183139
82.89931,-0.0007171791
82.99931,-0.0007160113
83.0993,-0.0007147127
83.1993,-0.0007136805
83.2993,-0.0007125062
83.3993,-0.0007112528
83.4993,-0.0007101801
83.5993,-0.0007090877
83.6993,-0.0007078512
83.79929,-0.0007067089
83.89929,-0.0007056353
83.99929,-0.0007043753
84.09929,-0.0007033356
84.19929,-0.0007022527
84.29929,-0.0007010284
84.39928,-0.0006999002
84.49928,-0.0006988294
84.59928,-0.0006976174
84.69928,-0.0006965994
84.79928,-0.0006954929
84.89928,-0.0006943336
84.99928,-0.0006932205
85.09927,-0.000692145
85.19927,-0.0006910376
85.29927,-0.0006898868
85.39927,-0.0006888113
85.49927,-0.000687669
85.59927,-0.0006866048
85.69926,-0.0006854992
85.79926,-0.0006843673
85.89926,-0.0006832786
85.99926,-0.0006821787
86.09926,-0.0006811192
86.19926,-0.0006800164
86.29926,-0.0006789212
86.39925,-0.0006778411
86.49925,-0.0006767533
86.59925,-0.0006756751
86.69925,-0.0006746486
86.79925,-0.0006734893
86.89925,-0.0006724977
86.99924,-0.0006714844
87.09924,-0.0006703778
87.19924,-0.0006693212
87.29924,-0.000668357
87.39924,-0.0006673088
87.49924,-0.0006662766
87.59924,-0.0006652162
87.69923,-0.0006642425
87.79923,-0.000663183
87.89923,-0.0006621811
87.99923,-0.0006612054
88.09923,-0.0006601328
88.19923,-0.0006591891
88.29922,-0.0006581118
88.39922,-0.0006571145
88.49922,-0.0006561512
88.59922,-0.0006550983
88.69922,-0.0006541066
88.79922,-0.0006531178
88.89922,-0.0006520923
88.99921,-0.0006511015
89.09921,-0.0006500722
89.19921,-0.0006490212
89.29921,-0.0006480918
89.39921,-0.0006470672
89.49921,-0.0006459513
89.59921,-0.000645018
89.6992,-0.0006440763
89.7992,-0.0006429998
89.8992,-0.0006420289
89.9992,-0.0006409893
90.0992,-0.0006399807
90.1992,-0.0006390691
90.29919,-0.0006380746
90.39919,-0.000637049
90.49919,-0.0006360715
90.59919,-0.000635174
90.69919,-0.0006342031
90.79919,-0.0006332228
90.89919,-0.0006323498
90.99918,-0.0006313064
91.09918,-0.0006302799
91.19918,-0.0006294191
91.29918,-0.0006284115
91.39918,-0.0006274491
91.49918,-0.0006264828
91.59917,-0.0006254761
91.69917,-0.000624539
91.79917,-0.0006236152
91.89917,-0.0006225718
91.99917,-0.0006216423
92.09917,-0.0006207204
92.19917,-0.0006196459
92.29916,-0.0006187927
92.39916,-0.0006178547
92.49916,-0.0006168536
92.59916,-0.0006159241
92.69916,-0.0006150285
92.79916,-0.0006140435
92.89915,-0.0006131422
92.99915,-0.0006121271
93.09915,-0.0006111476
93.19915,-0.0006102681
93.29915,-0.0006093574
93.39915,-0.0006083592
93.49915,-0.0006074627
93.59914,-0.0006064974
93.69914,-0.000605615
93.79914,-0.00060471
93.89914,-0.0006037655
93.99914,-0.0006028661
94.09914,-0.0006019451
94.19913,-0.0006010165
94.29913,-0.000600136
94.39913,-0.0005992103
94.49913,-0.0005983523
94.59913,-0.0005975406
94.69913,-0.0005965923
94.79913,-0.000595854
94.89912,-0.0005951137
94.99912,-0.0005941504
95.09912,-0.0005932933
95.19912,-0.0005926766
95.29912,-0.0005917546
95.39912,-0.0005909249
95.49911,-0.0005901847
95.59911,-0.0005893353
95.69911,-0.0005884708
95.79911,-0.0005876364
95.89911,-0.0005867672
95.99911,-0.0005858518
96.09911,-0.00058504
96.1991,-0.0005841247
96.2991,-0.0005831811
96.3991,-0.0005822817
96.4991,-0.0005813927
96.5991,-0.0005804632
96.6991,-0.0005795997
96.7991,-0.0005786918
96.89909,-0.0005777425
96.99909,-0.0005769148
97.09909,-0.0005760408
97.19909,-0.0005750821
97.29909,-0.0005742243
97.39909,-0.0005733409
97.49908,-0.0005724623
97.59908,-0.0005715676
97.69908,-0.0005706805
97.79908,-0.0005697887
97.89908,-0.0005689666
97.99908,-0.0005681021
98.09908,-0.000567148
98.19907,-0.0005663439
98.29907,-0.0005654803
98.39907,-0.0005646431
98.49907,-0.0005637946
98.59907,-0.0005628953
98.69907,-0.0005620034
98.79906,-0.0005612255
98.89906,-0.0005603422
98.99906,-0.0005594579
99.09906,-0.0005586066
99.19906,-0.000557759
99.29906,-0.0005569172
99.39906,-0.0005560922
99.49905,-0.0005552371
99.59905,-0.0005544112
99.69905,-0.0005535419
99.79905,-0.0005527462
99.89905,-0.0005519937
99.99905,-0.0005510954
100.099,-0.0005502148
100.199,-0.0005494397
100.299,-0.0005486053
100.399,-0.0005477325
100.499,-0.0005469762
100.599,-0.0005461013
100.699,-0.00054525
100.799,-0.0005444335
100.899,-0.0005436698
100.999,-0.0005427694
101.099,-0.0005419878
101.199,-0.000541259
101.299,-0.0005403389
101.399,-0.0005395704
101.499,-0.0005388584
101.599,-0.000537976
101.699,-0.0005371794
101.799,-0.0005363714
101.899,-0.0005355361
101.999,-0.0005347912
102.099,-0.0005340058
102.199,-0.0005331629
102.299,-0.0005323727
102.399,-0.0005316288
102.499,-0.0005307963
102.599,-0.0005300466
102.699,-0.0005292971
102.799,-0.0005284844
102.899,-0.0005277563
102.999,-0.0005270237
103.099,-0.0005261913
103.199,-0.0005253804
103.299,-0.0005246929
103.399,-0.0005238718
103.499,-0.0005231269
103.599,-0.0005223876
103.699,-0.0005215542
103.799,-0.0005208112
103.899,-0.0005200775
103.999,-0.0005193194
104.099,-0.0005185651
104.199,-0.0005177741
104.299,-0.000517047
104.399,-0.0005163049
104.499,-0.0005155252
104.599,-0.0005148086
104.699,-0.0005140656
104.799,-0.0005132716
104.899,-0.0005125456
104.999,-0.0005118439
105.099,-0.0005110934
105.199,-0.0005103146
105.299,-0.0005095819
105.399,-0.0005088427
105.499,-0.0005080714
105.599,-0.000507367
105.699,-0.000506639
105.799,-0.0005058706
105.899,-0.0005051586
105.999,-0.0005044232
106.099,-0.0005036556
106.199,-0.000502971
106.299,-0.0005022157
106.3989,-0.0005014793
106.4989,-0.000500772
106.5989,-0.0005001119
106.6989,-0.000499366
106.7989,-0.0004986324
106.8989,-0.0004979242
106.9989,-0.0004971728
107.0989,-0.0004964617
107.1989,-0.0004957422
107.2989,-0.0004950171
107.3989,-0.0004943221
107.4989,-0.0004935951
107.5989,-0.0004928888
107.6989,-0.0004921834
107.7989,-0.0004914884
107.8989,-0.0004907718
107.9989,-0.0004900457
108.0989,-0.0004893912
108.1989,-0.0004887151
108.2989,-0.0004879805
108.3989,-0.0004873326
108.4989,-0.0004866423
108.5989,-0.000485919
108.6989,-0.0004853173
108.7989,-0.0004845931
108.8989,-0.0004838689
108.9989,-0.0004832219
109.0989,-0.0004825816
109.1989,-0.0004818771
109.2989,-0.0004812481
109.3989,-0.0004806021
109.4989,-0.0004799146
109.5989,-0.0004793618
109.6989,-0.0004788052
109.7989,-0.0004781281
109.8989,-0.0004775226
109.9989,-0.0004769877
110.0989,-0.0004764019
110.1989,-0.0004758736
110.2989,-0.0004752511
110.3989,-0.0004745778
110.4989,-0.0004740231
110.5989,-0.0004734637
110.6989,-0.0004727857
110.7989,-0.0004721462
110.8989,-0.0004715501
110.9989,-0.0004708222
111.0989,-0.0004702656
111.1989,-0.0004696525
111.2989,-0.000468853
111.3989,-0.0004682512
111.4989,-0.0004676184
111.5989,-0.0004669253
111.6989,-0.0004662717
111.7989,-0.0004656078
111.8989,-0.0004649373
111.9989,-0.0004642376
112.0989,-0.0004635802
112.1989,-0.0004629154
112.2989,-0.000462226
112.3989,-0.0004616299
112.4989,-0.0004609867
112.5989,-0.0004603237
112.6989,-0.0004596203
112.7989,-0.0004590109
112.8988,-0.0004583423
112.9988,-0.0004577039
113.0988,-0.0004570936
113.1988,-0.0004564448
113.2988,-0.0004557808
113.3988,-0.0004551
113.4988,-0.0004544963
113.5988,-0.0004538832
113.6988,-0.0004532796
113.7988,-0.0004526411
113.8988,-0.000451996
113.9988,-0.0004513679
114.0988,-0.0004507623
114.1988,-0.0004501097
114.2988,-0.0004494863
114.3988,-0.000448812
114.4988,-0.0004481989
114.5988,-0.0004476593
114.6988,-0.000446986
114.7988,-0.0004463136
114.8988,-0.0004457175
114.9988,-0.0004450828
115.0988,-0.0004444838
115.1988,-0.0004438585
115.2988,-0.0004432191
115.3988,-0.0004426418
115.4988,-0.000442073
115.5988,-0.0004415287
115.6988,-0.0004409523
115.7988,-0.0004403468
115.8988,-0.0004396462
115.9988,-0.0004390802
116.0988,-0.0004384746
116.1988,-0.0004378163
116.2988,-0.0004372476
116.3988,-0.0004366335
116.4988,-0.0004359583
116.5988,-0.0004353735
116.6988,-0.0004347849
116.7988,-0.0004341549
116.8988,-0.0004335569
116.9988,-0.0004329759
117.0988,-0.0004323412
117.1988,-0.0004317648
117.2988,-0.0004311941
117.3988,-0.0004305104
117.4988,-0.0004299548
117.5988,-0.0004293719
117.6988,-0.0004287861
117.7988,-0.0004282295
117.8988,-0.0004275543
117.9988,-0.0004269224
118.0988,-0.0004264016
118.1988,-0.0004258262
118.2988,-0.0004251934
118.3988,-0.0004246236
118.4988,-0.0004240398
118.5988,-0.0004234503
118.6988,-0.0004229266
118.7988,-0.000422355
118.8988,-0.000421757
118.9988,-0.0004212042
119.0988,-0.0004206609
119.1988,-0.0004200383
119.2988,-0.000419511
119.3988,-0.0004189365
119.4987,-0.0004183668
119.5987,-0.0004178243
119.6987,-0.000417264
119.7987,-0.0004166783
119.8987,-0.0004161142
119.9987,-0.0004154964
120.0987,-0.0004149718
120.1987,-0.0004144115
120.2987,-0.0004138493
120.3987,-0.0004132918
120.4987,-0.0004127409
120.5987,-0.0004122069
120.6987,-0.0004116108
120.7987,-0.0004110806
120.8987,-0.0004105749
120.9987,-0.0004100324
121.0987,-0.000409443
121.1987,-0.0004088901
121.2987,-0.0004084381
121.3987,-0.0004078392
121.4987,-0.0004073099
121.5987,-0.0004068117
121.6987,-0.0004062674
121.7987,-0.000405724
121.8987,-0.0004052352
121.9987,-0.0004046985
122.0987,-0.0004041853
122.1987,-0.0004036767
122.2987,-0.0004030806
122.3987,-0.000402589
122.4987,-0.0004020852
122.5987,-0.0004015352
122.6987,-0.0004009994
122.7987,-0.0004004842
122.8987,-0.0003999927
122.9987,-0.000399486
123.0987,-0.0003989492
123.1987,-0.000398419
123.2987,-0.0003978992
123.3987,-0.0003974076
123.4987,-0.0003968614
123.5987,-0.0003963557
123.6987,-0.0003958632
123.7987,-0.000395317
123.8987,-0.0003948376
123.9987,-0.0003943799
124.0987,-0.0003938168
124.1987,-0.0003933129
124.2987,-0.000392827
124.3987,-0.0003923025
124.4987,-0.0003918071
124.5987,-0.0003913278
124.6987,-0.0003907364
124.7987,-0.0003902636
124.8987,-0.0003897711
124.9987,-0.0003892343
125.0987,-0.0003887898
125.1987,-0.0003882691
125.2987,-0.000387688
125.3987,-0.000387235
125.4987,-0.0003867387
125.5987,-0.0003861991
125.6987,-0.0003856944
125.7987,-0.0003852451
125.8987,-0.0003846961
125.9986,-0.0003842234
126.0986,-0.0003837431
126.1986,-0.0003832233
126.2986,-0.0003827608
126.3986,-0.0003822825
126.4986,-0.0003817306
126.5986,-0.0003812663
126.6986,-0.0003807832
126.7986,-0.0003802718
126.8986,-0.0003798085
126.9986,-0.0003793302
127.0986,-0.0003787971
127.1986,-0.0003783281
127.2986,-0.0003778808
127.3986,-0.0003773798
127.4986,-0.0003768807
127.5986,-0.0003764155
127.6986,-0.0003759503
127.7986,-0.0003754643
127.8986,-0.0003749568
127.9986,-0.0003745085
128.0986,-0.000373999
128.1986,-0.0003735159
128.2986,-0.0003730836
128.3986,-0.0003725468
128.4986,-0.0003721937
128.5986,-0.0003717916
128.6987,-0.0003712058
128.7987,-0.0003707604
128.8987,-0.0003703931
128.9987,-0.0003698629
129.0987,-0.0003694599
129.1987,-0.0003690446
129.2987,-0.0003685708
129.3987,-0.0003681678
129.4987,-0.00036776
129.5987,-0.0003672854
129.6987,-0.000366854
129.7987,-0.0003664067
129.8987,-0.0003659264
129.9987,-0.0003654914
130.0987,-0.0003650619
130.1987,-0.0003645591
130.2988,-0.0003641137
130.3988,-0.0003636597
130.4988,-0.0003631832
130.5988,-0.0003627679
130.6988,-0.0003622961
130.7988,-0.0003617226
130.8988,-0.0003613177
130.9988,-0.0003608939
131.0988,-0.0003603881
131.1988,-0.0003599163
131.2988,-0.0003594634
131.3988,-0.0003589887
131.4988,-0.0003585207
131.5988,-0.0003581271
131.6988,-0.000357627
131.7988,-0.0003571429
131.8988,-0.000356722
131.9989,-0.000356253
132.0989,-0.0003557925
132.1989,-0.0003553216
132.2989,-0.0003548734
132.3989,-0.0003544373
132.4989,-0.0003540079
132.5989,-0.0003534871
132.6989,-0.0003530596
132.7989,-0.0003526358
132.8989,-0.0003521329
132.9989,-0.0003517101
133.0989,-0.0003512364
133.1989,-0.0003507439
133.2989,-0.0003503172
133.3989,-0.0003499104
133.4989,-0.0003494537
133.599,-0.0003489584
133.699,-0.0003485073
133.799,-0.0003480402
133.899,-0.0003476315
133.999,-0.0003472265
134.099,-0.0003467151
134.199,-0.0003462396
134.299,-0.0003458572
134.399,-0.0003454495
134.499,-0.0003449758
134.599,-0.0003445473
134.699,-0.0003440953
134.799,-0.0003436385
134.899,-0.0003432863
134.999,-0.000342855
135.099,-0.0003423662
135.1991,-0.0003419735
135.2991,-0.0003415884
135.3991,-0.0003411213
135.4991,-0.0003406815
135.5991,-0.0003402859
135.6991,-0.0003398678
135.7991,-0.0003394487
135.8991,-0.0003390146
135.9991,-0.0003385805
136.0991,-0.0003381868
136.1991,-0.0003377423
136.2991,-0.0003373242
136.3991,-0.0003369362
136.4991,-0.0003364625
136.5991,-0.0003360585
136.6991,-0.000335647
136.7991,-0.0003352383
136.8992,-0.0003347542
136.9992,-0.0003343634
137.0992,-0.0003339509
137.1992,-0.0003335206
137.2992,-0.0003331655
137.3992,-0.0003327643
137.4992,-0.0003323076
137.5992,-0.0003318603
137.6992,-0.0003315024
137.7992,-0.0003310617
137.8992,-0.0003306426
137.9992,-0.0003302414
138.0992,-0.0003298572
138.1992,-0.0003294193
138.2992,-0.0003290445
138.3992,-0.0003286292
138.4993,-0.0003282469
138.5993,-0.0003278438
138.6993,-0.0003274275
138.7993,-0.0003269877
138.8993,-0.0003266186
138.9993,-0.0003261995
139.0993,-0.0003258134
139.1993,-0.0003254292
139.2993,-0.0003249837
139.3993,-0.0003245854
139.4993,-0.0003242294
139.5993,-0.0003237736
139.6993,-0.000323396
139.7993,-0.0003229901
139.8993,-0.0003226304
139.9993,-0.0003222584
140.0993,-0.0003218723
140.1994,-0.0003215059
140.2994,-0.000321133
140.3994,-0.0003207469
140.4994,-0.0003204098
140.5994,-0.0003200689
140.6994,-0.0003196818
140.7994,-0.0003192985
140.8994,-0.0003189341
140.9994,-0.0003186111
141.0994,-0.0003182701
141.1994,-0.0003178115
141.2994,-0.0003174537
141.3994,-0.0003170996
141.4994,-0.0003167229
141.5994,-0.0003164102
141.6994,-0.0003160702
141.7995,-0.000315639
141.8995,-0.0003153291
141.9995,-0.000315105
142.0995,-0.0003147
142.1995,-0.00031428
142.2995,-0.0003140003
142.3995,-0.0003136472
142.4995,-0.0003132865
142.5995,-0.0003129324
142.6995,-0.000312534
142.7995,-0.0003122223
142.8995,-0.0003118843
142.9995,-0.0003114765
143.0995,-0.0003111356
143.1995,-0.0003107871
143.2995,-0.0003103511
143.3996,-0.0003099791
143.4996,-0.0003096175
143.5996,-0.0003092126
143.6996,-0.0003088622
143.7996,-0.0003085044
143.8996,-0.0003080872
143.9996,-0.0003077002
144.0996,-0.0003073404
144.1996,-0.0003069543
144.2996,-0.0003066181
144.3996,-0.0003062169
144.4996,-0.0003057837
144.5996,-0.0003054673
144.6996,-0.0003051123
144.7996,-0.0003046894
144.8996,-0.0003043156
144.9996,-0.0003040321
145.0997,-0.000303662
145.1997,-0.0003032599
145.2997,-0.0003029124
145.3997,-0.0003025978
145.4997,-0.000302208
145.5997,-0.0003018435
145.6997,-0.0003014857
145.7997,-0.0003011627
145.8997,-0.0003008575
145.9997,-0.0003004771
146.0997,-0.0003000815
146.1997,-0.000299703
146.2997,-0.0002993837
146.3997,-0.0002990164
146.4997,-0.0002986784
146.5997,-0.000298296
146.6998,-0.0002979193
146.7998,-0.0002976415
146.8998,-0.0002973176
146.9998,-0.0002968928
147.0998,-0.000296535
147.1998,-0.0002962487
147.2998,-0.0002958748
147.3998,-0.0002955367
147.4998,-0.0002951685
147.5998,-0.0002947834
147.6998,-0.0002944453
147.7998,-0.0002941044
147.8998,-0.0002937324
147.9998,-0.0002934442
148.0998,-0.0002931259
148.1998,-0.0002927134
148.2999,-0.000292381
148.3999,-0.0002920213
148.4999,-0.0002916954
148.5999,-0.0002914035
148.6999,-0.0002911068
148.7999,-0.0002907443
148.8999,-0.0002904665
148.9999,-0.0002901378
149.0999,-0.0002898063
149.1999,-0.0002894974
149.2999,-0.0002891584
149.3999,-0.000288826
149.4999,-0.0002885133
149.5999,-0.0002881884
149.6999,-0.0002878014
149.7999,-0.0002875066
149.8999,-0.0002871563
150,-0.0002868135
150.1,-0.0002864858
150.2,-0.0002861307
150.3,-0.0002857729
150.4,-0.0002854649
150.5,-0.0002851316
150.6,-0.0002847859
150.7,-0.0002844507
150.8,-0.0002842078
150.9,-0.0002838565
151,-0.0002835165
151.1,-0.0002831953
151.2,-0.0002828422
151.3,-0.0002824909
151.4,-0.0002821708
151.5,-0.0002818468
151.6001,-0.0002814918
151.7001,-0.0002811697
151.8001,-0.0002808194
151.9001,-0.0002804766
152.0001,-0.0002801601
152.1001,-0.0002798126
152.2001,-0.0002794736
152.3001,-0.0002791789
152.4001,-0.0002788125
152.5001,-0.0002784566
152.6001,-0.0002781524
152.7001,-0.000277803
152.8001,-0.0002774395
152.9001,-0.0002771711
153.0001,-0.0002768396
153.1001,-0.0002764488
153.2001,-0.0002761898
153.3002,-0.0002758791
153.4002,-0.0002755052
153.5002,-0.0002751765
153.6002,-0.0002748959
153.7002,-0.0002745474
153.8002,-0.0002742649
153.9002,-0.0002739608
154.0002,-0.0002735379
154.1002,-0.0002732836
154.2002,-0.00027297
154.3002,-0.0002725952
154.4002,-0.0002723259
154.5002,-0.0002720086
154.6002,-0.0002716808
154.7002,-0.0002713578
154.8002,-0.0002710612
154.9003,-0.0002707221
155.0003,-0.0002704283
155.1003,-0.0002701044
155.2003,-0.0002697945
155.3003,-0.0002694781
155.4003,-0.0002691956
155.5003,-0.0002689329
155.6003,-0.0002685656
155.7003,-0.0002682341
155.8003,-0.0002679638
155.9003,-0.0002676201
156.0003,-0.000267346
156.1003,-0.0002670437
156.2003,-0.0002667367
156.3003,-0.0002664269
156.4003,-0.0002661528
156.5004,-0.0002658355
156.6004,-0.0002655511
156.7004,-0.0002653627
156.8004,-0.0002650378
156.9004,-0.0002647111
157.0004,-0.000264438
157.1004,-0.0002641338
157.2004,-0.0002638974
157.3004,-0.000263661
157.4004,-0.0002633493
157.5004,-0.0002631044
157.6004,-0.0002628125
157.7004,-0.0002625093
157.8004,-0.000262271
157.9004,-0.0002619876
158.0004,-0.0002616928
158.1004,-0.0002614244
158.2005,-0.000261173
158.3005,-0.0002608867
158.4005,-0.0002606315
158.5005,-0.000260316
158.6005,-0.0002600175
158.7005,-0.0002597453
158.8005,-0.0002594995
158.9005,-0.0002591793
159.0005,-0.0002588996
159.1005,-0.0002586388
159.2005,-0.0002583271
159.3005,-0.0002580493
159.4005,-0.0002577874
159.5005,-0.000257503
159.6005,-0.0002572252
159.7005,-0.0002569342
159.8006,-0.0002566545
159.9006,-0.0002563541
160.0006,-0.0002561253
160.1006,-0.0002558352
160.2006,-0.0002555188
160.3006,-0.0002552824
160.4006,-0.0002550282
160.5006,-0.0002547117
160.6006,-0.0002544029
160.7006,-0.0002541853
160.8006,-0.0002538764
160.9006,-0.0002536212
161.0006,-0.0002533463
161.1006,-0.0002530713
161.2006,-0.0002527916
161.3006,-0.000252575
161.4007,-0.000252284
161.5007,-0.0002520278
161.6007,-0.0002517387
161.7007,-0.0002514863
161.8007,-0.0002512029
161.9007,-0.0002509448
162.0007,-0.0002506275
162.1007,-0.0002503873
162.2007,-0.0002501641
162.3007,-0.0002498722
162.4007,-0.0002496311
162.5007,-0.0002493637
162.6007,-0.0002490981
162.7007,-0.0002488137
162.8007,-0.0002485811
162.9007,-0.0002482957
163.0007,-0.0002480603
163.1008,-0.0002478004
163.2008,-0.000247531
163.3008,-0.0002473088
163.4008,-0.0002470413
163.5008,-0.0002467108
163.6008,-0.000246449
163.7008,-0.0002462173
163.8008,-0.0002459216
163.9008,-0.0002456372
164.0008,-0.0002454037
164.1008,-0.000245091
164.2008,-0.0002448217
164.3008,-0.0002446004
164.4008,-0.0002443565
164.5008,-0.0002440184
164.6008,-0.0002437622
164.7009,-0.000243556
164.8009,-0.000243282
164.9009,-0.0002430079
165.0009,-0.0002426962
165.1009,-0.0002424109
165.2009,-0.0002421764
165.3009,-0.0002419617
165.4009,-0.0002416443
165.5009,-0.0002413938
165.6009,-0.0002411537
165.7009,-0.0002408824
165.8009,-0.0002406301
165.9009,-0.0002403701
166.0009,-0.0002400839
166.1009,-0.0002398352
166.2009,-0.0002395951
166.3009,-0.0002393267
166.401,-0.0002390592
166.501,-0.00023882
166.601,-0.0002385714
166.701,-0.0002382767
166.801,-0.0002380299
166.901,-0.0002377465
167.001,-0.0002375223
167.101,-0.0002372784
167.201,-0.0002369921
167.301,-0.0002367228
167.401,-0.0002364874
167.501,-0.000236235
167.601,-0.0002359713
167.701,-0.0002356765
167.801,-0.0002354213
167.901,-0.0002352047
168.0011,-0.0002349232
168.1011,-0.0002346529
168.2011,-0.0002343882
168.3011,-0.0002341528
168.4011,-0.000233859
168.5011,-0.0002336367
168.6011,-0.0002334023
168.7011,-0.0002331047
168.8011,-0.0002328495
168.9011,-0.0002326244
169.0011,-0.0002323598
169.1011,-0.0002321224
169.2011,-0.0002318503
169.3011,-0.0002315715
169.4011,-0.0002313662
169.5011,-0.0002311261
169.6012,-0.0002308643
169.7012,-0.0002306091
169.8012,-0.0002303652
169.9012,-0.0002301241
170.0012,-0.0002298858
170.1012,-0.0002296353
170.2012,-0.000229333
170.3012,-0.0002291268
170.4012,-0.0002288594
170.5012,-0.0002286192
170.6012,-0.0002283923
170.7012,-0.00022817
170.8012,-0.0002279251
170.9012,-0.0002276681
171.0012,-0.0002274175
171.1012,-0.0002271708
171.2012,-0.0002269618
171.3013,-0.0002267207
171.4013,-0.0002264165
171.5013,-0.000226183
171.6013,-0.0002259814
171.7013,-0.0002257865
171.8013,-0.0002255322
171.9013,-0.000225245
172.0013,-0.000225034
172.1013,-0.0002247572
172.2013,-0.0002245415
172.3013,-0.0002243014
172.4013,-0.0002240254
172.5013,-0.0002238126
172.6013,-0.0002236167
172.7013,-0.000223321
172.8013,-0.0002231091
172.9014,-0.0002228756
173.0014,-0.0002226166
173.1014,-0.0002224396
173.2014,-0.0002222051
173.3014,-0.000221931
173.4014,-0.0002217163
173.5014,-0.000221512
173.6014,-0.0002212822
173.7014,-0.0002210091
173.8014,-0.0002208057
173.9014,-0.0002205853
174.0014,-0.00022038
174.1014,-0.000220137
174.2014,-0.0002198969
174.3014,-0.000219701
174.4014,-0.0002194496
174.5014,-0.0002191915
174.6015,-0.0002189834
174.7015,-0.000218812
174.8015,-0.0002185267
174.9015,-0.0002182931
175.0015,-0.0002181293
175.1015,-0.0002179202
175.2015,-0.0002177121
175.3015,-0.0002174992
175.4015,-0.0002172534
175.5015,-0.0002170387
175.6015,-0.0002168692
175.7015,-0.0002166159
175.8015,-0.0002163588
175.9015,-0.0002161846
176.0015,-0.0002159604
176.1015,-0.0002157438
176.2016,-0.0002155216
176.3016,-0.000215321
176.4016,-0.0002151223
176.5016,-0.000214949
176.6016,-0.0002147447
176.7016,-0.0002145158
176.8016,-0.0002143699
176.9016,-0.0002142107
177.0016,-0.0002139376
177.1016,-0.0002137031
177.2016,-0.0002135675
177.3016,-0.0002133227
177.4016,-0.0002131192
177.5016,-0.0002129535
177.6016,-0.0002127444
177.7016,-0.0002125373
177.8017,-0.0002123979
177.9017,-0.000212186
178.0017,-0.0002119713
178.1017,-0.0002117829
178.2017,-0.0002115626
178.3017,-0.0002113742
178.4017,-0.0002112217
178.5017,-0.0002109664
178.6017,-0.0002107838
178.7017,-0.0002105728
178.8017,-0.0002103864
178.9017,-0.0002101801
179.0017,-0.0002099588
179.1017,-0.0002097281
179.2017,-0.0002095529
179.3017,-0.0002093316
179.4017,-0.0002091254
179.5018,-0.0002089436
179.6018,-0.0002087016
179.7018,-0.0002084784
179.8018,-0.0002082967
179.9018,-0.0002081083
180.0018,-0.0002078691
180.1018,-0.0002076977
180.2018,-0.0002074849
180.3018,-0.0002072457
180.4018,-0.0002070564
180.5018,-0.0002068888
180.6018,-0.0002066345
180.7018,-0.0002064461
180.8018,-0.0002062465
180.9018,-0.0002060158
181.0018,-0.0002058321
181.1019,-0.0002056767
181.2019,-0.0002053792
181.3019,-0.0002051993
181.4019,-0.0002050147
181.5019,-0.0002048009
181.6019,-0.0002045646
181.7019,-0.0002043856
181.8019,-0.0002041756
181.9019,-0.0002039769
182.0019,-0.0002038244
182.1019,-0.0002035541
182.2019,-0.0002033431
182.3019,-0.000203152
182.4019,-0.0002029796
182.5019,-0.0002027555
182.6019,-0.000202553
182.702,-0.00020236
182.802,-0.0002021189
182.902,-0.0002019927
183.002,-0.0002017705
183.102,-0.0002015604
183.202,-0.0002013608
183.302,-0.0002011819
183.402,-0.0002009794
183.502,-0.0002008052
183.602,-0.0002006178
183.702,-0.0002003748
183.802,-0.000200226
183.902,-0.0002000141
184.002,-0.0001998116
184.102,-0.0001995894
184.202,-0.0001994171
184.302,-0.0001991797
184.4021,-0.0001990149
184.5021,-0.000198852
184.6021,-0.0001986345
184.7021,-0.000198465
184.8021,-0.0001982945
184.9021,-0.0001980544
185.0021,-0.0001978726
185.1021,-0.0001976975
185.2021,-0.0001975082
185.3021,-0.0001973264
185.4021,-0.0001971343
185.5021,-0.0001968989
185.6021,-0.0001967143
185.7021,-0.0001965485
185.8021,-0.0001963461
185.9021,-0.0001961737
186.0022,-0.0001959703
186.1022,-0.0001957886
186.2022,-0.0001956407
186.3022,-0.0001954392
186.4022,-0.0001951943
186.5022,-0.0001950069
186.6022,-0.0001948308
186.7022,-0.0001946123
186.8022,-0.0001944494
186.9022,-0.0001942771
187.0022,-0.0001940426
187.1022,-0.0001938797
187.2022,-0.0001937196
187.3022,-0.0001934955
187.4022,-0.0001933476
187.5022,-0.0001931762
187.6022,-0.0001929493
187.7023,-0.0001927713
187.8023,-0.0001925952
187.9023,-0.0001923993
188.0023,-0.0001922298
188.1023,-0.0001920377
188.2023,-0.0001918399
188.3023,-0.0001916855
188.4023,-0.0001915348
188.5023,-0.0001913134
188.6023,-0.0001911261
188.7023,-0.0001909405
188.8023,-0.0001907663
188.9023,-0.0001905968
189.0023,-0.0001904103
189.1023,-0.0001902069
189.2023,-0.0001900016
189.3024,-0.0001898576
189.4024,-0.0001896607
189.5024,-0.0001894639
189.6024,-0.0001893151
189.7024,-0.0001890825
189.8024,-0.0001889102
189.9024,-0.0001887086
190.0024,-0.0001885448
190.1024,-0.0001883724
190.2024,-0.000188185
190.3024,-0.0001880108
190.4024,-0.0001878187
190.5024,-0.0001876671
190.6024,-0.0001875079
190.7024,-0.0001873055
190.8024,-0.0001871275
190.9025,-0.0001869693
191.0025,-0.0001867649
191.1025,-0.0001866321
191.2025,-0.0001864673
191.3025,-0.000186246
191.4025,-0.0001860934
191.5025,-0.0001858966
191.6025,-0.0001856942
191.7025,-0.0001855472
191.8025,-0.0001854041
191.9025,-0.0001851564
192.0025,-0.000185017
192.1025,-0.0001848447
192.2025,-0.0001846564
192.3025,-0.0001844755
192.4025,-0.0001842806
192.5025,-0.0001841054
192.6026,-0.0001839435
192.7026,-0.0001838031
192.8026,-0.0001835696
192.9026,-0.0001834246
193.0026,-0.0001832617
193.1026,-0.0001830714
193.2026,-0.0001829471
193.3026,-0.0001827249
193.4026,-0.0001825488
193.5026,-0.0001823736
193.6026,-0.0001822229
193.7026,-0.0001820289
193.8026,-0.000181834
193.9026,-0.0001816824
194.0026,-0.0001814733
194.1026,-0.0001813339
194.2027,-0.0001811776
194.3027,-0.0001809827
194.4027,-0.0001808132
194.5027,-0.000180638
194.6027,-0.0001804939
194.7027,-0.0001803357
194.8027,-0.000180153
194.9027,-0.0001799505
195.0027,-0.0001798262
195.1027,-0.0001796727
195.2027,-0.0001795089
195.3027,-0.0001793327
195.4027,-0.0001791802
195.5027,-0.000179022
195.6027,-0.0001788751
195.7027,-0.0001787187
195.8027,-0.0001785191
195.9028,-0.0001783185
196.0028,-0.000178213
196.1028,-0.000178052
196.2028,-0.0001778825
196.3028,-0.0001777393
196.4028,-0.0001775246
196.5028,-0.0001773796
196.6028,-0.0001772628
196.7028,-0.0001770848
196.8028,-0.0001769238
196.9028,-0.0001767637
197.0028,-0.0001766121
197.1028,-0.000176468
197.2028,-0.0001763201
197.3028,-0.0001761233
197.4028,-0.0001759764
197.5029,-0.0001758173
197.6029,-0.0001756713
197.7029,-0.0001755187
197.8029,-0.0001753605
197.9029,-0.0001751986
198.0029,-0.0001750272
198.1029,-0.0001748793
198.2029,-0.0001747192
198.3029,-0.0001745714
198.4029,-0.0001744122
198.5029,-0.0001742418
198.6029,-0.0001741033
198.7029,-0.0001739912
198.8029,-0.0001738236
198.9029,-0.00017364
199.0029,-0.0001735138
199.103,-0.0001733763
199.203,-0.0001731625
199.303,-0.0001730608
199.403,-0.0001728979
199.503,-0.0001727463
199.603,-0.0001725899
199.703,-0.0001724298
199.803,-0.0001722246
199.903,-0.0001720955
200.003,-0.0001719599
200.103,-0.0001718083
200.203,-0.0001716652
200.303,-0.0001714891
200.403,-0.0001713469
200.503,-0.0001712451
200.603,-0.0001710926
200.703,-0.0001708873
200.8031,-0.0001707169
200.9031,-0.0001706236
201.0031,-0.000170407
201.1031,-0.0001702677
201.2031,-0.0001701104
201.3031,-0.0001699955
201.4031,-0.0001698646
201.5031,-0.0001696875
201.6031,-0.0001694738
201.7031,-0.0001693222
201.8031,-0.0001692214
201.9031,-0.0001690396
202.0031,-0.0001689031
202.1031,-0.0001687656
202.2031,-0.0001685791
202.3031,-0.0001684652
202.4032,-0.0001683343
202.5032,-0.0001681375
202.6032,-0.0001679802
202.7032,-0.0001678464
202.8032,-0.0001676798
202.9032,-0.0001675329
203.0032,-0.0001673963
203.1032,-0.000167191
203.2032,-0.0001670601
203.3032,-0.0001668906
203.4032,-0.0001667305
203.5032,-0.0001665911
203.6032,-0.0001664508
203.7032,-0.0001662606
203.8032,-0.0001661363
203.9032,-0.0001659941
204.0033,-0.0001658189
204.1033,-0.0001657172
204.2033,-0.0001655524
204.3033,-0.000165349
204.4033,-0.0001652247
204.5033,-0.0001651145
204.6033,-0.0001649422
204.7033,-0.0001647802
204.8033,-0.0001646408
204.9033,-0.0001645118
205.0033,-0.0001643771
205.1033,-0.0001642434
205.2033,-0.0001640437
205.3033,-0.0001639006
205.4033,-0.0001638206
205.5033,-0.0001636445
205.6033,-0.0001635183
205.7034,-0.0001633648
205.8034,-0.0001631999
205.9034,-0.0001630747
206.0034,-0.0001629692
206.1034,-0.0001627517
206.2034,-0.0001626264
206.3034,-0.0001625059
206.4034,-0.0001623609
206.5034,-0.0001621932
206.6034,-0.0001621019
206.7034,-0.000161987
206.8034,-0.0001618486
206.9034,-0.0001617026
207.0034,-0.0001615745
207.1034,-0.0001614126
207.2034,-0.0001613118
207.3035,-0.0001611668
207.4035,-0.0001610405
207.5035,-0.0001609389
207.6035,-0.000160791
207.7035,-0.0001606676
207.8035,-0.0001605179
207.9035,-0.0001604077
208.0035,-0.0001602844
208.1035,-0.0001601299
208.2035,-0.0001599952
208.3035,-0.0001598474
208.4035,-0.0001597645
208.5035,-0.0001596364
208.6035,-0.000159449
208.7035,-0.000159336
208.8035,-0.0001592155
208.9035,-0.0001590959
209.0036,-0.0001589104
209.1036,-0.0001588218
209.2036,-0.0001586618
209.3036,-0.000158544
209.4036,-0.0001584112
209.5036,-0.0001582709
209.6036,-0.0001581382
209.7036,-0.0001580138
209.8036,-0.0001578876
209.9036,-0.0001577662
210.0036,-0.0001576343
210.1036,-0.0001574799
210.2036,-0.0001573471
210.3036,-0.0001572303
210.4036,-0.0001570815
210.5036,-0.0001569648
210.6037,-0.0001568056
210.7037,-0.0001566822
210.8037,-0.0001566069
210.9037,-0.0001564779
211.0037,-0.0001562528
211.1037,-0.000156104
211.2037,-0.000156024
211.3037,-0.0001558516
211.4037,-0.0001557311
211.5037,-0.0001555766
211.6037,-0.0001554599
211.7037,-0.0001553892
211.8037,-0.0001552602
211.9037,-0.0001550398
212.0037,-0.0001549306
212.1037,-0.0001548308
212.2038,-0.0001546716
212.3038,-0.0001545389
212.4038,-0.0001544117
212.5038,-0.0001542601
212.6038,-0.0001541838
212.7038,-0.0001540661
212.8038,-0.0001538928
212.9038,-0.0001537968
213.0038,-0.0001536677
213.1038,-0.0001535048
213.2038,-0.0001533965
213.3038,-0.000153292
213.4038,-0.0001531423
213.5038,-0.0001530067
213.6038,-0.0001528974
213.7038,-0.0001527646
213.8038,-0.0001526431
213.9039,-0.0001525471
214.0039,-0.0001523832
214.1039,-0.0001522815
214.2039,-0.0001521176
214.3039,-0.0001519924
214.4039,-0.000151886
214.5039,-0.0001517476
214.6039,-0.0001515912
214.7039,-0.0001514782
214.8039,-0.0001513727
214.9039,-0.0001512249
215.0039,-0.0001510686
215.1039,-0.0001509584
215.2039,-0.0001508529
215.3039,-0.0001506928
215.4039,-0.0001505497
215.504,-0.0001503943
215.604,-0.0001502719
215.704,-0.0001502229
215.804,-0.0001500393
215.904,-0.0001499263
216.004,-0.0001497982
216.104,-0.0001496786
216.204,-0.0001495797
216.304,-0.0001494695
216.404,-0.0001493471
216.504,-0.0001491964
216.604,-0.0001491211
216.704,-0.0001489845
216.804,-0.0001488432
216.904,-0.0001487086
217.004,-0.000148605
217.104,-0.0001485024
217.2041,-0.0001483922
217.3041,-0.0001482547
217.4041,-0.0001481351
217.5041,-0.0001480277
217.6041,-0.0001479317
217.7041,-0.0001478026
217.8041,-0.0001476849
217.9041,-0.0001475813
218.0041,-0.0001474335
218.1041,-0.000147344
218.2041,-0.0001472395
218.3041,-0.0001471095
218.4041,-0.0001469984
218.5041,-0.0001468732
218.6041,-0.0001467705
218.7041,-0.0001466754
218.8042,-0.0001465549
218.9042,-0.0001463722
219.0042,-0.0001462789
219.1042,-0.0001461716
219.2042,-0.0001460218
219.3042,-0.0001459446
219.4042,-0.0001458316
219.5042,-0.0001456517
219.6042,-0.000145566
219.7042,-0.0001454916
219.8042,-0.0001453466
219.9042,-0.0001452006
220.0042,-0.0001451112
220.1042,-0.0001449869
220.2042,-0.0001448795
220.3042,-0.0001447703
220.4043,-0.0001446337
220.5043,-0.0001445235
220.6043,-0.0001444444
220.7043,-0.0001442853
220.8043,-0.0001441544
220.9043,-0.0001440743
221.0043,-0.0001439265
221.1043,-0.0001438106
221.2043,-0.0001437136
221.3043,-0.0001435724
221.4043,-0.0001434905
221.5043,-0.0001433435
221.6043,-0.000143207
221.7043,-0.0001430836
221.8043,-0.0001429838
221.9043,-0.0001428218
222.0043,-0.0001426975
222.1044,-0.0001426005
222.2044,-0.0001424809
222.3044,-0.0001423642
222.4044,-0.0001422747
222.5044,-0.0001421278
222.6044,-0.0001420666
222.7044,-0.0001419724
222.8044,-0.0001418302
222.9044,-0.0001417341
223.0044,-0.0001416757
223.1044,-0.0001415599
223.2044,-0.0001414337
223.3044,-0.0001413386
223.4044,-0.0001412472
223.5044,-0.0001411135
223.6044,-0.0001410391
223.7045,-0.0001409158
223.8045,-0.0001407896
223.9045,-0.0001406963
224.0045,-0.0001405974
224.1045,-0.0001404656
224.2045,-0.0001403733
224.3045,-0.0001402961
224.4045,-0.0001401661
224.5045,-0.0001400428
224.6045,-0.0001399288
224.7045,-0.0001397904
224.8045,-0.0001397188
224.9045,-0.0001396133
225.0045,-0.0001394711
225.1045,-0.0001393723
225.2045,-0.0001392922
225.3046,-0.000139167
225.4046,-0.0001390719
225.5046,-0.0001389315
225.6046,-0.0001388063
225.7046,-0.0001387093
225.8046,-0.0001386198
225.9046,-0.0001384635
226.0046,-0.0001383401
226.1046,-0.0001383006
226.2046,-0.0001381603
226.3046,-0.0001380077
226.4046,-0.0001379757
226.5046,-0.0001378787
226.6046,-0.0001377497
226.7046,-0.0001376611
226.8046,-0.0001375566
226.9046,-0.0001373739
227.0047,-0.0001373466
227.1047,-0.0001372345
227.2047,-0.0001371065
227.3047,-0.0001370518
227.4047,-0.0001369661
227.5047,-0.000136839
227.6047,-0.0001367486
227.7047,-0.0001366723
227.8047,-0.0001365866
227.9047,-0.000136533
228.0047,-0.0001364077
228.1047,-0.0001362947
228.2047,-0.0001362307
228.3047,-0.0001361355
228.4047,-0.0001359981
228.5047,-0.0001359519
228.6048,-0.000135854
228.7048,-0.0001357108
228.8048,-0.0001356552
228.9048,-0.0001355733
229.0048,-0.0001354387
229.1048,-0.0001353464
229.2048,-0.0001352221
229.3048,-0.0001351203
229.4048,-0.0001350271
229.5048,-0.0001348971
229.6048,-0.0001347964
229.7048,-0.0001347295
229.8048,-0.0001346231
229.9048,-0.0001344743
230.0048,-0.0001344018
230.1048,-0.0001342907
230.2048,-0.0001341466
230.3049,-0.0001340694
230.4049,-0.0001340251
230.5049,-0.0001339328
230.6049,-0.0001337859
230.7049,-0.0001336927
230.8049,-0.0001335891
230.9049,-0.0001334836
231.0049,-0.0001333706
231.1049,-0.0001332774
231.2049,-0.0001331644
231.3049,-0.0001330561
231.4049,-0.000132961
231.5049,-0.0001328536
231.6049,-0.0001327284
231.7049,-0.0001326342
231.8049,-0.0001325014
231.905,-0.0001324279
232.005,-0.0001323121
232.105,-0.0001321981
232.205,-0.0001320946
232.305,-0.0001320013
232.405,-0.000131877
232.505,-0.0001317452
232.605,-0.0001316614
232.705,-0.0001315559
232.805,-0.0001314514
232.905,-0.0001313355
233.005,-0.0001312084
233.105,-0.0001311481
233.205,-0.000131054
233.305,-0.0001309193
233.405,-0.0001308392
233.5051,-0.000130713
233.6051,-0.0001305868
233.7051,-0.0001305162
233.8051,-0.0001304221
233.9051,-0.0001302883
234.0051,-0.0001302064
234.1051,-0.0001300821
234.2051,-0.0001299484
234.3051,-0.0001298853
234.4051,-0.0001297996
234.5051,-0.0001296385
234.6051,-0.0001295641
234.7051,-0.000129469
234.8051,-0.0001293193
234.9051,-0.000129243
235.0051,-0.0001291451
235.1051,-0.0001289963
235.2052,-0.0001288964
235.3052,-0.0001288192
235.4052,-0.0001287147
235.5052,-0.0001286102
235.6052,-0.000128499
235.7052,-0.0001283841
235.8052,-0.0001282985
235.9052,-0.000128193
236.0052,-0.0001280602
236.1052,-0.0001279943
236.2052,-0.0001278935
236.3052,-0.000127789
236.4052,-0.0001277136
236.5052,-0.000127595
236.6052,-0.0001275074
236.7052,-0.0001274405
236.8053,-0.0001273407
236.9053,-0.0001272484
237.0053,-0.0001271731
237.1053,-0.0001270761
237.2053,-0.0001269584
237.3053,-0.0001268764
237.4053,-0.0001267757
237.5053,-0.000126673
237.6053,-0.0001265685
237.7053,-0.0001264583
237.8053,-0.0001263491
237.9053,-0.0001262455
238.0053,-0.0001261796
238.1053,-0.000126059
238.2053,-0.0001259629
238.3053,-0.0001258565
238.4053,-0.0001257473
238.5054,-0.000125671
238.6054,-0.0001255881
238.7054,-0.0001254893
238.8054,-0.0001253753
238.9054,-0.0001253028
239.0054,-0.0001252115
239.1054,-0.0001250815
239.2054,-0.0001249967
239.3054,-0.0001249063
239.4054,-0.0001247924
239.5054,-0.0001247105
239.6054,-0.0001246605
239.7054,-0.0001245447
239.8054,-0.0001244232
239.9054,-0.0001243498
240.0054,-0.0001242255
240.1055,-0.0001241642
240.2055,-0.0001240823
240.3055,-0.0001239684
240.4055,-0.0001238761
240.5055,-0.0001238064
240.6055,-0.0001236962
240.7055,-0.0001235719
240.8055,-0.0001234824
240.9055,-0.0001233817
241.0055,-0.0001233336
241.1055,-0.0001232122
241.2055,-0.0001231189
241.3055,-0.0001230474
241.4055,-0.0001229334
241.5055,-0.0001228308
241.6055,-0.0001227771
241.7056,-0.0001226829
241.8056,-0.0001225454
241.9056,-0.0001224748
242.0056,-0.0001224051
242.1056,-0.0001223062
242.2056,-0.0001222186
242.3056,-0.0001221
242.4056,-0.0001219992
242.5056,-0.0001219804
242.6056,-0.0001219116
242.7056,-0.0001217383
242.8056,-0.0001216253
242.9056,-0.0001215688
243.0056,-0.0001214586
243.1056,-0.000121389
243.2056,-0.0001213061
243.3056,-0.0001211742
243.4057,-0.0001211262
243.5057,-0.0001210386
243.6057,-0.0001209153
243.7057,-0.0001208559
243.8057,-0.0001207552
243.9057,-0.0001206638
244.0057,-0.0001206017
244.1057,-0.0001205292
244.2057,-0.0001204124
244.3057,-0.0001203502
244.4057,-0.000120257
244.5057,-0.0001201845
244.6057,-0.0001201487
244.7057,-0.0001200432
244.8057,-0.0001198926
244.9057,-0.0001198398
245.0058,-0.0001197861
245.1058,-0.0001196656
245.2058,-0.0001195808
245.3058,-0.0001195206
245.4058,-0.0001194207
245.5058,-0.0001193445
245.6058,-0.000119222
245.7058,-0.0001191222
245.8058,-0.0001190431
245.9058,-0.0001189602
246.0058,-0.0001188689
246.1058,-0.0001187954
246.2058,-0.000118722
246.3058,-0.0001185883
246.4058,-0.0001185186
246.5058,-0.0001184752
246.6059,-0.0001183641
246.7059,-0.0001182586
246.8059,-0.0001181965
246.9059,-0.000118107
247.0059,-0.000118011
247.1059,-0.0001179752
247.2059,-0.0001178867
247.3059,-0.0001177699
247.4059,-0.0001177087
247.5059,-0.0001176352
247.6059,-0.0001175335
247.7059,-0.0001174732
247.8059,-0.0001173885
247.9059,-0.0001172962
248.0059,-0.0001172162
248.1059,-0.0001171738
248.2059,-0.000117073
248.306,-0.0001169845
248.406,-0.0001169299
248.506,-0.0001168074
248.606,-0.0001167585
248.706,-0.0001166991
248.806,-0.0001165748
248.906,-0.0001164986
249.006,-0.0001164656
249.106,-0.0001163601
249.206,-0.0001163055
249.306,-0.0001161812
249.406,-0.0001160983
249.506,-0.0001160258
249.606,-0.0001159571
249.706,-0.0001158525
249.806,-0.0001157913
249.9061,-0.0001156915
250.0061,-0.0001156124
250.1061,-0.0001155644
250.2061,-0.0001155126
250.3061,-0.0001154165
250.4061,-0.0001153355
250.5061,-0.0001152489
250.6061,-0.0001151877
250.7061,-0.0001151302
250.8061,-0.0001150747
250.9061,-0.0001149654
251.0061,-0.0001148995
251.1061,-0.0001148355
251.2061,-0.0001147366
251.3061,-0.0001146641
251.4061,-0.0001145915
251.5061,-0.0001145153
251.6062,-0.0001144512
251.7062,-0.0001143495
251.8062,-0.0001142855
251.9062,-0.000114196
252.0062,-0.0001141132
252.1062,-0.0001140397
252.2062,-0.00011397
252.3062,-0.0001139304
252.4062,-0.0001138476
252.5062,-0.0001137553
252.6062,-0.0001137091
252.7062,-0.0001136121
252.8062,-0.0001134878
252.9062,-0.0001134351
253.0062,-0.0001133748
253.1062,-0.000113275
253.2063,-0.0001132063
253.3063,-0.0001131328
253.4063,-0.0001130612
253.5063,-0.0001130047
253.6063,-0.0001129134
253.7063,-0.0001127957
253.8063,-0.0001127844
253.9063,-0.0001126977
254.0063,-0.0001125706
254.1063,-0.0001125367
254.2063,-0.0001124613
254.3063,-0.0001123757
254.4063,-0.0001123295
254.5063,-0.0001122325
254.6063,-0.0001121242
254.7063,-0.0001120799
254.8064,-0.000112031
254.9064,-0.0001119217
255.0064,-0.0001118539
255.1064,-0.0001117729
255.2064,-0.0001116769
255.3064,-0.0001116223
255.4064,-0.0001115601
255.5064,-0.0001114631
255.6064,-0.0001114085
255.7064,-0.0001113143
255.8064,-0.0001112314
255.9064,-0.00011119
256.0064,-0.0001111354
256.1064,-0.0001110149
256.2064,-0.0001109376
256.3064,-0.0001108915
256.4064,-0.0001108227
256.5064,-0.0001107766
256.6064,-0.0001106626
256.7065,-0.0001105647
256.8065,-0.0001105063
256.9065,-0.0001104517
257.0065,-0.0001103575
257.1065,-0.0001103076
257.2065,-0.0001102464
257.3065,-0.0001101682
257.4065,-0.0001100873
257.5065,-0.0001100402
257.6065,-0.0001099384
257.7065,-0.0001099008
257.8065,-0.0001098415
257.9065,-0.0001097426
258.0065,-0.0001096682
258.1065,-0.0001095881
258.2065,-0.0001095344
258.3065,-0.0001094601
258.4066,-0.0001094035
258.5066,-0.0001093084
258.6066,-0.0001092133
258.7066,-0.0001091521
258.8066,-0.000109073
258.9066,-0.0001090353
259.0066,-0.0001089543
259.1066,-0.0001088479
259.2066,-0.0001088074
259.3066,-0.000108749
259.4066,-0.0001086605
259.5066,-0.0001085871
259.6066,-0.000108523
259.7066,-0.000108443
259.8066,-0.0001083884
259.9066,-0.0001083234
260.0067,-0.0001082113
260.1067,-0.000108168
260.2067,-0.0001081115
260.3067,-0.0001080418
260.4067,-0.0001079655
260.5067,-0.0001078798
260.6067,-0.0001078101
260.7067,-0.000107747
260.8067,-0.0001076887
260.9067,-0.0001075841
261.0067,-0.0001074852
261.1067,-0.0001074758
261.2067,-0.0001074231
261.3067,-0.0001072894
261.4067,-0.0001072112
261.5067,-0.0001071613
261.6068,-0.0001070803
261.7068,-0.000107036
261.8068,-0.0001069513
261.9068,-0.0001068449
262.0068,-0.0001068157
262.1068,-0.0001067884
262.2068,-0.0001066885
262.3068,-0.0001066075
262.4068,-0.0001065642
262.5068,-0.0001064503
262.6068,-0.0001063975
262.7068,-0.0001063354
262.8068,-0.0001062073
262.9068,-0.0001061649
263.0068,-0.0001061273
263.1068,-0.0001060246
263.2068,-0.0001059267
263.3069,-0.0001058608
263.4069,-0.0001058127
263.5069,-0.0001057609
263.6069,-0.0001056818
263.7069,-0.0001055839
263.8069,-0.0001055368
263.9069,-0.0001054568
264.0069,-0.0001053842
264.1069,-0.00010534
264.2069,-0.0001052712
264.3069,-0.0001051714
264.4069,-0.0001051158
264.5069,-0.0001050471
264.6069,-0.0001049558
264.7069,-0.0001049407
264.8069,-0.0001048569
264.907,-0.000104758
265.007,-0.0001047231
265.107,-0.000104661
265.207,-0.0001045659
265.307,-0.0001045216
265.407,-0.0001044529
265.507,-0.0001043662
265.607,-0.0001043238
265.707,-0.0001042852
265.807,-0.0001041647
265.907,-0.0001041091
266.007,-0.0001040696
266.107,-0.0001039867
266.207,-0.0001039387
266.307,-0.000103852
266.407,-0.0001037569
266.507,-0.0001036835
266.6071,-0.000103643
266.7071,-0.0001035535
266.8071,-0.0001034688
266.9071,-0.0001034245
267.0071,-0.000103351
267.1071,-0.0001033171
267.2071,-0.0001032248
267.3071,-0.0001031344
267.4071,-0.0001030987
267.5071,-0.0001030318
267.6071,-0.0001029612
267.7071,-0.0001028708
267.8071,-0.0001028039
267.9071,-0.0001027361
268.0071,-0.0001026664
268.1071,-0.0001025929
268.2072,-0.0001025336
268.3072,-0.0001024733
268.4072,-0.0001023933
268.5072,-0.0001023227
268.6072,-0.0001022558
268.7072,-0.0001022163
268.8072,-0.0001021494
268.9072,-0.0001020797
269.0072,-0.0001020015
269.1072,-0.0001019309
269.2072,-0.0001018631
269.3072,-0.0001018471
269.4072,-0.0001017454
269.5072,-0.0001017058
269.6072,-0.000101607
269.7072,-0.0001015457
269.8073,-0.0001015137
269.9073,-0.0001014516
270.0073,-0.0001013706
270.1073,-0.0001012886
270.2073,-0.0001012406
270.3073,-0.0001011841
270.4073,-0.0001011116
270.5073,-0.0001010749
270.6073,-0.0001009524
270.7073,-0.0001009054
270.8073,-0.0001009025
270.9073,-0.0001008112
271.0073,-0.0001006793
271.1073,-0.0001006765
271.2073,-0.0001006313
271.3073,-0.000100523
271.4073,-0.0001004722
271.5074,-0.0001004157
271.6074,-0.000100345
271.7074,-0.0001002866
271.8074,-0.000100249
271.9074,-0.0001001878
272.0074,-0.0001001124
272.1074,-0.0001000465
272.2074,-9.998153E-05
272.3074,-9.992785E-05
272.4074,-9.985816E-05
272.5074,-9.976493E-05
272.6074,-9.974044E-05
272.7074,-9.967264E-05
272.8074,-9.957563E-05
272.9074,-9.951914E-05
273.0074,-9.95069E-05
273.1075,-9.943155E-05
273.2075,-9.936846E-05
273.3075,-9.929877E-05
273.4075,-9.921307E-05
273.5075,-9.919612E-05
273.6075,-9.913774E-05
273.7075,-9.904167E-05
273.8075,-9.896917E-05
273.9075,-9.895975E-05
274.0075,-9.888818E-05
274.1075,-9.880531E-05
274.2075,-9.878741E-05
274.3075,-9.87309E-05
274.4075,-9.864426E-05
274.5075,-9.859623E-05
274.6075,-9.852278E-05
274.7076,-9.8487E-05
274.8076,-9.843143E-05
274.9076,-9.835139E-05
275.0076,-9.828735E-05
275.1076,-9.824027E-05
275.2076,-9.81847E-05
275.3076,-9.811595E-05
275.4076,-9.806981E-05
275.5076,-9.799259E-05
275.6076,-9.79408E-05
275.7076,-9.789276E-05
275.8076,-9.782967E-05
275.9076,-9.776281E-05
276.0076,-9.770348E-05
276.1076,-9.767617E-05
276.2076,-9.760554E-05
276.3076,-9.755939E-05
276.4077,-9.749818E-05
276.5077,-9.741625E-05
276.6077,-9.736351E-05
276.7077,-9.733243E-05
276.8077,-9.725144E-05
276.9077,-9.720342E-05
277.0077,-9.713937E-05
277.1077,-9.707535E-05
277.2077,-9.704426E-05
277.3077,-9.697646E-05
277.4077,-9.69209E-05
277.5077,-9.687287E-05
277.6077,-9.680601E-05
277.7077,-9.672973E-05
277.8077,-9.670053E-05
277.9077,-9.669677E-05
278.0078,-9.660824E-05
278.1078,-9.654138E-05
278.2078,-9.647829E-05
278.3078,-9.645474E-05
278.4078,-9.643497E-05
278.5078,-9.636811E-05
278.6078,-9.623155E-05
278.7078,-9.61854E-05
278.8078,-9.616939E-05
278.9078,-9.608181E-05
279.0078,-9.604698E-05
279.1078,-9.597446E-05
279.2078,-9.589347E-05
279.3078,-9.58784E-05
279.4078,-9.586616E-05
279.5078,-9.577764E-05
279.6078,-9.570324E-05
279.7079,-9.564956E-05
279.8079,-9.559023E-05
279.9079,-9.556198E-05
280.0079,-9.554221E-05
280.1079,-9.54405E-05
280.2079,-9.541507E-05
280.3079,-9.535009E-05
280.4079,-9.531619E-05
280.5079,-9.525403E-05
280.6079,-9.520883E-05
280.7079,-9.509959E-05
280.8079,-9.509488E-05
280.9079,-9.505438E-05
281.0079,-9.497151E-05
281.1079,-9.496775E-05
281.2079,-9.487734E-05
281.308,-9.478976E-05
281.408,-9.477281E-05
281.508,-9.471818E-05
281.608,-9.462025E-05
281.708,-9.456469E-05
281.808,-9.454585E-05
281.908,-9.446486E-05
282.008,-9.441967E-05
282.108,-9.436598E-05
282.208,-9.430382E-05
282.308,-9.424827E-05
282.408,-9.421813E-05
282.508,-9.413337E-05
282.608,-9.408817E-05
282.708,-9.40279E-05
282.808,-9.397987E-05
282.9081,-9.392807E-05
283.0081,-9.388852E-05
283.1081,-9.379718E-05
283.2081,-9.373879E-05
283.3081,-9.374067E-05
283.4081,-9.366439E-05
283.5081,-9.360695E-05
283.6081,-9.355704E-05
283.7081,-9.349111E-05
283.8081,-9.345344E-05
283.9081,-9.342143E-05
284.0081,-9.333667E-05
284.1081,-9.327734E-05
284.2081,-9.325003E-05
284.3081,-9.319353E-05
284.4081,-9.313326E-05
284.5081,-9.308616E-05
284.6082,-9.30485E-05
284.7082,-9.299953E-05
284.8082,-9.294397E-05
284.9082,-9.286957E-05
285.0082,-9.282719E-05
285.1082,-9.279706E-05
285.2082,-9.273302E-05
285.3082,-9.26379E-05
285.4082,-9.260494E-05
285.5082,-9.25701E-05
285.6082,-9.249381E-05
285.7082,-9.245521E-05
285.8082,-9.237893E-05
285.9082,-9.235727E-05
286.0082,-9.232996E-05
286.1082,-9.224709E-05
286.2083,-9.21595E-05
286.3083,-9.211901E-05
286.4083,-9.207852E-05
286.5083,-9.198246E-05
286.6083,-9.193161E-05
286.7083,-9.187133E-05
286.8083,-9.179411E-05
286.9083,-9.174985E-05
287.0083,-9.171877E-05
287.1083,-9.164721E-05
287.2083,-9.157939E-05
287.3083,-9.155679E-05
287.4083,-9.149841E-05
287.5083,-9.143814E-05
287.6083,-9.140612E-05
287.7083,-9.13449E-05
287.8083,-9.13289E-05
287.9084,-9.126109E-05
288.0084,-9.119141E-05
288.1084,-9.114526E-05
288.2084,-9.113679E-05
288.3084,-9.105109E-05
288.4084,-9.1004E-05
288.5084,-9.09861E-05
288.6084,-9.095032E-05
288.7084,-9.092301E-05
288.8084,-9.084108E-05
288.9084,-9.078364E-05
289.0084,-9.07422E-05
289.1084,-9.070923E-05
289.2084,-9.062543E-05
289.3084,-9.056892E-05
289.4084,-9.053125E-05
289.5085,-9.047004E-05
289.6085,-9.042483E-05
289.7085,-9.043238E-05
289.8085,-9.032596E-05
289.9085,-9.031277E-05
290.0085,-9.026757E-05
290.1085,-9.018846E-05
290.2085,-9.016586E-05
290.3085,-9.011124E-05
290.4085,-9.007075E-05
290.5085,-9.000011E-05
290.6085,-8.997563E-05
290.7085,-8.990782E-05
290.8085,-8.98485E-05
290.9085,-8.982025E-05
291.0085,-8.976939E-05
291.1086,-8.971759E-05
291.2086,-8.967992E-05
291.3086,-8.959611E-05
291.4086,-8.959141E-05
291.5086,-8.95349E-05
291.6086,-8.945862E-05
291.7086,-8.938611E-05
291.8086,-8.938234E-05
291.9086,-8.931547E-05
292.0086,-8.921941E-05
292.1086,-8.91987E-05
292.2086,-8.915726E-05
292.3086,-8.911489E-05
292.4086,-8.905556E-05
292.5086,-8.896986E-05
292.6086,-8.889641E-05
292.7086,-8.886815E-05
292.8087,-8.881353E-05
292.9087,-8.87448E-05
293.0087,-8.871748E-05
293.1087,-8.863649E-05
293.2087,-8.861294E-05
293.3087,-8.859034E-05
293.4087,-8.848863E-05
293.5087,-8.844626E-05
293.6087,-8.842177E-05
293.7087,-8.838975E-05
293.8087,-8.833702E-05
293.9087,-8.830688E-05
294.0087,-8.822777E-05
294.1087,-8.818258E-05
294.2087,-8.815338E-05
294.3087,-8.807993E-05
294.4088,-8.802437E-05
294.5088,-8.797351E-05
294.6088,-8.794243E-05
294.7088,-8.787464E-05
294.8088,-8.785861E-05
294.9088,-8.781718E-05
295.0088,-8.775597E-05
295.1088,-8.76957E-05
295.2088,-8.766745E-05
295.3088,-8.760623E-05
295.4088,-8.755726E-05
295.5088,-8.753184E-05
295.6088,-8.74678E-05
295.7088,-8.744331E-05
295.8088,-8.738304E-05
295.9088,-8.729735E-05
296.0089,-8.727098E-05
296.1089,-8.723237E-05
296.2089,-8.718717E-05
296.3089,-8.713631E-05
296.4089,-8.707886E-05
296.5089,-8.700729E-05
296.6089,-8.698375E-05
296.7089,-8.694231E-05
296.8089,-8.686697E-05
296.9089,-8.681047E-05
297.0089,-8.677469E-05
297.1089,-8.670123E-05
297.2089,-8.668239E-05
297.3089,-8.664755E-05
297.4089,-8.656186E-05
297.5089,-8.6511E-05
297.6089,-8.647898E-05
297.709,-8.640176E-05
297.809,-8.638292E-05
297.909,-8.63462E-05
298.009,-8.626239E-05
298.109,-8.621719E-05
298.209,-8.616821E-05
298.309,-8.612865E-05
298.409,-8.610888E-05
298.509,-8.603825E-05
298.609,-8.596291E-05
298.709,-8.591394E-05
298.809,-8.592619E-05
298.909,-8.583767E-05
299.009,-8.58E-05
299.109,-8.574161E-05
299.209,-8.568416E-05
299.3091,-8.564178E-05
299.4091,-8.558245E-05
299.5091,-8.552407E-05
299.6091,-8.545909E-05
299.7091,-8.540353E-05
299.8091,-8.535173E-05
299.9091,-8.532818E-05
300.0091,-8.529993E-05
300.1091,-8.52293E-05
300.2091,-8.516244E-05
300.3091,-8.514078E-05
300.4091,-8.511535E-05
300.5091,-8.505414E-05
300.6091,-8.501459E-05
300.7091,-8.493831E-05
300.8091,-8.491665E-05
300.9091,-8.487616E-05
301.0092,-8.481683E-05
301.1092,-8.477915E-05
301.2092,-8.469157E-05
301.3092,-8.465485E-05
301.4092,-8.461718E-05
301.5092,-8.459269E-05
301.6092,-8.452018E-05
301.7092,-8.447497E-05
301.8092,-8.442978E-05
301.9092,-8.434973E-05
302.0092,-8.432713E-05
302.1092,-8.43017E-05
302.2092,-8.423483E-05
302.3092,-8.418681E-05
302.4092,-8.412841E-05
302.5092,-8.407945E-05
302.6093,-8.403989E-05
302.7093,-8.398339E-05
302.8093,-8.392218E-05
302.9093,-8.390052E-05
303.0093,-8.385626E-05
303.1093,-8.377244E-05
303.2093,-8.373571E-05
303.3093,-8.372818E-05
303.4093,-8.365096E-05
303.5093,-8.358975E-05
303.6093,-8.354925E-05
303.7093,-8.34871E-05
303.8093,-8.346544E-05
303.9093,-8.342307E-05
304.0093,-8.335432E-05
304.1093,-8.333172E-05
304.2094,-8.327898E-05
304.3094,-8.320835E-05
304.4094,-8.319139E-05
304.5094,-8.314807E-05
304.6094,-8.303506E-05
304.7094,-8.303318E-05
304.8094,-8.301906E-05
304.9094,-8.294373E-05
305.0094,-8.288722E-05
305.1094,-8.285708E-05
305.2094,-8.27808E-05
305.3094,-8.277421E-05
305.4094,-8.274501E-05
305.5094,-8.266592E-05
305.6094,-8.262353E-05
305.7094,-8.262824E-05
305.8094,-8.256514E-05
305.9095,-8.250581E-05
306.0095,-8.246909E-05
306.1095,-8.241353E-05
306.2095,-8.238716E-05
306.3095,-8.235326E-05
306.4095,-8.229016E-05
306.5095,-8.223554E-05
306.6095,-8.221576E-05
306.7095,-8.215925E-05
306.8095,-8.210652E-05
306.9095,-8.210558E-05
307.0095,-8.202835E-05
307.1095,-8.197374E-05
307.2095,-8.193042E-05
307.3095,-8.188898E-05
307.4095,-8.185414E-05
307.5096,-8.182588E-05
307.6096,-8.17628E-05
307.7096,-8.171005E-05
307.8096,-8.168275E-05
307.9096,-8.163283E-05
308.0096,-8.158009E-05
308.1096,-8.152924E-05
308.2096,-8.150288E-05
308.3096,-8.149157E-05
308.4096,-8.143789E-05
308.5096,-8.135879E-05
308.6096,-8.131358E-05
308.7096,-8.131547E-05
308.8096,-8.125332E-05
308.9096,-8.120622E-05
309.0096,-8.11695E-05
309.1096,-8.111299E-05
309.2097,-8.108474E-05
309.3097,-8.106026E-05
309.4097,-8.09934E-05
309.5097,-8.092276E-05
309.6097,-8.094349E-05
309.7097,-8.089357E-05
309.8097,-8.080505E-05
309.9097,-8.080223E-05
310.0097,-8.078527E-05
310.1097,-8.068922E-05
310.2097,-8.06864E-05
310.3097,-8.064778E-05
310.4097,-8.057339E-05
310.5097,-8.053007E-05
310.6097,-8.052347E-05
310.7097,-8.044248E-05
310.8098,-8.041706E-05
310.9098,-8.037657E-05
311.0098,-8.0321E-05
311.1098,-8.027956E-05
311.2098,-8.02466E-05
311.3098,-8.023059E-05
311.4098,-8.019293E-05
311.5098,-8.013736E-05
311.6098,-8.00705E-05
311.7098,-8.007426E-05
311.8098,-8.003943E-05
311.9098,-7.997632E-05
312.0098,-7.993959E-05
312.1098,-7.990382E-05
312.2098,-7.986708E-05
312.3098,-7.98426E-05
312.4099,-7.980116E-05
312.5099,-7.973524E-05
312.6099,-7.970888E-05
312.7099,-7.967404E-05
312.8099,-7.96213E-05
312.9099,-7.96034E-05
313.0099,-7.954972E-05
313.1099,-7.949793E-05
313.2099,-7.948474E-05
313.3099,-7.946684E-05
313.4099,-7.941222E-05
313.5099,-7.934537E-05
313.6099,-7.931617E-05
313.7099,-7.925308E-05
313.8099,-7.926344E-05
313.9099,-7.921164E-05
314.0099,-7.91363E-05
314.11,-7.911935E-05
314.21,-7.905814E-05
314.31,-7.902141E-05
314.41,-7.902046E-05
314.51,-7.895549E-05
314.61,-7.887168E-05
314.71,-7.88519E-05
314.81,-7.88067E-05
314.91,-7.874548E-05
315.01,-7.875585E-05
315.11,-7.868803E-05
315.21,-7.862964E-05
315.31,-7.862306E-05
315.41,-7.856749E-05
315.51,-7.852418E-05
315.61,-7.848839E-05
315.7101,-7.844601E-05
315.8101,-7.839234E-05
315.9101,-7.838103E-05
316.0101,-7.838009E-05
316.1101,-7.828215E-05
316.2101,-7.823601E-05
316.3101,-7.820116E-05
316.4101,-7.816066E-05
316.5101,-7.815219E-05
316.6101,-7.808909E-05
316.7101,-7.804201E-05
316.8101,-7.802318E-05
316.9101,-7.797044E-05
317.0101,-7.791205E-05
317.1101,-7.787721E-05
317.2101,-7.78659E-05
317.3102,-7.778303E-05
317.4102,-7.776797E-05
317.5102,-7.774537E-05
317.6102,-7.768039E-05
317.7102,-7.765873E-05
317.8102,-7.761823E-05
317.9102,-7.756643E-05
318.0102,-7.754195E-05
318.1102,-7.752029E-05
318.2102,-7.745248E-05
318.3102,-7.741199E-05
318.4102,-7.738374E-05
318.5102,-7.733853E-05
318.6102,-7.734042E-05
318.7102,-7.730746E-05
318.8102,-7.722271E-05
318.9102,-7.719351E-05
319.0103,-7.717845E-05
319.1103,-7.712665E-05
319.2103,-7.709275E-05
319.3103,-7.705037E-05
319.4103,-7.699669E-05
319.5103,-7.695996E-05
319.6103,-7.694771E-05
319.7103,-7.69157E-05
319.8103,-7.687991E-05
319.9103,-7.680551E-05
320.0103,-7.67556E-05
320.1103,-7.675184E-05
320.2103,-7.672735E-05
320.3103,-7.665955E-05
320.4103,-7.663788E-05
320.5103,-7.659551E-05
320.6104,-7.653241E-05
320.7104,-7.653148E-05
320.8104,-7.651075E-05
320.9104,-7.645896E-05
321.0104,-7.640717E-05
321.1104,-7.639021E-05
321.2104,-7.632617E-05
321.3104,-7.6329E-05
321.4104,-7.631016E-05
321.5104,-7.621881E-05
321.6104,-7.618303E-05
321.7104,-7.618115E-05
321.8104,-7.615949E-05
321.9104,-7.613501E-05
322.0104,-7.606249E-05
322.1104,-7.604271E-05
322.2104,-7.600599E-05
322.3105,-7.59363E-05
322.4105,-7.589768E-05
322.5105,-7.590239E-05
322.6105,-7.584966E-05
322.7105,-7.580352E-05
322.8105,-7.580163E-05
322.9105,-7.579597E-05
323.0105,-7.566508E-05
323.1105,-7.567073E-05
323.2105,-7.567544E-05
323.3105,-7.563589E-05
323.4105,-7.558409E-05
323.5105,-7.555584E-05
323.6105,-7.550875E-05
323.7105,-7.55144E-05
323.8105,-7.546073E-05
323.9106,-7.539857E-05
324.0106,-7.540799E-05
324.1106,-7.536937E-05
324.2106,-7.531382E-05
324.3106,-7.528179E-05
324.4106,-7.524319E-05
324.5106,-7.520269E-05
324.6106,-7.517068E-05
324.7106,-7.515089E-05
324.8106,-7.510475E-05
324.9106,-7.507367E-05
325.0106,-7.505013E-05
325.1106,-7.499739E-05
325.2106,-7.498326E-05
325.3106,-7.494183E-05
325.4106,-7.490134E-05
325.5107,-7.487025E-05
325.6107,-7.484765E-05
325.7107,-7.482506E-05
325.8107,-7.477797E-05
325.9107,-7.475348E-05
326.0107,-7.469227E-05
326.1107,-7.464518E-05
326.2107,-7.465837E-05
326.3107,-7.460469E-05
326.4107,-7.455948E-05
326.5107,-7.453971E-05
326.6107,-7.451994E-05
326.7107,-7.445685E-05
326.8107,-7.445025E-05
326.9107,-7.441069E-05
327.0107,-7.434477E-05
327.1107,-7.433158E-05
327.2108,-7.430898E-05
327.3108,-7.42393E-05
327.4108,-7.424213E-05
327.5108,-7.419221E-05
327.6108,-7.411688E-05
327.7108,-7.413665E-05
327.8108,-7.409992E-05
327.9108,-7.403777E-05
328.0108,-7.401046E-05
328.1108,-7.399257E-05
328.2108,-7.392759E-05
328.3108,-7.392852E-05
328.4108,-7.389934E-05
328.5108,-7.381928E-05
328.6108,-7.378821E-05
328.7108,-7.378727E-05
328.8109,-7.373547E-05
328.9109,-7.373264E-05
329.0109,-7.36931E-05
329.1109,-7.363E-05
329.2109,-7.360645E-05
329.3109,-7.358103E-05
329.4109,-7.35283E-05
329.5109,-7.346708E-05
329.6109,-7.350945E-05
329.7109,-7.342847E-05
329.8109,-7.33729E-05
329.9109,-7.335312E-05
330.0109,-7.332865E-05
330.1109,-7.328344E-05
330.2109,-7.326837E-05
330.3109,-7.320716E-05
330.4109,-7.316384E-05
330.511,-7.316196E-05
330.611,-7.312994E-05
330.711,-7.309697E-05
330.811,-7.303953E-05
330.911,-7.300845E-05
331.011,-7.299904E-05
331.111,-7.30094E-05
331.211,-7.291805E-05
331.311,-7.289451E-05
331.411,-7.287096E-05
331.511,-7.282105E-05
331.611,-7.278997E-05
331.711,-7.275513E-05
331.811,-7.270239E-05
331.911,-7.266284E-05
332.011,-7.266378E-05
332.1111,-7.262894E-05
332.2111,-7.257055E-05
332.3111,-7.253665E-05
332.4111,-7.25357E-05
332.5111,-7.245661E-05
332.6111,-7.243118E-05
332.7111,-7.241422E-05
332.8111,-7.241422E-05
332.9111,-7.237373E-05
333.0111,-7.232758E-05
333.1111,-7.227955E-05
333.2111,-7.226544E-05
333.3111,-7.224283E-05
333.4111,-7.220986E-05
333.5111,-7.218162E-05
333.6111,-7.213924E-05
333.7112,-7.210345E-05
333.8112,-7.209686E-05
333.9112,-7.206391E-05
334.0112,-7.200928E-05
334.1112,-7.20234E-05
334.2112,-7.200362E-05
334.3112,-7.194335E-05
334.4112,-7.194335E-05
334.5112,-7.18699E-05
334.6112,-7.184166E-05
334.7112,-7.183223E-05
334.8112,-7.179645E-05
334.9112,-7.174465E-05
335.0112,-7.173806E-05
335.1112,-7.171545E-05
335.2112,-7.167968E-05
335.3112,-7.164389E-05
335.4113,-7.16486E-05
335.5113,-7.159868E-05
335.6113,-7.157138E-05
335.7113,-7.152052E-05
335.8113,-7.149226E-05
335.9113,-7.149321E-05
336.0113,-7.14499E-05
336.1113,-7.138773E-05
336.2113,-7.139245E-05
336.3113,-7.138962E-05
336.4113,-7.132653E-05
336.5113,-7.130016E-05
336.6113,-7.12559E-05
336.7113,-7.124082E-05
336.8113,-7.120505E-05
336.9113,-7.119375E-05
337.0114,-7.111275E-05
337.1114,-7.108356E-05
337.2114,-7.111746E-05
337.3114,-7.10958E-05
337.4114,-7.101952E-05
337.5114,-7.100257E-05
337.6114,-7.097808E-05
337.7114,-7.093287E-05
337.8114,-7.090557E-05
337.9114,-7.087355E-05
338.0114,-7.082835E-05
338.1114,-7.080386E-05
338.2114,-7.076431E-05
338.3114,-7.076619E-05
338.4114,-7.072758E-05
338.5114,-7.070686E-05
338.6115,-7.063529E-05
338.7115,-7.065883E-05
338.8115,-7.062964E-05
338.9115,-7.055713E-05
339.0115,-7.054488E-05
339.1115,-7.053358E-05
339.2115,-7.046106E-05
339.3115,-7.04413E-05
339.4115,-7.041116E-05
339.5115,-7.040551E-05
339.6115,-7.040457E-05
339.7115,-7.037631E-05
339.8115,-7.029816E-05
339.9115,-7.028967E-05
340.0115,-7.027461E-05
340.1115,-7.020303E-05
340.2115,-7.017949E-05
340.3116,-7.015218E-05
340.4116,-7.014276E-05
340.5116,-7.011828E-05
340.6116,-7.007214E-05
340.7116,-7.002223E-05
340.8116,-7.001469E-05
340.9116,-7.000715E-05
341.0116,-6.994406E-05
341.1116,-6.991016E-05
341.2116,-6.991298E-05
341.3116,-6.983105E-05
341.4116,-6.984801E-05
341.5116,-6.983765E-05
341.6116,-6.977832E-05
341.7116,-6.972747E-05
341.8116,-6.972557E-05
341.9117,-6.970487E-05
342.0117,-6.968132E-05
342.1117,-6.965212E-05
342.2117,-6.957585E-05
342.3117,-6.958997E-05
342.4117,-6.95749E-05
342.5117,-6.953534E-05
342.6117,-6.952123E-05
342.7117,-6.947413E-05
342.8117,-6.944023E-05
342.9117,-6.944871E-05
343.0117,-6.941293E-05
343.1117,-6.936018E-05
343.2117,-6.933288E-05
343.3117,-6.931781E-05
343.4117,-6.928014E-05
343.5117,-6.926413E-05
343.6118,-6.92679E-05
343.7118,-6.920387E-05
343.8118,-6.917749E-05
343.9118,-6.916807E-05
344.0118,-6.912005E-05
344.1118,-6.910968E-05
344.2118,-6.90852E-05
344.3118,-6.903152E-05
344.4118,-6.901551E-05
344.5118,-6.900798E-05
344.6118,-6.896465E-05
344.7118,-6.895242E-05
344.8118,-6.891193E-05
344.9118,-6.885731E-05
345.0118,-6.88978E-05
345.1118,-6.883658E-05
345.2119,-6.87895E-05
345.3119,-6.879515E-05
345.4119,-6.877726E-05
345.5119,-6.87038E-05
345.6119,-6.869155E-05
345.7119,-6.870192E-05
345.8119,-6.865107E-05
345.9119,-6.862846E-05
346.0119,-6.859079E-05
346.1119,-6.855407E-05
346.2119,-6.852958E-05
346.3119,-6.849379E-05
346.4119,-6.845519E-05
346.5119,-6.846365E-05
346.6119,-6.846178E-05
346.7119,-6.837043E-05
346.812,-6.833841E-05
346.912,-6.834877E-05
347.012,-6.833371E-05
347.112,-6.827343E-05
347.212,-6.8232E-05
347.312,-6.822352E-05
347.412,-6.81962E-05
347.512,-6.816984E-05
347.612,-6.813405E-05
347.712,-6.807189E-05
347.812,-6.811428E-05
347.912,-6.806343E-05
348.012,-6.800881E-05
348.112,-6.79928E-05
348.212,-6.796549E-05
348.312,-6.792405E-05
348.412,-6.79344E-05
348.5121,-6.78779E-05
348.6121,-6.781668E-05
348.7121,-6.781858E-05
348.8121,-6.778843E-05
348.9121,-6.774982E-05
349.0121,-6.770462E-05
349.1121,-6.769239E-05
349.2121,-6.762269E-05
349.3121,-6.765848E-05
349.4121,-6.760763E-05
349.5121,-6.755113E-05
349.6121,-6.754924E-05
349.7121,-6.750027E-05
349.8121,-6.747201E-05
349.9121,-6.744753E-05
350.0121,-6.742305E-05
350.1122,-6.740044E-05
350.2122,-6.735524E-05
350.3122,-6.732605E-05
350.4122,-6.726389E-05
350.5122,-6.728084E-05
350.6122,-6.724977E-05
350.7122,-6.719986E-05
350.8122,-6.717726E-05
350.9122,-6.714711E-05
351.0122,-6.711321E-05
351.1122,-6.710756E-05
351.2122,-6.706142E-05
351.3122,-6.701152E-05
351.4122,-6.698232E-05
351.5122,-6.696725E-05
351.6122,-6.691545E-05
351.7122,-6.693523E-05
351.8123,-6.688249E-05
351.9123,-6.682975E-05
352.0123,-6.682787E-05
352.1123,-6.678926E-05
352.2123,-6.675818E-05
352.3123,-6.673559E-05
352.4123,-6.670546E-05
352.5123,-6.664612E-05
352.6123,-6.661975E-05
352.7123,-6.662351E-05
352.8123,-6.656984E-05
352.9123,-6.654724E-05
353.0123,-6.64992E-05
353.1123,-6.646718E-05
353.2123,-6.646437E-05
353.3123,-6.645118E-05
353.4124,-6.640598E-05
353.5124,-6.636643E-05
353.6124,-6.63457E-05
353.7124,-6.630144E-05
353.8124,-6.630238E-05
353.9124,-6.627695E-05
354.0124,-6.621762E-05
354.1124,-6.619692E-05
354.2124,-6.618656E-05
354.3124,-6.616207E-05
354.4124,-6.614136E-05
354.5124,-6.610274E-05
354.6124,-6.604435E-05
354.7124,-6.602929E-05
354.8124,-6.60208E-05
354.9124,-6.596996E-05
355.0125,-6.596242E-05
355.1125,-6.591534E-05
355.2125,-6.588708E-05
355.3125,-6.586448E-05
355.4125,-6.583341E-05
355.5125,-6.579197E-05
355.6125,-6.577691E-05
355.7125,-6.577314E-05
355.8125,-6.570062E-05
355.9125,-6.568461E-05
356.0125,-6.565164E-05
356.1125,-6.56168E-05
356.2125,-6.560927E-05
356.3125,-6.557537E-05
356.4125,-6.552452E-05
356.5125,-6.551133E-05
356.6125,-6.546613E-05
356.7126,-6.545106E-05
356.8126,-6.543788E-05
356.9126,-6.538702E-05
357.0126,-6.535218E-05
357.1126,-6.533617E-05
357.2126,-6.52919E-05
357.3126,-6.526648E-05
357.4126,-6.524765E-05
357.5126,-6.520998E-05
357.6126,-6.515535E-05
357.7126,-6.517984E-05
357.8126,-6.513841E-05
357.9126,-6.507437E-05
358.0126,-6.50546E-05
358.1126,-6.502635E-05
358.2126,-6.501881E-05
358.3127,-6.499244E-05
358.4127,-6.4935E-05
358.5127,-6.494535E-05
358.6127,-6.490863E-05
358.7127,-6.488414E-05
358.8127,-6.484458E-05
358.9127,-6.483422E-05
359.0127,-6.480033E-05
359.1127,-6.472969E-05
359.2127,-6.474571E-05
359.3127,-6.474947E-05
359.4127,-6.471181E-05
359.5127,-6.464023E-05
359.6127,-6.465153E-05
359.7127,-6.460915E-05
359.8127,-6.459597E-05
359.9128,-6.454794E-05
360.0128,-6.45131E-05
360.1128,-6.446036E-05
360.2128,-6.447072E-05
360.3128,-6.444152E-05
360.4128,-6.440386E-05
360.5128,-6.436807E-05
360.6128,-6.433605E-05
360.7128,-6.428426E-05
360.8128,-6.431345E-05
360.9128,-6.425883E-05
361.0128,-6.422587E-05
361.1128,-6.41995E-05
361.2128,-6.416654E-05
361.3128,-6.41543E-05
361.4128,-6.414865E-05
361.5128,-6.410156E-05
361.6129,-6.406577E-05
361.7129,-6.403847E-05
361.8129,-6.403376E-05
361.9129,-6.399797E-05
362.0129,-6.397348E-05
362.1129,-6.395842E-05
362.2129,-6.388684E-05
362.3129,-6.390662E-05
362.4129,-6.387931E-05
362.5129,-6.382939E-05
362.6129,-6.380679E-05
362.7129,-6.378232E-05
362.8129,-6.377854E-05
362.9129,-6.376066E-05
363.0129,-6.370227E-05
363.1129,-6.367307E-05
363.213,-6.370886E-05
363.313,-6.369285E-05
363.413,-6.361469E-05
363.513,-6.359303E-05
363.613,-6.361375E-05
363.713,-6.356195E-05
363.813,-6.35384E-05
363.913,-6.351674E-05
364.013,-6.350074E-05
364.113,-6.349979E-05
364.213,-6.345366E-05
364.313,-6.342351E-05
364.413,-6.340374E-05
364.513,-6.339903E-05
364.613,-6.334535E-05
364.713,-6.331239E-05
364.813,-6.332275E-05
364.9131,-6.32493E-05
365.0131,-6.322764E-05
365.1131,-6.321917E-05
365.2131,-6.318337E-05
365.3131,-6.317301E-05
365.4131,-6.312027E-05
365.5131,-6.308355E-05
365.6131,-6.307507E-05
365.7131,-6.307319E-05
365.8131,-6.303364E-05
365.9131,-6.301763E-05
366.0131,-6.298843E-05
366.1131,-6.297525E-05
366.2131,-6.296583E-05
366.3131,-6.294229E-05
366.4131,-6.28905E-05
366.5132,-6.287354E-05
366.6132,-6.285471E-05
366.7132,-6.28095E-05
366.8132,-6.281045E-05
366.9132,-6.279726E-05
367.0132,-6.2753E-05
367.1132,-6.274264E-05
367.2132,-6.272757E-05
367.3132,-6.27078E-05
367.4132,-6.266542E-05
367.5132,-6.263152E-05
367.6132,-6.261269E-05
367.7132,-6.259856E-05
367.8132,-6.258631E-05
367.9132,-6.254394E-05
368.0132,-6.251663E-05
368.1133,-6.250814E-05
368.2133,-6.247331E-05
368.3133,-6.246954E-05
368.4133,-6.243187E-05
368.5133,-6.239703E-05
368.6133,-6.24008E-05
368.7133,-6.236407E-05
368.8133,-6.232828E-05
368.9133,-6.233488E-05
369.0133,-6.231981E-05
369.1133,-6.226142E-05
369.2133,-6.221621E-05
369.3133,-6.225859E-05
369.4133,-6.22115E-05
369.5133,-6.217761E-05
369.6133,-6.215971E-05
369.7133,-6.214276E-05
369.8134,-6.212015E-05
369.9134,-6.209849E-05
370.0134,-6.207496E-05
370.1134,-6.201657E-05
370.2134,-6.204764E-05
370.3134,-6.204764E-05
370.4134,-6.19789E-05
370.5134,-6.195818E-05
370.6134,-6.192993E-05
370.7134,-6.189414E-05
370.8134,-6.192616E-05
370.9134,-6.189037E-05
371.0134,-6.182351E-05
371.1134,-6.184517E-05
371.2134,-6.183293E-05
371.3134,-6.17849E-05
371.4135,-6.174535E-05
371.5135,-6.171804E-05
371.6135,-6.168507E-05
371.7135,-6.171427E-05
371.8135,-6.167943E-05
371.9135,-6.16201E-05
372.0135,-6.161633E-05
372.1135,-6.162198E-05
372.2135,-6.159467E-05
372.3135,-6.158902E-05
372.4135,-6.150897E-05
372.5135,-6.152498E-05
372.6135,-6.149767E-05
372.7135,-6.146095E-05
372.8135,-6.143458E-05
372.9135,-6.141762E-05
373.0135,-6.140538E-05
373.1136,-6.135359E-05
373.2136,-6.137619E-05
373.3136,-6.13517E-05
373.4136,-6.12726E-05
373.5136,-6.126224E-05
373.6136,-6.128767E-05
373.7136,-6.126506E-05
373.8136,-6.125E-05
373.9136,-6.122646E-05
374.0136,-6.119161E-05
374.1136,-6.11643E-05
374.2136,-6.119161E-05
374.3136,-6.113511E-05
374.4136,-6.112286E-05
374.5136,-6.110591E-05
374.6136,-6.105977E-05
374.7137,-6.107013E-05
374.8137,-6.104188E-05
374.9137,-6.100138E-05
375.0137,-6.100514E-05
375.1137,-6.098349E-05
375.2137,-6.092039E-05
375.3137,-6.089967E-05
375.4137,-6.091003E-05
375.5137,-6.089967E-05
375.6137,-6.084505E-05
375.7137,-6.084411E-05
375.8137,-6.084505E-05
375.9137,-6.080927E-05
376.0137,-6.075747E-05
376.1137,-6.076877E-05
376.2137,-6.074711E-05
376.3138,-6.074523E-05
376.4138,-6.071133E-05
376.5138,-6.065482E-05
376.6138,-6.065765E-05
376.7138,-6.066047E-05
376.8138,-6.059643E-05
376.9138,-6.058702E-05
377.0138,-6.05663E-05
377.1138,-6.055217E-05
377.2138,-6.055029E-05
377.3138,-6.052392E-05
377.4138,-6.045141E-05
377.5138,-6.046083E-05
377.6138,-6.046742E-05
377.7138,-6.04241E-05
377.8138,-6.042692E-05
377.9138,-6.039773E-05
378.0139,-6.033369E-05
378.1139,-6.035629E-05
378.2139,-6.035535E-05
378.3139,-6.030356E-05
378.4139,-6.029885E-05
378.5139,-6.026495E-05
378.6139,-6.022163E-05
378.7139,-6.022445E-05
378.8139,-6.02301E-05
378.9139,-6.017454E-05
379.0139,-6.0151E-05
379.1139,-6.014629E-05
379.2139,-6.010485E-05
379.3139,-6.00992E-05
379.4139,-6.009638E-05
379.5139,-6.00427E-05
379.614,-6.002575E-05
379.714,-6.001915E-05
379.814,-6.001068E-05
379.914,-6.000408E-05
380.014,-5.996359E-05
380.114,-5.991462E-05
380.214,-5.990897E-05
380.314,-5.991745E-05
380.414,-5.987695E-05
380.514,-5.986E-05
380.614,-5.985058E-05
380.714,-5.978749E-05
380.814,-5.979784E-05
380.914,-5.980727E-05
381.014,-5.973946E-05
381.114,-5.970085E-05
381.2141,-5.971403E-05
381.3141,-5.96952E-05
381.4141,-5.968578E-05
381.5141,-5.966412E-05
381.6141,-5.963304E-05
381.7141,-5.959914E-05
381.8141,-5.961986E-05
381.9141,-5.9569E-05
382.0141,-5.957843E-05
382.1141,-5.955488E-05
382.2141,-5.951533E-05
382.3141,-5.950968E-05
382.4141,-5.950308E-05
382.5141,-5.948519E-05
382.6141,-5.944658E-05
382.7141,-5.943905E-05
382.8141,-5.937689E-05
382.9142,-5.936936E-05
383.0142,-5.940232E-05
383.1142,-5.933263E-05
383.2142,-5.93025E-05
383.3142,-5.929779E-05
383.4142,-5.929497E-05
383.5142,-5.926482E-05
383.6142,-5.925918E-05
383.7142,-5.920173E-05
383.8142,-5.921303E-05
383.9142,-5.920079E-05
384.0142,-5.916594E-05
384.1142,-5.913958E-05
384.2142,-5.910473E-05
384.3142,-5.910662E-05
384.4142,-5.908778E-05
384.5143,-5.907554E-05
384.6143,-5.901339E-05
384.7143,-5.901621E-05
384.8143,-5.902562E-05
384.9143,-5.897383E-05
385.0143,-5.893805E-05
385.1143,-5.897007E-05
385.2143,-5.896253E-05
385.3143,-5.893616E-05
385.4143,-5.889567E-05
385.5143,-5.88919E-05
385.6143,-5.883163E-05
385.7143,-5.880997E-05
385.8143,-5.881185E-05
385.9143,-5.877419E-05
386.0143,-5.874594E-05
386.1143,-5.871015E-05
386.2144,-5.871957E-05
386.3144,-5.871862E-05
386.4144,-5.867342E-05
386.5144,-5.86527E-05
386.6144,-5.862633E-05
386.7144,-5.861409E-05
386.8144,-5.858961E-05
386.9144,-5.860091E-05
387.0144,-5.855288E-05
387.1144,-5.853687E-05
387.2144,-5.85397E-05
387.3144,-5.850202E-05
387.4144,-5.849826E-05
387.5144,-5.846718E-05
387.6144,-5.844458E-05
387.7144,-5.845588E-05
387.8145,-5.843139E-05
387.9145,-5.840126E-05
388.0145,-5.838808E-05
388.1145,-5.837678E-05
388.2145,-5.836077E-05
388.3145,-5.832027E-05
388.4145,-5.832121E-05
388.5145,-5.832875E-05
388.6145,-5.830049E-05
388.7145,-5.827224E-05
388.8145,-5.824493E-05
388.9145,-5.822421E-05
389.0145,-5.825435E-05
389.1145,-5.821197E-05
389.2145,-5.817995E-05
389.3145,-5.816583E-05
389.4146,-5.815547E-05
389.5146,-5.813286E-05
389.6146,-5.811686E-05
389.7146,-5.809802E-05
389.8146,-5.806789E-05
389.9146,-5.8066E-05
390.0146,-5.804246E-05
390.1146,-5.800668E-05
390.2146,-5.801138E-05
390.3146,-5.799161E-05
390.4146,-5.796524E-05
390.5146,-5.794546E-05
390.6146,-5.794264E-05
390.7146,-5.791627E-05
390.8146,-5.791156E-05
390.9146,-5.791532E-05
391.0146,-5.785694E-05
391.1147,-5.784563E-05
391.2147,-5.78607E-05
391.3147,-5.78155E-05
391.4147,-5.78221E-05
391.5147,-5.77769E-05
391.6147,-5.776936E-05
391.7147,-5.775806E-05
391.8147,-5.775147E-05
391.9147,-5.774299E-05
392.0147,-5.769779E-05
392.1147,-5.768178E-05
392.2147,-5.766859E-05
392.3147,-5.766671E-05
392.4147,-5.763846E-05
392.5147,-5.762904E-05
392.6147,-5.759608E-05
392.7148,-5.755841E-05
392.8148,-5.756971E-05
392.9148,-5.756029E-05
393.0148,-5.752734E-05
393.1148,-5.751227E-05
393.2148,-5.748778E-05
393.3148,-5.745953E-05
393.4148,-5.747177E-05
393.5148,-5.747459E-05
393.6148,-5.741433E-05
393.7148,-5.73889E-05
393.8148,-5.739267E-05
393.9148,-5.735217E-05
394.0148,-5.734652E-05
394.1148,-5.734841E-05
394.2148,-5.731827E-05
394.3148,-5.730226E-05
394.4149,-5.727401E-05
394.5149,-5.724764E-05
394.6149,-5.726365E-05
394.7149,-5.725141E-05
394.8149,-5.718737E-05
394.9149,-5.718831E-05
395.0149,-5.719114E-05
395.1149,-5.715252E-05
395.2149,-5.715723E-05
395.3149,-5.714876E-05
395.4149,-5.708378E-05
395.5149,-5.710449E-05
395.6149,-5.712051E-05
395.7149,-5.705741E-05
395.8149,-5.702916E-05
395.9149,-5.703104E-05
396.015,-5.701974E-05
396.115,-5.700938E-05
396.215,-5.699808E-05
396.315,-5.695382E-05
396.415,-5.694817E-05
396.515,-5.693969E-05
396.615,-5.693969E-05
396.715,-5.690768E-05
396.815,-5.689072E-05
396.915,-5.685023E-05
397.015,-5.683705E-05
397.115,-5.683799E-05
397.215,-5.68248E-05
397.315,-5.680314E-05
397.415,-5.679373E-05
397.515,-5.674381E-05
397.6151,-5.674005E-05
397.7151,-5.674099E-05
397.8151,-5.67165E-05
397.9151,-5.670614E-05
398.0151,-5.66826E-05
398.1151,-5.662798E-05
398.2151,-5.66487E-05
398.3151,-5.665811E-05
398.4151,-5.661292E-05
398.5151,-5.659125E-05
398.6151,-5.656677E-05
398.7151,-5.65404E-05
398.8151,-5.656394E-05
398.9151,-5.655735E-05
399.0151,-5.651026E-05
399.1151,-5.649802E-05
399.2151,-5.64726E-05
399.3152,-5.64434E-05
399.4152,-5.646506E-05
399.5152,-5.645282E-05
399.6152,-5.641138E-05
399.7152,-5.638501E-05
399.8152,-5.636995E-05
399.9152,-5.635676E-05
400.0152,-5.633698E-05
400.1152,-5.637371E-05
400.2152,-5.632945E-05
400.3152,-5.629837E-05
400.4152,-5.628048E-05
400.5152,-5.623905E-05
400.6152,-5.626353E-05
400.7152,-5.623528E-05
400.8152,-5.61816E-05
400.9153,-5.619478E-05
401.0153,-5.617501E-05
401.1153,-5.618254E-05
401.2153,-5.613734E-05
401.3153,-5.611662E-05
401.4153,-5.607989E-05
401.5153,-5.610061E-05
401.6153,-5.610343E-05
401.7153,-5.605446E-05
401.8153,-5.604693E-05
401.9153,-5.601774E-05
402.0153,-5.604411E-05
402.1153,-5.602056E-05
402.2153,-5.59876E-05
402.3153,-5.593392E-05
402.4153,-5.59311E-05
402.5154,-5.593675E-05
402.6154,-5.590096E-05
402.7154,-5.588966E-05
402.8154,-5.586989E-05
402.9154,-5.585011E-05
403.0154,-5.583598E-05
403.1154,-5.583222E-05
403.2154,-5.579549E-05
403.3154,-5.577948E-05
403.4154,-5.579455E-05
403.5154,-5.576347E-05
403.6154,-5.574181E-05
403.7154,-5.572674E-05
403.8154,-5.56966E-05
403.9154,-5.569755E-05
404.0154,-5.568437E-05
404.1154,-5.565517E-05
404.2155,-5.564858E-05
404.3155,-5.564575E-05
404.4155,-5.560714E-05
404.5155,-5.560714E-05
404.6155,-5.561091E-05
404.7155,-5.556194E-05
404.8155,-5.553934E-05
404.9155,-5.553557E-05
405.0155,-5.550544E-05
405.1155,-5.550826E-05
405.2155,-5.55205E-05
405.3155,-5.546588E-05
405.4155,-5.543951E-05
405.5155,-5.544046E-05
405.6155,-5.545082E-05
405.7155,-5.543293E-05
405.8156,-5.539714E-05
405.9156,-5.536135E-05
406.0156,-5.535852E-05
406.1156,-5.534817E-05
406.2156,-5.530673E-05
406.3156,-5.531615E-05
406.4156,-5.527942E-05
406.5156,-5.52653E-05
406.6156,-5.526059E-05
406.7156,-5.527188E-05
406.8156,-5.522386E-05
406.9156,-5.519937E-05
407.0156,-5.520502E-05
407.1156,-5.515229E-05
407.2156,-5.517489E-05
407.3156,-5.51683E-05
407.4156,-5.512215E-05
407.5157,-5.511274E-05
407.6157,-5.512121E-05
407.7157,-5.508542E-05
407.8157,-5.507789E-05
407.9157,-5.509296E-05
408.0157,-5.502986E-05
408.1157,-5.50148E-05
408.2157,-5.501573E-05
408.3157,-5.499973E-05
408.4157,-5.499973E-05
408.5157,-5.497712E-05
408.6157,-5.493098E-05
408.7157,-5.495923E-05
408.8157,-5.494981E-05
408.9157,-5.492439E-05
409.0157,-5.490085E-05
409.1158,-5.488484E-05
409.2158,-5.486223E-05
409.3158,-5.486977E-05
409.4158,-5.482268E-05
409.5158,-5.480102E-05
409.6158,-5.480196E-05
409.7158,-5.480102E-05
409.8158,-5.476806E-05
409.9158,-5.475017E-05
410.0158,-5.473416E-05
410.1158,-5.471721E-05
410.2158,-5.473322E-05
410.3158,-5.47125E-05
410.4158,-5.467389E-05
410.5158,-5.465694E-05
410.6158,-5.465694E-05
410.7159,-5.462963E-05
410.8159,-5.463528E-05
410.9159,-5.461268E-05
411.0159,-5.45637E-05
411.1159,-5.459196E-05
411.2159,-5.45863E-05
411.3159,-5.455052E-05
411.4159,-5.453922E-05
411.5159,-5.451945E-05
411.6159,-5.450061E-05
411.7159,-5.448836E-05
411.8159,-5.450061E-05
411.9159,-5.447047E-05
412.0159,-5.444034E-05
412.1159,-5.443186E-05
412.2159,-5.440173E-05
412.3159,-5.44215E-05
412.416,-5.439984E-05
412.516,-5.439043E-05
412.616,-5.435841E-05
412.716,-5.433298E-05
412.816,-5.433486E-05
412.916,-5.431227E-05
413.016,-5.431415E-05
413.116,-5.429908E-05
413.216,-5.425953E-05
413.316,-5.423975E-05
413.416,-5.426989E-05
413.516,-5.42454E-05
413.616,-5.421056E-05
413.716,-5.418419E-05
413.816,-5.416535E-05
413.916,-5.416159E-05
414.0161,-5.416912E-05
414.1161,-5.41371E-05
414.2161,-5.409943E-05
414.3161,-5.409378E-05
414.4161,-5.409378E-05
414.5161,-5.407589E-05
414.6161,-5.407777E-05
414.7161,-5.403163E-05
414.8161,-5.400149E-05
414.9161,-5.401374E-05
415.0161,-5.402315E-05
415.1161,-5.398171E-05
415.2161,-5.393651E-05
415.3161,-5.396759E-05
415.4161,-5.394405E-05
415.5161,-5.389602E-05
415.6161,-5.394781E-05
415.7162,-5.389978E-05
415.8162,-5.387059E-05
415.9162,-5.386776E-05
416.0162,-5.383293E-05
416.1162,-5.381974E-05
416.2162,-5.382256E-05
416.3162,-5.381691E-05
416.4162,-5.379714E-05
416.5162,-5.375758E-05
416.6162,-5.3767E-05
416.7162,-5.372368E-05
416.8162,-5.374817E-05
416.9162,-5.373027E-05
417.0162,-5.369543E-05
417.1162,-5.369166E-05
417.2162,-5.364928E-05
417.3163,-5.36361E-05
417.4163,-5.36766E-05
417.5163,-5.367094E-05
417.6163,-5.359937E-05
417.7163,-5.360031E-05
417.8163,-5.358336E-05
417.9163,-5.354946E-05
418.0163,-5.359278E-05
418.1163,-5.354852E-05
418.2163,-5.349861E-05
418.3163,-5.352403E-05
418.4163,-5.350897E-05
418.5163,-5.348165E-05
418.6163,-5.347789E-05
418.7163,-5.343928E-05
418.8163,-5.339878E-05
418.9164,-5.340914E-05
419.0164,-5.341008E-05
419.1164,-5.337053E-05
419.2164,-5.336394E-05
419.3164,-5.338089E-05
419.4164,-5.332533E-05
419.5164,-5.332721E-05
419.6164,-5.330178E-05
419.7164,-5.327447E-05
419.8164,-5.332721E-05
419.9164,-5.331685E-05
420.0164,-5.326882E-05
420.1164,-5.325658E-05
420.2164,-5.326223E-05
420.3164,-5.325093E-05
420.4164,-5.321609E-05
420.5164,-5.32368E-05
420.6165,-5.319254E-05
420.7165,-5.318501E-05
420.8165,-5.318784E-05
420.9165,-5.314263E-05
421.0165,-5.315299E-05
421.1165,-5.314358E-05
421.2165,-5.314169E-05
421.3165,-5.312097E-05
421.4165,-5.308707E-05
421.5165,-5.30833E-05
421.6165,-5.309272E-05
421.7165,-5.306165E-05
421.8165,-5.304093E-05
421.9165,-5.303716E-05
422.0165,-5.303528E-05
422.1165,-5.300608E-05
422.2166,-5.302115E-05
422.3166,-5.300985E-05
422.4166,-5.295334E-05
422.5166,-5.295334E-05
422.6166,-5.29863E-05
422.7166,-5.29298E-05
422.8166,-5.294581E-05
422.9166,-5.294204E-05
423.0166,-5.290532E-05
423.1166,-5.29185E-05
423.2166,-5.292604E-05
423.3166,-5.287895E-05
423.4166,-5.288366E-05
423.5166,-5.287423E-05
423.6166,-5.285258E-05
423.7166,-5.282904E-05
423.8167,-5.28507E-05
423.9167,-5.282244E-05
424.0167,-5.281773E-05
424.1167,-5.280926E-05
424.2167,-5.278101E-05
424.3167,-5.279513E-05
424.4167,-5.279042E-05
424.5167,-5.273769E-05
424.6167,-5.275746E-05
424.7167,-5.277818E-05
424.8167,-5.274334E-05
424.9167,-5.27245E-05
425.0167,-5.273863E-05
425.1167,-5.269437E-05
425.2167,-5.269908E-05
425.3167,-5.271791E-05
425.4167,-5.266235E-05
425.5168,-5.266989E-05
425.6168,-5.267082E-05
425.7168,-5.263033E-05
425.8168,-5.263504E-05
425.9168,-5.263033E-05
426.0168,-5.261244E-05
426.1168,-5.261244E-05
426.2168,-5.26002E-05
426.3168,-5.257759E-05
426.4168,-5.255593E-05
426.5168,-5.256347E-05
426.6168,-5.255122E-05
426.7168,-5.255499E-05
426.8168,-5.254934E-05
426.9168,-5.248624E-05
427.0168,-5.250414E-05
427.1169,-5.251167E-05
427.2169,-5.250226E-05
427.3169,-5.249189E-05
427.4169,-5.248719E-05
427.5169,-5.2458E-05
427.6169,-5.246365E-05
427.7169,-5.246553E-05
427.8169,-5.24288E-05
427.9169,-5.238924E-05
428.0169,-5.239678E-05
428.1169,-5.243822E-05
428.2169,-5.242503E-05
428.3169,-5.240149E-05
428.4169,-5.238171E-05
428.5169,-5.236288E-05
428.6169,-5.237418E-05
428.7169,-5.234593E-05
428.817,-5.229507E-05
428.917,-5.233651E-05
429.017,-5.236288E-05
429.117,-5.22979E-05
429.217,-5.231956E-05
429.317,-5.232992E-05
429.417,-5.227342E-05
429.517,-5.22866E-05
429.617,-5.228E-05
429.717,-5.224328E-05
429.817,-5.22574E-05
429.917,-5.223669E-05
430.017,-5.221126E-05
430.117,-5.218583E-05
430.217,-5.221974E-05
430.317,-5.218018E-05
430.4171,-5.216135E-05
430.5171,-5.216417E-05
430.6171,-5.214345E-05
430.7171,-5.217642E-05
430.8171,-5.216041E-05
430.9171,-5.213874E-05
431.0171,-5.214534E-05
431.1171,-5.213686E-05
431.2171,-5.209543E-05
431.3171,-5.211049E-05
431.4171,-5.20813E-05
431.5171,-5.204081E-05
431.6171,-5.209448E-05
431.7171,-5.207E-05
431.8171,-5.204175E-05
431.9171,-5.203987E-05
432.0172,-5.203516E-05
432.1172,-5.202103E-05
432.2172,-5.201538E-05
432.3172,-5.202385E-05
432.4172,-5.201067E-05
432.5172,-5.198712E-05
432.6172,-5.199278E-05
432.7172,-5.197866E-05
432.8172,-5.198901E-05
432.9172,-5.195605E-05
433.0172,-5.191932E-05
433.1172,-5.193722E-05
433.2172,-5.194569E-05
433.3172,-5.191273E-05
433.4172,-5.189861E-05
433.5172,-5.190331E-05
433.6172,-5.187318E-05
433.7173,-5.187789E-05
433.8173,-5.187318E-05
433.9173,-5.182044E-05
434.0173,-5.183269E-05
434.1173,-5.182609E-05
434.2173,-5.179125E-05
434.3173,-5.179784E-05
434.4173,-5.179878E-05
434.5173,-5.176394E-05
434.6173,-5.17856E-05
434.7173,-5.177995E-05
434.8173,-5.174228E-05
434.9173,-5.17404E-05
435.0173,-5.175735E-05
435.1173,-5.172438E-05
435.2173,-5.171779E-05
435.3174,-5.16773E-05
435.4174,-5.169613E-05
435.5174,-5.171874E-05
435.6174,-5.174134E-05
435.7174,-5.168766E-05
435.8174,-5.167259E-05
435.9174,-5.1666E-05
436.0174,-5.164716E-05
436.1174,-5.164151E-05
436.2174,-5.164905E-05
436.3174,-5.160855E-05
436.4174,-5.159725E-05
436.5174,-5.158877E-05
436.6174,-5.1569E-05
436.7174,-5.160667E-05
436.8174,-5.158407E-05
436.9174,-5.152945E-05
437.0175,-5.155958E-05
437.1175,-5.154922E-05
437.2175,-5.152003E-05
437.3175,-5.154075E-05
437.4175,-5.152473E-05
437.5175,-5.150873E-05
437.6175,-5.150025E-05
437.7175,-5.149931E-05
437.8175,-5.149084E-05
437.9175,-5.146164E-05
438.0175,-5.146164E-05
438.1175,-5.144092E-05
438.2175,-5.144658E-05
438.3175,-5.14381E-05
438.4175,-5.142209E-05
438.5175,-5.14268E-05
438.6176,-5.142303E-05
438.7176,-5.138442E-05
438.8176,-5.138536E-05
438.9176,-5.139855E-05
439.0176,-5.138254E-05
439.1176,-5.134675E-05
439.2176,-5.134675E-05
439.3176,-5.134016E-05
439.4176,-5.132886E-05
439.5176,-5.132038E-05
439.6176,-5.128648E-05
439.7176,-5.130061E-05
439.8176,-5.128271E-05
439.9176,-5.128931E-05
440.0176,-5.129589E-05
440.1176,-5.124033E-05
440.2177,-5.123185E-05
440.3177,-5.125823E-05
440.4177,-5.125728E-05
440.5177,-5.121208E-05
440.6177,-5.123092E-05
440.7177,-5.123375E-05
440.8177,-5.116406E-05
440.9177,-5.122997E-05
441.0177,-5.124598E-05
441.1177,-5.121773E-05
441.2177,-5.118195E-05
441.3177,-5.119231E-05
441.4177,-5.116971E-05
441.5177,-5.11471E-05
441.6177,-5.115652E-05
441.7177,-5.111038E-05
441.8177,-5.112168E-05
441.9178,-5.110943E-05
442.0178,-5.108024E-05
442.1178,-5.107647E-05
442.2178,-5.108683E-05
442.3178,-5.106705E-05
442.4178,-5.105482E-05
442.5178,-5.106705E-05
442.6178,-5.101056E-05
442.7178,-5.101714E-05
442.8178,-5.103033E-05
442.9178,-5.100208E-05
443.0178,-5.095499E-05
443.1178,-5.099643E-05
443.2178,-5.101714E-05
443.3178,-5.098418E-05
443.4178,-5.096064E-05
443.5179,-5.094087E-05
443.6179,-5.092391E-05
443.7179,-5.094181E-05
443.8179,-5.092486E-05
443.9179,-5.090508E-05
444.0179,-5.091638E-05
444.1179,-5.087871E-05
444.2179,-5.089378E-05
444.3179,-5.087494E-05
444.4179,-5.083539E-05
444.5179,-5.083916E-05
444.6179,-5.086082E-05
444.7179,-5.084575E-05
444.8179,-5.07996E-05
444.9179,-5.083445E-05
445.0179,-5.083351E-05
445.118,-5.078171E-05
445.218,-5.081562E-05
445.318,-5.07996E-05
445.418,-5.076288E-05
445.518,-5.077512E-05
445.618,-5.077041E-05
445.718,-5.074122E-05
445.818,-5.074781E-05
445.918,-5.073933E-05
446.018,-5.070731E-05
446.118,-5.073086E-05
446.218,-5.070072E-05
446.318,-5.067059E-05
446.418,-5.067059E-05
446.518,-5.067435E-05
446.618,-5.066965E-05
446.718,-5.063386E-05
446.8181,-5.063857E-05
446.9181,-5.059619E-05
447.0181,-5.061314E-05
447.1181,-5.060937E-05
447.2181,-5.057076E-05
447.3181,-5.058301E-05
447.4181,-5.055475E-05
447.5181,-5.052932E-05
447.6181,-5.05491E-05
447.7181,-5.054251E-05
447.8181,-5.052744E-05
447.9181,-5.053498E-05
448.0181,-5.051049E-05
448.1181,-5.048978E-05
448.2181,-5.051049E-05
448.3181,-5.051897E-05
448.4182,-5.047094E-05
448.5182,-5.047942E-05
448.6182,-5.051897E-05
448.7182,-5.043892E-05
448.8182,-5.042385E-05
448.9182,-5.045305E-05
449.0182,-5.046435E-05
449.1182,-5.045399E-05
449.2182,-5.043798E-05
449.3182,-5.040219E-05
449.4182,-5.040879E-05
449.5182,-5.041443E-05
449.6182,-5.039372E-05
449.7182,-5.034757E-05
449.8182,-5.035228E-05
449.9182,-5.035511E-05
450.0182,-5.035322E-05
450.1183,-5.033251E-05
450.2183,-5.031555E-05
450.3183,-5.030708E-05
450.4183,-5.032498E-05
450.5183,-5.028919E-05
450.6183,-5.029201E-05
450.7183,-5.029578E-05
450.8183,-5.027694E-05
450.9183,-5.027977E-05
451.0183,-5.02421E-05
451.1183,-5.022797E-05
451.2183,-5.02421E-05
451.3183,-5.022986E-05
451.4183,-5.019031E-05
451.5183,-5.019878E-05
451.6183,-5.021102E-05
451.7184,-5.017053E-05
451.8184,-5.0179E-05
451.9184,-5.017806E-05
452.0184,-5.015358E-05
452.1184,-5.015546E-05
452.2184,-5.015358E-05
452.3184,-5.011214E-05
452.4184,-5.011685E-05
452.5184,-5.012815E-05
452.6184,-5.010084E-05
452.7184,-5.008954E-05
452.8184,-5.009142E-05
452.9184,-5.007259E-05
453.0184,-5.011779E-05
453.1184,-5.006882E-05
453.2184,-5.00434E-05
453.3185,-5.003021E-05
453.4185,-5.003304E-05
453.5185,-5.000196E-05
453.6185,-5.000478E-05
453.7185,-5.001326E-05
453.8185,-4.997653E-05
453.9185,-4.998124E-05
454.0185,-4.999631E-05
454.1185,-4.99464E-05
454.2185,-4.99803E-05
454.3185,-4.995864E-05
454.4185,-4.994922E-05
454.5185,-4.993415E-05
454.6185,-4.992191E-05
454.7185,-4.990778E-05
454.8185,-4.990684E-05
454.9185,-4.988142E-05
455.0186,-4.989272E-05
455.1186,-4.988424E-05
455.2186,-4.987294E-05
455.3186,-4.983998E-05
455.4186,-4.984563E-05
455.5186,-4.985599E-05
455.6186,-4.984469E-05
455.7186,-4.983998E-05
455.8186,-4.978724E-05
455.9186,-4.977971E-05
456.0186,-4.979101E-05
456.1186,-4.979007E-05
456.2186,-4.973922E-05
456.3186,-4.973733E-05
456.4186,-4.974581E-05
456.5186,-4.973074E-05
456.6187,-4.97637E-05
456.7187,-4.968554E-05
456.8187,-4.964787E-05
456.9187,-4.969213E-05
457.0187,-4.970248E-05
457.1187,-4.962903E-05
457.2187,-4.966106E-05
457.3187,-4.966576E-05
457.4187,-4.96328E-05
457.5187,-4.96215E-05
457.6187,-4.960737E-05
457.7187,-4.959513E-05
457.8187,-4.958759E-05
457.9187,-4.959137E-05
458.0187,-4.955464E-05
458.1187,-4.953298E-05
458.2188,-4.955087E-05
458.3188,-4.953109E-05
458.4188,-4.952544E-05
458.5188,-4.949907E-05
458.6188,-4.950001E-05
458.7188,-4.950284E-05
458.8188,-4.949531E-05
458.9188,-4.946988E-05
459.0188,-4.94567E-05
459.1188,-4.944728E-05
459.2188,-4.944916E-05
459.3188,-4.945105E-05
459.4188,-4.941149E-05
459.5188,-4.936723E-05
459.6188,-4.93936E-05
459.7188,-4.939171E-05
459.8188,-4.936535E-05
459.9189,-4.935311E-05
460.0189,-4.933992E-05
460.1189,-4.930696E-05
460.2189,-4.931261E-05
460.3189,-4.932014E-05
460.4189,-4.928154E-05
460.5189,-4.928248E-05
460.6189,-4.930037E-05
460.7189,-4.926835E-05
460.8189,-4.924857E-05
460.9189,-4.925046E-05
461.0189,-4.923068E-05
461.1189,-4.924575E-05
461.2189,-4.924104E-05
461.3189,-4.918077E-05
461.4189,-4.91996E-05
461.519,-4.919113E-05
461.619,-4.91883E-05
461.719,-4.920243E-05
461.819,-4.916005E-05
461.919,-4.913462E-05
462.019,-4.911673E-05
462.119,-4.914687E-05
462.219,-4.912615E-05
462.319,-4.91205E-05
462.419,-4.91092E-05
462.519,-4.908377E-05
462.619,-4.906776E-05
462.719,-4.908E-05
462.819,-4.905269E-05
462.919,-4.907153E-05
463.019,-4.904139E-05
463.119,-4.901502E-05
463.2191,-4.901502E-05
463.3191,-4.903292E-05
463.4191,-4.899148E-05
463.5191,-4.89896E-05
463.6191,-4.897264E-05
463.7191,-4.896229E-05
463.8191,-4.896699E-05
463.9191,-4.896135E-05
464.0191,-4.893121E-05
464.1191,-4.89331E-05
464.2191,-4.89265E-05
464.3191,-4.891614E-05
464.4191,-4.891237E-05
464.5191,-4.89039E-05
464.6191,-4.886623E-05
464.7191,-4.886811E-05
464.8192,-4.889166E-05
464.9192,-4.885399E-05
465.0192,-4.886529E-05
465.1192,-4.881915E-05
465.2192,-4.882009E-05
465.3192,-4.881537E-05
465.4192,-4.881726E-05
465.5192,-4.87843E-05
465.6192,-4.879089E-05
465.7192,-4.878053E-05
465.8192,-4.874852E-05
465.9192,-4.875887E-05
466.0192,-4.87843E-05
466.1192,-4.872779E-05
466.2192,-4.87438E-05
466.3192,-4.875322E-05
466.4193,-4.872121E-05
466.5193,-4.872686E-05
466.6193,-4.873062E-05
466.7193,-4.870236E-05
466.8193,-4.868542E-05
466.9193,-4.86826E-05
467.0193,-4.86986E-05
467.1193,-4.867788E-05
467.2193,-4.864304E-05
467.3193,-4.864492E-05
467.4193,-4.864492E-05
467.5193,-4.863079E-05
467.6193,-4.85903E-05
467.7193,-4.85969E-05
467.8193,-4.863079E-05
467.9193,-4.861479E-05
468.0193,-4.860349E-05
468.1194,-4.858277E-05
468.2194,-4.856393E-05
468.3194,-4.855922E-05
468.4194,-4.857429E-05
468.5194,-4.855452E-05
468.6194,-4.853757E-05
468.7194,-4.853192E-05
468.8194,-4.854981E-05
468.9194,-4.853097E-05
469.0194,-4.851496E-05
469.1194,-4.851308E-05
469.2194,-4.847918E-05
469.3194,-4.848106E-05
469.4194,-4.845564E-05
469.5194,-4.846317E-05
469.6194,-4.846317E-05
469.7195,-4.844433E-05
469.8195,-4.842361E-05
469.9195,-4.843303E-05
470.0195,-4.842738E-05
470.1195,-4.840667E-05
470.2195,-4.838972E-05
470.3195,-4.840949E-05
470.4195,-4.841703E-05
470.5195,-4.837653E-05
470.6195,-4.838407E-05
470.7195,-4.841514E-05
470.8195,-4.840949E-05
470.9195,-4.835864E-05
471.0195,-4.833792E-05
471.1195,-4.834828E-05
471.2195,-4.833509E-05
471.3195,-4.830308E-05
471.4196,-4.832191E-05
471.5196,-4.827294E-05
471.6196,-4.829083E-05
471.7196,-4.829742E-05
471.8196,-4.826729E-05
471.9196,-4.823998E-05
472.0196,-4.826635E-05
472.1196,-4.824752E-05
472.2196,-4.822397E-05
472.3196,-4.822962E-05
472.4196,-4.822114E-05
472.5196,-4.820514E-05
472.6196,-4.823056E-05
472.7196,-4.819854E-05
472.8196,-4.813639E-05
472.9196,-4.819289E-05
473.0197,-4.81863E-05
473.1197,-4.814769E-05
473.2197,-4.816935E-05
473.3197,-4.817971E-05
473.4197,-4.814392E-05
473.5197,-4.814675E-05
473.6197,-4.814298E-05
473.7197,-4.812509E-05
473.8197,-4.813733E-05
473.9197,-4.812697E-05
474.0197,-4.809684E-05
474.1197,-4.80893E-05
474.2197,-4.809966E-05
474.3197,-4.809401E-05
474.4197,-4.807988E-05
474.5197,-4.8078E-05
474.6198,-4.805446E-05
474.7198,-4.804316E-05
474.8198,-4.80554E-05
474.9198,-4.803186E-05
475.0198,-4.804881E-05
475.1198,-4.801868E-05
475.2198,-4.799418E-05
475.3198,-4.802526E-05
475.4198,-4.800643E-05
475.5198,-4.796594E-05
475.6198,-4.798195E-05
475.7198,-4.798477E-05
475.8198,-4.798665E-05
475.9198,-4.796311E-05
476.0198,-4.79584E-05
476.1198,-4.791696E-05
476.2198,-4.79697E-05
476.3199,-4.796122E-05
476.4199,-4.791979E-05
476.5199,-4.795087E-05
476.6199,-4.794616E-05
476.7199,-4.790378E-05
476.8199,-4.792826E-05
476.9199,-4.790661E-05
477.0199,-4.788683E-05
477.1199,-4.791038E-05
477.2199,-4.790001E-05
477.3199,-4.786611E-05
477.4199,-4.786611E-05
477.5199,-4.786517E-05
477.6199,-4.784351E-05
477.7199,-4.785858E-05
477.8199,-4.785575E-05
477.92,-4.783315E-05
478.02,-4.780396E-05
478.12,-4.781714E-05
478.22,-4.781432E-05
478.32,-4.782468E-05
478.42,-4.77823E-05
478.52,-4.778041E-05
478.62,-4.777099E-05
478.72,-4.777853E-05
478.82,-4.776064E-05
478.92,-4.777664E-05
479.02,-4.776911E-05
479.12,-4.771826E-05
479.22,-4.774463E-05
479.32,-4.776818E-05
479.42,-4.77258E-05
479.5201,-4.772108E-05
479.6201,-4.771732E-05
479.7201,-4.768812E-05
479.8201,-4.76966E-05
479.9201,-4.771543E-05
480.0201,-4.769095E-05
480.1201,-4.764669E-05
480.2201,-4.767871E-05
480.3201,-4.769471E-05
480.4201,-4.76401E-05
480.5201,-4.764857E-05
480.6201,-4.767871E-05
480.7201,-4.762032E-05
480.8201,-4.764669E-05
480.9201,-4.765233E-05
481.0201,-4.763444E-05
481.1201,-4.760713E-05
481.2202,-4.761844E-05
481.3202,-4.762879E-05
481.4202,-4.761561E-05
481.5202,-4.758171E-05
481.6202,-4.756758E-05
481.7202,-4.757229E-05
481.8202,-4.758453E-05
481.9202,-4.757888E-05
482.0202,-4.757512E-05
482.1202,-4.754592E-05
482.2202,-4.754404E-05
482.3202,-4.754687E-05
482.4202,-4.753086E-05
482.5202,-4.753839E-05
482.6202,-4.754498E-05
482.7202,-4.753086E-05
482.8203,-4.751202E-05
482.9203,-4.752049E-05
483.0203,-4.750543E-05
483.1203,-4.749224E-05
483.2203,-4.750166E-05
483.3203,-4.749318E-05
483.4203,-4.748E-05
483.5203,-4.74753E-05
483.6203,-4.747718E-05
483.7203,-4.749036E-05
483.8203,-4.746117E-05
483.9203,-4.745928E-05
484.0203,-4.742255E-05
484.1203,-4.745269E-05
484.2203,-4.743857E-05
484.3203,-4.743574E-05
484.4203,-4.74282E-05
484.5204,-4.739807E-05
484.6204,-4.742444E-05
484.7204,-4.742726E-05
484.8204,-4.740749E-05
484.9204,-4.739524E-05
485.0204,-4.739619E-05
485.1204,-4.739242E-05
485.2204,-4.738112E-05
485.3204,-4.738488E-05
485.4204,-4.734628E-05
485.5204,-4.736511E-05
485.6204,-4.7383E-05
485.7204,-4.734722E-05
485.8204,-4.734534E-05
485.9204,-4.735192E-05
486.0204,-4.735287E-05
486.1205,-4.735004E-05
486.2205,-4.736229E-05
486.3205,-4.731143E-05
486.4205,-4.732273E-05
486.5205,-4.73265E-05
486.6205,-4.732744E-05
486.7205,-4.731708E-05
486.8205,-4.729165E-05
486.9205,-4.726246E-05
487.0205,-4.72926E-05
487.1205,-4.729448E-05
487.2205,-4.726811E-05
487.3205,-4.725116E-05
487.4205,-4.724456E-05
487.5205,-4.725304E-05
487.6205,-4.725775E-05
487.7206,-4.72408E-05
487.8206,-4.725022E-05
487.9206,-4.724928E-05
488.0206,-4.723421E-05
488.1206,-4.720973E-05
488.2206,-4.71956E-05
488.3206,-4.721443E-05
488.4206,-4.721349E-05
488.5206,-4.719466E-05
488.6206,-4.720596E-05
488.7206,-4.717394E-05
488.8206,-4.718336E-05
488.9206,-4.715887E-05
489.0206,-4.71504E-05
489.1206,-4.715228E-05
489.2206,-4.717677E-05
489.3206,-4.717017E-05
489.4207,-4.712685E-05
489.5207,-4.714569E-05
489.6207,-4.712403E-05
489.7207,-4.710802E-05
489.8207,-4.712967E-05
489.9207,-4.70986E-05
490.0207,-4.707506E-05
490.1207,-4.709201E-05
490.2207,-4.710142E-05
490.3207,-4.709201E-05
490.4207,-4.708541E-05
490.5207,-4.708071E-05
490.6207,-4.704022E-05
490.7207,-4.708824E-05
490.8207,-4.706941E-05
490.9207,-4.704963E-05
491.0208,-4.70534E-05
491.1208,-4.70468E-05
491.2208,-4.702232E-05
491.3208,-4.702703E-05
491.4208,-4.703362E-05
491.5208,-4.700819E-05
491.6208,-4.702703E-05
491.7208,-4.700819E-05
491.8208,-4.697806E-05
491.9208,-4.699501E-05
492.0208,-4.700254E-05
492.1208,-4.698371E-05
492.2208,-4.697429E-05
492.3208,-4.697241E-05
492.4208,-4.695828E-05
492.5208,-4.696958E-05
492.6208,-4.696676E-05
492.7209,-4.694321E-05
492.8209,-4.694698E-05
492.9209,-4.695734E-05
493.0209,-4.692626E-05
493.1209,-4.693945E-05
493.2209,-4.690649E-05
493.3209,-4.691496E-05
493.4209,-4.694415E-05
493.5209,-4.692061E-05
493.6209,-4.690649E-05
493.7209,-4.690178E-05
493.8209,-4.692815E-05
493.9209,-4.689519E-05
494.0209,-4.689236E-05
494.1209,-4.687352E-05
494.2209,-4.687635E-05
494.321,-4.69338E-05
494.421,-4.692909E-05
494.521,-4.687447E-05
494.621,-4.687258E-05
494.721,-4.688954E-05
494.821,-4.686222E-05
494.921,-4.685752E-05
495.021,-4.68707E-05
495.121,-4.683303E-05
495.221,-4.681891E-05
495.321,-4.68255E-05
495.421,-4.680478E-05
495.521,-4.681891E-05
495.621,-4.681608E-05
495.721,-4.675958E-05
495.821,-4.678595E-05
495.9211,-4.68076E-05
496.0211,-4.676146E-05
496.1211,-4.678406E-05
496.2211,-4.677841E-05
496.3211,-4.672756E-05
496.4211,-4.676711E-05
496.5211,-4.676711E-05
496.6211,-4.673227E-05
496.7211,-4.673603E-05
496.8211,-4.675204E-05
496.9211,-4.672191E-05
497.0211,-4.672473E-05
497.1211,-4.67059E-05
497.2211,-4.673603E-05
497.3211,-4.676429E-05
497.4211,-4.671343E-05
497.5211,-4.667482E-05
497.6212,-4.668047E-05
497.7212,-4.669083E-05
497.8212,-4.666823E-05
497.9212,-4.668801E-05
498.0212,-4.66607E-05
498.1212,-4.662773E-05
498.2212,-4.666729E-05
498.3212,-4.667011E-05
498.4212,-4.664375E-05
498.5212,-4.660325E-05
498.6212,-4.663998E-05
498.7212,-4.661832E-05
498.8212,-4.663433E-05
498.9212,-4.662114E-05
499.0212,-4.657688E-05
499.1212,-4.661078E-05
499.2213,-4.66089E-05
499.3213,-4.656841E-05
499.4213,-4.659101E-05
499.5213,-4.65863E-05
499.6213,-4.654203E-05
499.7213,-4.660325E-05
499.8213,-4.65863E-05
499.9213,-4.654769E-05
500.0213,-4.654863E-05
500.1213,-4.657876E-05
500.2213,-4.652603E-05
500.3213,-4.654769E-05
500.4213,-4.653073E-05
500.5213,-4.65006E-05
500.6213,-4.651284E-05
500.7213,-4.652791E-05
500.8214,-4.648083E-05
500.9214,-4.646858E-05
501.0214,-4.647141E-05
501.1214,-4.647141E-05
501.2214,-4.647329E-05
501.3214,-4.645634E-05
501.4214,-4.643656E-05
501.5214,-4.645069E-05
501.6214,-4.645257E-05
501.7214,-4.642338E-05
501.8214,-4.64328E-05
501.9214,-4.644033E-05
502.0214,-4.640172E-05
502.1214,-4.642526E-05
502.2214,-4.641302E-05
502.3214,-4.639513E-05
502.4214,-4.640643E-05
502.5215,-4.644409E-05
502.6215,-4.637723E-05
502.7215,-4.636782E-05
502.8215,-4.639418E-05
502.9215,-4.637252E-05
503.0215,-4.6381E-05
503.1215,-4.636593E-05
503.2215,-4.633297E-05
503.3215,-4.634333E-05
503.4215,-4.636688E-05
503.5215,-4.632921E-05
503.6215,-4.634522E-05
503.7215,-4.633297E-05
503.8215,-4.631226E-05
503.9215,-4.632261E-05
504.0215,-4.635934E-05
504.1216,-4.633014E-05
504.2216,-4.630284E-05
504.3216,-4.631791E-05
504.4216,-4.629248E-05
504.5216,-4.631226E-05
504.6216,-4.629531E-05
504.7216,-4.62614E-05
504.8216,-4.626046E-05
504.9216,-4.628683E-05
505.0216,-4.626423E-05
505.1216,-4.626517E-05
505.2216,-4.623409E-05
505.3216,-4.625198E-05
505.4216,-4.629154E-05
505.5216,-4.628683E-05
505.6216,-4.622562E-05
505.7216,-4.624257E-05
505.8217,-4.626423E-05
505.9217,-4.623032E-05
506.0217,-4.624257E-05
506.1217,-4.62162E-05
506.2217,-4.6187E-05
506.3217,-4.621243E-05
506.4217,-4.62049E-05
506.5217,-4.618418E-05
506.6217,-4.618512E-05
506.7217,-4.621714E-05
506.8217,-4.61823E-05
506.9217,-4.614274E-05
507.0217,-4.617853E-05
507.1217,-4.615499E-05
507.2217,-4.617759E-05
507.3217,-4.617288E-05
507.4218,-4.615311E-05
507.5218,-4.612297E-05
507.6218,-4.614839E-05
507.7218,-4.613709E-05
507.8218,-4.61418E-05
507.9218,-4.612673E-05
508.0218,-4.609848E-05
508.1218,-4.610507E-05
508.2218,-4.613333E-05
508.3218,-4.610507E-05
508.4218,-4.610413E-05
508.5218,-4.61013E-05
508.6218,-4.603633E-05
508.7218,-4.606741E-05
508.8218,-4.609942E-05
508.9218,-4.605328E-05
509.0219,-4.607023E-05
509.1219,-4.605139E-05
509.2219,-4.602126E-05
509.3219,-4.602691E-05
509.4219,-4.603726E-05
509.5219,-4.602597E-05
509.6219,-4.602314E-05
509.7219,-4.603256E-05
509.8219,-4.600148E-05
509.9219,-4.602597E-05
510.0219,-4.602973E-05
510.1219,-4.599206E-05
510.2219,-4.597323E-05
510.3219,-4.599301E-05
510.4219,-4.598171E-05
510.5219,-4.59544E-05
510.6219,-4.598453E-05
510.722,-4.598453E-05
510.822,-4.59591E-05
510.922,-4.59478E-05
511.022,-4.593744E-05
511.122,-4.593368E-05
511.222,-4.594215E-05
511.322,-4.592897E-05
511.422,-4.588188E-05
511.522,-4.588942E-05
511.622,-4.594686E-05
511.722,-4.591767E-05
511.822,-4.587623E-05
511.922,-4.59139E-05
512.022,-4.588659E-05
512.122,-4.588942E-05
512.222,-4.590731E-05
512.322,-4.589507E-05
512.4219,-4.587246E-05
512.5219,-4.583009E-05
512.6219,-4.585551E-05
512.7219,-4.587153E-05
512.8218,-4.58348E-05
512.9218,-4.579242E-05
513.0218,-4.584704E-05
513.1218,-4.579807E-05
513.2217,-4.578865E-05
513.3217,-4.582161E-05
513.4217,-4.578112E-05
513.5217,-4.575663E-05
513.6216,-4.578206E-05
513.7216,-4.581031E-05
513.8216,-4.573968E-05
513.9216,-4.572932E-05
514.0215,-4.576699E-05
514.1215,-4.578865E-05
514.2215,-4.575192E-05
514.3215,-4.573497E-05
514.4214,-4.574439E-05
514.5214,-4.575004E-05
514.6214,-4.574534E-05
514.7214,-4.570955E-05
514.8214,-4.574156E-05
514.9213,-4.573121E-05
515.0213,-4.565304E-05
515.1213,-4.571614E-05
515.2213,-4.575098E-05
515.3212,-4.573497E-05
515.4212,-4.570013E-05
515.5212,-4.570107E-05
515.6212,-4.569448E-05
515.7211,-4.570013E-05
515.8211,-4.570766E-05
515.9211,-4.566622E-05
516.0211,-4.563609E-05
516.121,-4.565304E-05
516.221,-4.566152E-05
516.321,-4.564456E-05
516.421,-4.561255E-05
516.5209,-4.563421E-05
516.6209,-4.560596E-05
516.7209,-4.561631E-05
516.8209,-4.562291E-05
516.9208,-4.562573E-05
517.0208,-4.558712E-05
517.1208,-4.556546E-05
517.2208,-4.561537E-05
517.3207,-4.561255E-05
517.4207,-4.560313E-05
517.5207,-4.555416E-05
517.6207,-4.561349E-05
517.7206,-4.561349E-05
517.8206,-4.555887E-05
517.9206,-4.559936E-05
518.0206,-4.559277E-05
518.1205,-4.556829E-05
518.2205,-4.557582E-05
518.3205,-4.556358E-05
518.4205,-4.55325E-05
518.5204,-4.55617E-05
518.6204,-4.554945E-05
518.7204,-4.549483E-05
518.8204,-4.553627E-05
518.9203,-4.554192E-05
519.0203,-4.550613E-05
519.1203,-4.550048E-05
519.2203,-4.550425E-05
519.3203,-4.550425E-05
519.4202,-4.547882E-05
519.5202,-4.547411E-05
519.6202,-4.548918E-05
519.7202,-4.549672E-05
519.8201,-4.546658E-05
519.9201,-4.546093E-05
520.0201,-4.5476E-05
520.1201,-4.549201E-05
520.22,-4.544869E-05
520.32,-4.545434E-05
520.42,-4.54421E-05
520.52,-4.544586E-05
520.6199,-4.544398E-05
520.7199,-4.54421E-05
520.8199,-4.541572E-05
520.9199,-4.54355E-05
521.0198,-4.541667E-05
521.1198,-4.539595E-05
521.2198,-4.540349E-05
521.3198,-4.540442E-05
521.4197,-4.538747E-05
521.5197,-4.538842E-05
521.6197,-4.538559E-05
521.7197,-4.532532E-05
521.8196,-4.538842E-05
521.9196,-4.5379E-05
522.0196,-4.535546E-05
522.1196,-4.534321E-05
522.2195,-4.534133E-05
522.3195,-4.533003E-05
522.4195,-4.53498E-05
522.5195,-4.536299E-05
522.6194,-4.529048E-05
522.7194,-4.531779E-05
522.8194,-4.535075E-05
522.9194,-4.531308E-05
523.0193,-4.528388E-05
523.1193,-4.530272E-05
523.2193,-4.532155E-05
523.3193,-4.531496E-05
523.4193,-4.530837E-05
523.5192,-4.528483E-05
523.6192,-4.530554E-05
523.7192,-4.529707E-05
523.8192,-4.527729E-05
523.9191,-4.5282E-05
524.0191,-4.529424E-05
524.1191,-4.529895E-05
524.2191,-4.527447E-05
524.319,-4.528106E-05
524.419,-4.524339E-05
524.519,-4.523397E-05
524.619,-4.526034E-05
524.7189,-4.525846E-05
524.8189,-4.524716E-05
524.9189,-4.523115E-05
525.0189,-4.521702E-05
525.1188,-4.521326E-05
525.2188,-4.523774E-05
525.3188,-4.521326E-05
525.4188,-4.520854E-05
525.5187,-4.520289E-05
525.6187,-4.518595E-05
525.7187,-4.52076E-05
525.8187,-4.521984E-05
525.9186,-4.518783E-05
526.0186,-4.517653E-05
526.1186,-4.518218E-05
526.2186,-4.5185E-05
526.3185,-4.51737E-05
526.4185,-4.519253E-05
526.5185,-4.514262E-05
526.6185,-4.517653E-05
526.7184,-4.518877E-05
526.8184,-4.513509E-05
526.9184,-4.516617E-05
527.0184,-4.516334E-05
527.1183,-4.513321E-05
527.2183,-4.51445E-05
527.3183,-4.513603E-05
527.4183,-4.513415E-05
527.5182,-4.515863E-05
527.6182,-4.514262E-05
527.7182,-4.510307E-05
527.8182,-4.512379E-05
527.9182,-4.512662E-05
528.0181,-4.511626E-05
528.1181,-4.513038E-05
528.2181,-4.510684E-05
528.3181,-4.507953E-05
528.418,-4.507953E-05
528.518,-4.510778E-05
528.618,-4.506352E-05
528.718,-4.507482E-05
528.8179,-4.508141E-05
528.9179,-4.502962E-05
529.0179,-4.504657E-05
529.1179,-4.505504E-05
529.2178,-4.50428E-05
529.3178,-4.502585E-05
529.4178,-4.504186E-05
529.5178,-4.501361E-05
529.6177,-4.502585E-05
529.7177,-4.502491E-05
529.8177,-4.502302E-05
529.9177,-4.500701E-05
530.0176,-4.500795E-05
530.1176,-4.501078E-05
530.2176,-4.500701E-05
530.3176,-4.502868E-05
530.4175,-4.499665E-05
530.5175,-4.499383E-05
530.6175,-4.498441E-05
530.7175,-4.498818E-05
530.8174,-4.499383E-05
530.9174,-4.498065E-05
531.0174,-4.494581E-05
531.1174,-4.498065E-05
531.2173,-4.4975E-05
531.3173,-4.495899E-05
531.4173,-4.499195E-05
531.5173,-4.498065E-05
531.6172,-4.493356E-05
531.7172,-4.495616E-05
531.8172,-4.497123E-05
531.9172,-4.495993E-05
532.0172,-4.494298E-05
532.1171,-4.493074E-05
532.2171,-4.490719E-05
532.3171,-4.492038E-05
532.4171,-4.493921E-05
532.517,-4.491284E-05
532.617,-4.491002E-05
532.717,-4.49006E-05
532.817,-4.488459E-05
532.9169,-4.490154E-05
533.0169,-4.490154E-05
533.1169,-4.485539E-05
533.2169,-4.486199E-05
533.3168,-4.490437E-05
533.4168,-4.486481E-05
533.5168,-4.488459E-05
533.6168,-4.486293E-05
533.7167,-4.483468E-05
533.8167,-4.484221E-05
533.9167,-4.485822E-05
534.0167,-4.483374E-05
534.1166,-4.484409E-05
534.2166,-4.484221E-05
534.3166,-4.482243E-05
534.4166,-4.480831E-05
534.5165,-4.480831E-05
534.6165,-4.482338E-05
534.7165,-4.481867E-05
534.8165,-4.482432E-05
534.9164,-4.478194E-05
535.0164,-4.479513E-05
535.1164,-4.482338E-05
535.2164,-4.479042E-05
535.3163,-4.481584E-05
535.4163,-4.477158E-05
535.5163,-4.475745E-05
535.6163,-4.477817E-05
535.7162,-4.479701E-05
535.8162,-4.474333E-05
535.9162,-4.475275E-05
536.0162,-4.478382E-05
536.1161,-4.475086E-05
536.2161,-4.476499E-05
536.3161,-4.478194E-05
536.4161,-4.473392E-05
536.5161,-4.475086E-05
536.616,-4.476217E-05
536.716,-4.471696E-05
536.816,-4.47405E-05
536.916,-4.474521E-05
537.0159,-4.472355E-05
537.1159,-4.47245E-05
537.2159,-4.472638E-05
537.3159,-4.467553E-05
537.4158,-4.470849E-05
537.5158,-4.472167E-05
537.6158,-4.470189E-05
537.7158,-4.465669E-05
537.8157,-4.468118E-05
537.9157,-4.470189E-05
538.0157,-4.470189E-05
538.1157,-4.468965E-05
538.2156,-4.468588E-05
538.3156,-4.465857E-05
538.4156,-4.469719E-05
538.5156,-4.467647E-05
538.6155,-4.468023E-05
538.7155,-4.469059E-05
538.8155,-4.466611E-05
538.9155,-4.466988E-05
539.0154,-4.467741E-05
539.1154,-4.467176E-05
539.2154,-4.464068E-05
539.3154,-4.467741E-05
539.4153,-4.464916E-05
539.5153,-4.461902E-05
539.6153,-4.463786E-05
539.7153,-4.464445E-05
539.8152,-4.462562E-05
539.9152,-4.462373E-05
540.0152,-4.459642E-05
540.1152,-4.462467E-05
540.2151,-4.46388E-05
540.3151,-4.463032E-05
540.4151,-4.458983E-05
540.5151,-4.462279E-05
540.6151,-4.460772E-05
540.715,-4.4587E-05
540.815,-4.4587E-05
540.915,-4.459736E-05
541.015,-4.456817E-05
541.1149,-4.457476E-05
541.2149,-4.457193E-05
541.3149,-4.455781E-05
541.4149,-4.45757E-05
541.5148,-4.455593E-05
541.6148,-4.451826E-05
541.7148,-4.454933E-05
541.8148,-4.456252E-05
541.9147,-4.451449E-05
542.0147,-4.455028E-05
542.1147,-4.451731E-05
542.2147,-4.454274E-05
542.3146,-4.458135E-05
542.4146,-4.455122E-05
542.5146,-4.450413E-05
542.6146,-4.450413E-05
542.7145,-4.45192E-05
542.8145,-4.450413E-05
542.9145,-4.450225E-05
543.0145,-4.44966E-05
543.1144,-4.44787E-05
543.2144,-4.449283E-05
543.3144,-4.450319E-05
543.4144,-4.445893E-05
543.5143,-4.446175E-05
543.6143,-4.446457E-05
543.7143,-4.445422E-05
543.8143,-4.446081E-05
543.9142,-4.44787E-05
544.0142,-4.444104E-05
544.1142,-4.444197E-05
544.2142,-4.443915E-05
544.3141,-4.446269E-05
544.4141,-4.446552E-05
544.5141,-4.443821E-05
544.6141,-4.443162E-05
544.7141,-4.442785E-05
544.814,-4.445234E-05
544.914,-4.442409E-05
545.014,-4.441373E-05
545.114,-4.442691E-05
545.2139,-4.438641E-05
545.3139,-4.442314E-05
545.4139,-4.441561E-05
545.5139,-4.438547E-05
545.6138,-4.43883E-05
545.7138,-4.442031E-05
545.8138,-4.439583E-05
545.9138,-4.437794E-05
546.0137,-4.436664E-05
546.1137,-4.437417E-05
546.2137,-4.439772E-05
546.3137,-4.436569E-05
546.4136,-4.434686E-05
546.5136,-4.4393E-05
546.6136,-4.438924E-05
546.7136,-4.435346E-05
546.8135,-4.438641E-05
546.9135,-4.442503E-05
547.0135,-4.436287E-05
547.1135,-4.434498E-05
547.2134,-4.441373E-05
547.3134,-4.43996E-05
547.4134,-4.437982E-05
547.5134,-4.440431E-05
547.6133,-4.435816E-05
547.7133,-4.435346E-05
547.8133,-4.438924E-05
547.9133,-4.435816E-05
548.0132,-4.435911E-05
548.1132,-4.437323E-05
548.2132,-4.434968E-05
548.3132,-4.434592E-05
548.4131,-4.433839E-05
548.5131,-4.434592E-05
548.6131,-4.435251E-05
548.7131,-4.43478E-05
548.813,-4.432332E-05
548.913,-4.432897E-05
549.013,-4.432426E-05
549.113,-4.429977E-05
549.213,-4.433085E-05
549.3129,-4.434592E-05
549.4129,-4.427906E-05
549.5129,-4.429036E-05
549.6129,-4.431767E-05
549.7128,-4.431955E-05
549.8128,-4.428659E-05
549.9128,-4.432615E-05
550.0128,-4.428282E-05
550.1127,-4.429036E-05
550.2127,-4.431673E-05
550.3127,-4.429507E-05
550.4127,-4.429601E-05
550.5126,-4.42913E-05
550.6126,-4.428094E-05
550.7126,-4.430166E-05
550.8126,-4.428942E-05
550.9125,-4.42574E-05
551.0125,-4.426964E-05
551.1125,-4.429318E-05
551.2125,-4.426681E-05
551.3124,-4.426681E-05
551.4124,-4.426587E-05
551.5124,-4.426116E-05
551.6124,-4.426305E-05
551.7123,-4.428754E-05
551.8123,-4.424798E-05
551.9123,-4.425175E-05
552.0123,-4.42574E-05
552.1122,-4.424233E-05
552.2122,-4.427246E-05
552.3122,-4.428188E-05
552.4122,-4.424421E-05
552.5121,-4.426211E-05
552.6121,-4.426587E-05
552.7121,-4.426305E-05
552.8121,-4.424421E-05
552.912,-4.423668E-05
553.012,-4.423291E-05
553.112,-4.42461E-05
553.212,-4.424516E-05
553.312,-4.422067E-05
553.4119,-4.423762E-05
553.5119,-4.422726E-05
553.6119,-4.419242E-05
553.7119,-4.419524E-05
553.8118,-4.419619E-05
553.9118,-4.424139E-05
554.0118,-4.421785E-05
554.1118,-4.419712E-05
554.2117,-4.421313E-05
554.3117,-4.419619E-05
554.4117,-4.424516E-05
554.5117,-4.418865E-05
554.6116,-4.419619E-05
554.7116,-4.419712E-05
554.8116,-4.419242E-05
554.9116,-4.418206E-05
555.0115,-4.418582E-05
555.1115,-4.417923E-05
555.2115,-4.418206E-05
555.3115,-4.418394E-05
555.4114,-4.419524E-05
555.5114,-4.41717E-05
555.6114,-4.420278E-05
555.7114,-4.418112E-05
555.8113,-4.416511E-05
555.9113,-4.417829E-05
556.0113,-4.416793E-05
556.1113,-4.418017E-05
556.2112,-4.416887E-05
556.3112,-4.416134E-05
556.4112,-4.414533E-05
556.5112,-4.417453E-05
556.6111,-4.416322E-05
556.7111,-4.416228E-05
556.8111,-4.415851E-05
556.9111,-4.412461E-05
557.011,-4.414627E-05
557.111,-4.417735E-05
557.211,-4.415286E-05
557.311,-4.412461E-05
557.4109,-4.412555E-05
557.5109,-4.413685E-05
557.6109,-4.413874E-05
557.7109,-4.415381E-05
557.8109,-4.411049E-05
557.9108,-4.411049E-05
558.0108,-4.414816E-05
558.1108,-4.412744E-05
558.2108,-4.412461E-05
558.3107,-4.411331E-05
558.4107,-4.410107E-05
558.5107,-4.41039E-05
558.6107,-4.413215E-05
558.7106,-4.410672E-05
558.8106,-4.40521E-05
558.9106,-4.412273E-05
559.0106,-4.416605E-05
559.1105,-4.412932E-05
559.2105,-4.409918E-05
559.3105,-4.412273E-05
559.4105,-4.410107E-05
559.5104,-4.40973E-05
559.6104,-4.41265E-05
559.7104,-4.411802E-05
559.8104,-4.409824E-05
559.9103,-4.408129E-05
560.0103,-4.411237E-05
560.1103,-4.407847E-05
560.2103,-4.408223E-05
560.3102,-4.407187E-05
560.4102,-4.40973E-05
560.5102,-4.408977E-05
560.6102,-4.406434E-05
560.7101,-4.41039E-05
560.8101,-4.408412E-05
560.9101,-4.405587E-05
561.0101,-4.407658E-05
561.11,-4.408694E-05
561.21,-4.404645E-05
561.31,-4.404268E-05
561.41,-4.404739E-05
561.5099,-4.405681E-05
561.6099,-4.408506E-05
561.7099,-4.408506E-05
561.8099,-4.40182E-05
561.9099,-4.404268E-05
562.0098,-4.405022E-05
562.1098,-4.403139E-05
562.2098,-4.403609E-05
562.3098,-4.403515E-05
562.4097,-4.399371E-05
562.5097,-4.40182E-05
562.6097,-4.406152E-05
562.7097,-4.400784E-05
562.8096,-4.39843E-05
562.9096,-4.401726E-05
563.0096,-4.399654E-05
563.1096,-4.403044E-05
563.2095,-4.40182E-05
563.3095,-4.39843E-05
563.4095,-4.398901E-05
563.5095,-4.401066E-05
563.6094,-4.400501E-05
563.7094,-4.401537E-05
563.8094,-4.40003E-05
563.9094,-4.395604E-05
564.0093,-4.399277E-05
564.1093,-4.398712E-05
564.2093,-4.396828E-05
564.3093,-4.398147E-05
564.4092,-4.398806E-05
564.5092,-4.396828E-05
564.6092,-4.396546E-05
564.7092,-4.3973E-05
564.8091,-4.394851E-05
564.9091,-4.398241E-05
565.0091,-4.39617E-05
565.1091,-4.394474E-05
565.209,-4.395133E-05
565.309,-4.394192E-05
565.409,-4.393156E-05
565.509,-4.395416E-05
565.6089,-4.393438E-05
565.7089,-4.39099E-05
565.8089,-4.395133E-05
565.9089,-4.393438E-05
566.0089,-4.390142E-05
566.1088,-4.391838E-05
566.2088,-4.39325E-05
566.3088,-4.389012E-05
566.4088,-4.392779E-05
566.5087,-4.392967E-05
566.6087,-4.38581E-05
566.7087,-4.390519E-05
566.8087,-4.391272E-05
566.9086,-4.388447E-05
567.0086,-4.390142E-05
567.1086,-4.391649E-05
567.2086,-4.387129E-05
567.3085,-4.389201E-05
567.4085,-4.389012E-05
567.5085,-4.386469E-05
567.6085,-4.386658E-05
567.7084,-4.387788E-05
567.8084,-4.387129E-05
567.9084,-4.38581E-05
568.0084,-4.389671E-05
568.1083,-4.388918E-05
568.2083,-4.385057E-05
568.3083,-4.388259E-05
568.4083,-4.388259E-05
568.5082,-4.387129E-05
568.6082,-4.386658E-05
568.7082,-4.38581E-05
568.8082,-4.387882E-05
568.9081,-4.387976E-05
569.0081,-4.383927E-05
569.1081,-4.379783E-05
569.2081,-4.384397E-05
569.308,-4.385904E-05
569.408,-4.382138E-05
569.508,-4.382326E-05
569.608,-4.381855E-05
569.7079,-4.380254E-05
569.8079,-4.384774E-05
569.9079,-4.38355E-05
570.0079,-4.378842E-05
570.1078,-4.379595E-05
570.2078,-4.382138E-05
570.3078,-4.378465E-05
570.4078,-4.379407E-05
570.5078,-4.378842E-05
570.6077,-4.376487E-05
570.7077,-4.380536E-05
570.8077,-4.380065E-05
570.9077,-4.376864E-05
571.0076,-4.376582E-05
571.1076,-4.37677E-05
571.2076,-4.377052E-05
571.3076,-4.378277E-05
571.4075,-4.377617E-05
571.5075,-4.373191E-05
571.6075,-4.377711E-05
571.7075,-4.3779E-05
571.8074,-4.374981E-05
571.9074,-4.378842E-05
572.0074,-4.375546E-05
572.1074,-4.374509E-05
572.2073,-4.374981E-05
572.3073,-4.376582E-05
572.4073,-4.374321E-05
572.5073,-4.376393E-05
572.6072,-4.377052E-05
572.7072,-4.373097E-05
572.8072,-4.375734E-05
572.9072,-4.375263E-05
573.0071,-4.370272E-05
573.1071,-4.374039E-05
573.2071,-4.375922E-05
573.3071,-4.370742E-05
573.407,-4.370272E-05
573.507,-4.374792E-05
573.607,-4.369989E-05
573.707,-4.368953E-05
573.8069,-4.368953E-05
573.9069,-4.368859E-05
574.0069,-4.370083E-05
574.1069,-4.370837E-05
574.2068,-4.368388E-05
574.3068,-4.366128E-05
574.4068,-4.36933E-05
574.5068,-4.36933E-05
574.6068,-4.366882E-05
574.7067,-4.368388E-05
574.8067,-4.368859E-05
574.9067,-4.36594E-05
575.0067,-4.365469E-05
575.1066,-4.363868E-05
575.2066,-4.369047E-05
575.3066,-4.367917E-05
575.4066,-4.364433E-05
575.5065,-4.361702E-05
575.6065,-4.363209E-05
575.7065,-4.363209E-05
575.8065,-4.361419E-05
575.9064,-4.36255E-05
576.0064,-4.362362E-05
576.1064,-4.363397E-05
576.2064,-4.359442E-05
576.3063,-4.359065E-05
576.4063,-4.360007E-05
576.5063,-4.363962E-05
576.6063,-4.363868E-05
576.7062,-4.359724E-05
576.8062,-4.358877E-05
576.9062,-4.360854E-05
577.0062,-4.361796E-05
577.1061,-4.360384E-05
577.2061,-4.358688E-05
577.3061,-4.356805E-05
577.4061,-4.358218E-05
577.506,-4.358124E-05
577.606,-4.357464E-05
577.706,-4.357181E-05
577.806,-4.356616E-05
577.9059,-4.353415E-05
578.0059,-4.357935E-05
578.1059,-4.355675E-05
578.2059,-4.354451E-05
578.3058,-4.356428E-05
578.4058,-4.353792E-05
578.5058,-4.351437E-05
578.6058,-4.354262E-05
578.7057,-4.354545E-05
578.8057,-4.350401E-05
578.9057,-4.351249E-05
579.0057,-4.354262E-05
579.1057,-4.352379E-05
579.2056,-4.346351E-05
579.3056,-4.352567E-05
579.4056,-4.352473E-05
579.5056,-4.350684E-05
579.6055,-4.350872E-05
579.7055,-4.349836E-05
579.8055,-4.350872E-05
579.9055,-4.354168E-05
580.0054,-4.349836E-05
580.1054,-4.348047E-05
580.2054,-4.353132E-05
580.3054,-4.350872E-05
580.4053,-4.34767E-05
580.5053,-4.352379E-05
580.6053,-4.35172E-05
580.7053,-4.347482E-05
580.8052,-4.350684E-05
580.9052,-4.349177E-05
581.0052,-4.345316E-05
581.1052,-4.346634E-05
581.2051,-4.348518E-05
581.3051,-4.346728E-05
581.4051,-4.347011E-05
581.5051,-4.345881E-05
581.605,-4.346446E-05
581.705,-4.345881E-05
581.805,-4.34428E-05
581.905,-4.343244E-05
582.0049,-4.342961E-05
582.1049,-4.348424E-05
582.2049,-4.343526E-05
582.3049,-4.344657E-05
582.4048,-4.345222E-05
582.5048,-4.34362E-05
582.6048,-4.344939E-05
582.7048,-4.344563E-05
582.8047,-4.340042E-05
582.9047,-4.34654E-05
583.0047,-4.346258E-05
583.1047,-4.339006E-05
583.2047,-4.341455E-05
583.3046,-4.34428E-05
583.4046,-4.344374E-05
583.5046,-4.34428E-05
583.6046,-4.342302E-05
583.7045,-4.339289E-05
583.8045,-4.341549E-05
583.9045,-4.34202E-05
584.0045,-4.339571E-05
584.1044,-4.338441E-05
584.2044,-4.341455E-05
584.3044,-4.337688E-05
584.4044,-4.337688E-05
584.5043,-4.339006E-05
584.6043,-4.33863E-05
584.7043,-4.341832E-05
584.8043,-4.339571E-05
584.9042,-4.3375E-05
585.0042,-4.338441E-05
585.1042,-4.338535E-05
585.2042,-4.337217E-05
585.3041,-4.338159E-05
585.4041,-4.3375E-05
585.5041,-4.334392E-05
585.6041,-4.336746E-05
585.704,-4.338912E-05
585.804,-4.335334E-05
585.904,-4.333921E-05
586.004,-4.335051E-05
586.1039,-4.333921E-05
586.2039,-4.335427E-05
586.3039,-4.333827E-05
586.4039,-4.331378E-05
586.5038,-4.335334E-05
586.6038,-4.333921E-05
586.7038,-4.334298E-05
586.8038,-4.33684E-05
586.9037,-4.331661E-05
587.0037,-4.329306E-05
587.1037,-4.331755E-05
587.2037,-4.333827E-05
587.3036,-4.329306E-05
587.4036,-4.330343E-05
587.5036,-4.332226E-05
587.6036,-4.330719E-05
587.7036,-4.328365E-05
587.8035,-4.3278E-05
587.9035,-4.3294E-05
588.0035,-4.331001E-05
588.1035,-4.333356E-05
588.2034,-4.329306E-05
588.3034,-4.329495E-05
588.4034,-4.330248E-05
588.5034,-4.327893E-05
588.6033,-4.330531E-05
588.7033,-4.332226E-05
588.8033,-4.327235E-05
588.9033,-4.329589E-05
589.0032,-4.331943E-05
589.1032,-4.330908E-05
589.2032,-4.329024E-05
589.3032,-4.327705E-05
589.4031,-4.326105E-05
589.5031,-4.328365E-05
589.6031,-4.329871E-05
589.7031,-4.324598E-05
589.803,-4.327329E-05
589.903,-4.32893E-05
590.003,-4.325727E-05
590.103,-4.325257E-05
590.2029,-4.325163E-05
590.3029,-4.324409E-05
590.4029,-4.325822E-05
590.5029,-4.325727E-05
590.6028,-4.325351E-05
590.7028,-4.323279E-05
590.8028,-4.325445E-05
590.9028,-4.324409E-05
591.0027,-4.325727E-05
591.1027,-4.326575E-05
591.2027,-4.323279E-05
591.3027,-4.32714E-05
591.4026,-4.322902E-05
591.5026,-4.323844E-05
591.6026,-4.324504E-05
591.7026,-4.325822E-05
591.8026,-4.324504E-05
591.9025,-4.321113E-05
592.0025,-4.322526E-05
592.1025,-4.322714E-05
592.2025,-4.32149E-05
592.3024,-4.320454E-05
592.4024,-4.320266E-05
592.5024,-4.318853E-05
592.6024,-4.32601E-05
592.7023,-4.325917E-05
592.8023,-4.324504E-05
592.9023,-4.322243E-05
593.0023,-4.322808E-05
593.1022,-4.322902E-05
593.2022,-4.320831E-05
593.3022,-4.321301E-05
593.4022,-4.321019E-05
593.5021,-4.319889E-05
593.6021,-4.321301E-05
593.7021,-4.318759E-05
593.8021,-4.322902E-05
593.902,-4.319418E-05
594.002,-4.318948E-05
594.102,-4.320266E-05
594.202,-4.317346E-05
594.3019,-4.318853E-05
594.4019,-4.319324E-05
594.5019,-4.316875E-05
594.6019,-4.319889E-05
594.7018,-4.322055E-05
594.8018,-4.319418E-05
594.9018,-4.315086E-05
595.0018,-4.319324E-05
595.1017,-4.320548E-05
595.2017,-4.317158E-05
595.3017,-4.317064E-05
595.4017,-4.317911E-05
595.5016,-4.318759E-05
595.6016,-4.319513E-05
595.7016,-4.318853E-05
595.8016,-4.313391E-05
595.9016,-4.318665E-05
596.0015,-4.322338E-05
596.1015,-4.31697E-05
596.2015,-4.311507E-05
596.3015,-4.319607E-05
596.4014,-4.321396E-05
596.5014,-4.319136E-05
596.6014,-4.318665E-05
596.7014,-4.32036E-05
596.8013,-4.314898E-05
596.9013,-4.317911E-05
597.0013,-4.319889E-05
597.1013,-4.317441E-05
597.2012,-4.316593E-05
597.3012,-4.314616E-05
597.4012,-4.316593E-05
597.5012,-4.317535E-05
597.6011,-4.316216E-05
597.7011,-4.312073E-05
597.8011,-4.314427E-05
597.9011,-4.313862E-05
598.001,-4.312826E-05
598.101,-4.315463E-05
598.201,-4.31066E-05
598.301,-4.308777E-05
598.4009,-4.316122E-05
598.5009,-4.317158E-05
598.6009,-4.311037E-05
598.7009,-4.311507E-05
598.8008,-4.315275E-05
598.9008,-4.311885E-05
599.0008,-4.312732E-05
599.1008,-4.313956E-05
599.2007,-4.31066E-05
599.3007,-4.310849E-05
599.4007,-4.310472E-05
599.5007,-4.308871E-05
599.6006,-4.311979E-05
599.7006,-4.314333E-05
599.8006,-4.311225E-05
599.9006,-4.311131E-05
600.0005,-4.313015E-05
