EXPID. 0763
[电化学]: i-t : @ 0(V) X 600(sec)
起始电位 (V),0
静置时间 (秒),0
运行时间 (秒),600
记录间隔,0.1
电解液 信息:
HNO3,0.4
0.1,-0.01005814
0.2,-0.01005814
0.3,-0.01005814
0.4,-0.01005814
0.5,-0.01005814
0.6,-0.01005814
0.7,-0.01005814
0.8000001,-0.01005814
0.9000001,-0.01005814
1,-0.01005814
1.1,-0.01005814
1.2,-0.007451223
1.3,0.004208035
1.4,0.003371109
1.5,0.001228813
1.6,-0.001906228
1.7,-0.00358414
1.8,-0.004028161
1.9,-0.004151822
2,-0.004177535
2.1,-0.004190616
2.2,-0.004182725
2.3,-0.004132649
2.4,-0.004072243
2.5,-0.004011243
2.6,-0.00393645
2.7,-0.003849582
2.799999,-0.003772099
2.899999,-0.003684025
2.999999,-0.003603229
3.099999,-0.003524103
3.199999,-0.003443579
3.299999,-0.003368494
3.399999,-0.003295187
3.499999,-0.00321988
3.599999,-0.00314821
3.699999,-0.003075747
3.799999,-0.002999899
3.899998,-0.00293328
3.999998,-0.00286209
4.099998,-0.002794091
4.199998,-0.002734415
4.299998,-0.002676291
4.399998,-0.002616623
4.499998,-0.002566171
4.599998,-0.002516262
4.699998,-0.002464627
4.799998,-0.002418555
4.899998,-0.002373427
4.999998,-0.00232775
5.099998,-0.002284594
5.199997,-0.002246411
5.299997,-0.002208329
5.399997,-0.002170426
5.499997,-0.00213785
5.599997,-0.002104589
5.699997,-0.002073309
5.799997,-0.002044784
5.899997,-0.002016318
5.999997,-0.001989249
6.099997,-0.001964193
6.199996,-0.001939211
6.299996,-0.001915652
6.399996,-0.001893408
6.499996,-0.001871216
6.599996,-0.001850495
6.699996,-0.001830764
6.799996,-0.001811015
6.899996,-0.001792942
6.999996,-0.001774749
7.099996,-0.001756964
7.199996,-0.001740218
7.299995,-0.001723687
7.399995,-0.001707741
7.499995,-0.001692822
7.599995,-0.00167781
7.699995,-0.001663567
7.799995,-0.001649308
7.899995,-0.001636181
7.999995,-0.001622172
8.099995,-0.001608653
8.199995,-0.001596091
8.299995,-0.00158436
8.399996,-0.001571785
8.499996,-0.001559761
8.599997,-0.001547823
8.699997,-0.001536469
8.799997,-0.001525425
8.899998,-0.001515506
8.999998,-0.001504231
9.099998,-0.001494339
9.199999,-0.001484163
9.299999,-0.001473742
9.4,-0.001464422
9.5,-0.001455046
9.6,-0.001444721
9.700001,-0.001435742
9.800001,-0.001426517
9.900002,-0.00141772
10,-0.001409741
10.1,-0.001401106
10.2,-0.001392075
10.3,-0.001384623
10.4,-0.001376184
10.5,-0.001367881
10.6,-0.001360273
10.7,-0.001352252
10.8,-0.001344513
10.90001,-0.001336858
11.00001,-0.001329568
11.10001,-0.001321746
11.20001,-0.001314482
11.30001,-0.00130749
11.40001,-0.001300099
11.50001,-0.001293275
11.60001,-0.001286445
11.70001,-0.001279889
11.80001,-0.001273011
11.90001,-0.001266568
12.00001,-0.001259902
12.10001,-0.001253348
12.20001,-0.00124735
12.30001,-0.001241043
12.40001,-0.001235098
12.50001,-0.00122887
12.60001,-0.001223301
12.70001,-0.001217302
12.80001,-0.001211295
12.90001,-0.001206048
13.00001,-0.00120063
13.10001,-0.001194785
13.20001,-0.001189462
13.30001,-0.001183796
13.40001,-0.001178784
13.50002,-0.00117345
13.60002,-0.001167945
13.70002,-0.001162881
13.80002,-0.001158292
13.90002,-0.001153149
14.00002,-0.00114801
14.10002,-0.001143081
14.20002,-0.001137984
14.30002,-0.001133089
14.40002,-0.001128621
14.50002,-0.001123608
14.60002,-0.001118726
14.70002,-0.001114226
14.80002,-0.00110955
14.90002,-0.001104794
15.00002,-0.001100383
15.10002,-0.001095795
15.20002,-0.001091349
15.30002,-0.001087057
15.40002,-0.001082682
15.50002,-0.001078246
15.60002,-0.001074142
15.70002,-0.00106978
15.80002,-0.001065651
15.90002,-0.001061734
16.00002,-0.001057527
16.10003,-0.001053281
16.20003,-0.001049171
16.30003,-0.001045171
16.40003,-0.001041227
16.50003,-0.001037308
16.60003,-0.001033316
16.70003,-0.001029221
16.80003,-0.001025657
16.90003,-0.001021804
17.00003,-0.001017911
17.10003,-0.001014212
17.20003,-0.001010446
17.30003,-0.001006778
17.40003,-0.001003368
17.50003,-0.0009996993
17.60003,-0.0009960069
17.70003,-0.0009925197
17.80003,-0.0009891473
17.90003,-0.0009854463
18.00003,-0.0009821916
18.10003,-0.0009786452
18.20003,-0.0009751108
18.30003,-0.0009719419
18.40003,-0.0009686628
18.50003,-0.0009650833
18.60003,-0.000962114
18.70004,-0.0009588076
18.80004,-0.0009553872
18.90004,-0.0009523614
19.00004,-0.0009494477
19.10004,-0.0009461525
19.20004,-0.0009431042
19.30004,-0.0009401603
19.40004,-0.0009369594
19.50004,-0.0009338667
19.60004,-0.00093102
19.70004,-0.0009278585
19.80004,-0.000924684
19.90004,-0.0009220574
20.00004,-0.0009189771
20.10004,-0.0009159108
20.20004,-0.0009132203
20.30004,-0.0009103367
20.40004,-0.0009074192
20.50004,-0.0009046806
20.60004,-0.0009017282
20.70004,-0.0008988617
20.80004,-0.0008961476
20.90004,-0.0008933704
21.00004,-0.0008906243
21.10004,-0.0008878886
21.20004,-0.000885119
21.30005,-0.0008824266
21.40005,-0.0008796814
21.50005,-0.0008770295
21.60005,-0.0008745264
21.70005,-0.000871719
21.80005,-0.0008691708
21.90005,-0.0008664944
22.00005,-0.0008641993
22.10005,-0.0008615917
22.20005,-0.000858887
22.30005,-0.0008565063
22.40005,-0.0008539835
22.50005,-0.0008516489
22.60005,-0.0008490629
22.70005,-0.0008466945
22.80005,-0.0008443373
22.90005,-0.0008418653
23.00005,-0.0008397981
23.10005,-0.0008374249
23.20005,-0.0008348871
23.30005,-0.000832753
23.40005,-0.0008303743
23.50005,-0.0008279465
23.60005,-0.0008258332
23.70005,-0.0008240458
23.80005,-0.00082144
23.90005,-0.000819114
24.00006,-0.0008171542
24.10006,-0.0008147613
24.20006,-0.00081247
24.30006,-0.0008104764
24.40006,-0.0008080807
24.50006,-0.0008059872
24.60006,-0.0008038853
24.70006,-0.0008015761
24.80006,-0.0007994308
24.90006,-0.000797456
25.00006,-0.0007950349
25.10006,-0.0007929452
25.20006,-0.000790944
25.30006,-0.0007886019
25.40006,-0.000786564
25.50006,-0.0007846457
25.60006,-0.0007826595
25.70006,-0.0007805604
25.80006,-0.0007784594
25.90006,-0.0007764837
26.00006,-0.0007744891
26.10006,-0.0007725368
26.20006,-0.0007705677
26.30006,-0.0007685071
26.40006,-0.0007665522
26.50006,-0.0007645538
26.60007,-0.0007626091
26.70007,-0.0007607361
26.80007,-0.0007586821
26.90007,-0.0007570171
27.00007,-0.0007549755
27.10007,-0.0007532192
27.20007,-0.0007515438
27.30007,-0.0007495303
27.40007,-0.0007478183
27.50007,-0.0007458106
27.60007,-0.0007440344
27.70007,-0.000742248
27.80007,-0.0007403852
27.90007,-0.0007387325
28.00007,-0.0007368838
28.10007,-0.0007350814
28.20007,-0.000733423
28.30007,-0.0007315772
28.40007,-0.0007298237
28.50007,-0.0007285326
28.60007,-0.0007270079
28.70007,-0.0007252554
28.80007,-0.0007237543
28.90007,-0.0007221862
29.00007,-0.0007203885
29.10007,-0.0007186896
29.20008,-0.0007171527
29.30008,-0.0007156723
29.40008,-0.0007141816
29.50008,-0.0007126164
29.60008,-0.0007108205
29.70008,-0.0007091423
29.80008,-0.0007075508
29.90008,-0.0007057558
30.00008,-0.0007040533
30.10008,-0.0007024137
30.20008,-0.0007007601
30.30008,-0.0006992598
30.40008,-0.0006977615
30.50008,-0.0006960051
30.60008,-0.0006943967
30.70008,-0.0006929699
30.80008,-0.0006912476
30.90008,-0.0006896824
31.00008,-0.000688186
31.10008,-0.0006868252
31.20008,-0.0006854954
31.30008,-0.000684227
31.40008,-0.0006831412
31.50008,-0.0006819772
31.60008,-0.0006807784
31.70008,-0.000679362
31.80009,-0.0006780116
31.90009,-0.0006764002
32.00008,-0.0006749047
32.10008,-0.0006732859
32.20008,-0.0006716097
32.30008,-0.0006701321
32.40008,-0.0006686432
32.50008,-0.0006670263
32.60007,-0.0006655167
32.70007,-0.0006640156
32.80007,-0.0006624541
32.90007,-0.0006610077
33.00007,-0.0006594811
33.10007,-0.0006580384
33.20007,-0.000656655
33.30006,-0.0006551793
33.40006,-0.0006538043
33.50006,-0.0006522693
33.60006,-0.0006508294
33.70006,-0.0006494978
33.80006,-0.0006481512
33.90005,-0.0006466792
34.00005,-0.0006453259
34.10005,-0.0006439727
34.20005,-0.0006426071
34.30005,-0.0006413575
34.40005,-0.0006399316
34.50005,-0.0006385869
34.60004,-0.0006372299
34.70004,-0.0006359406
34.80004,-0.0006346213
34.90004,-0.0006333254
35.00004,-0.0006320202
35.10004,-0.0006307084
35.20004,-0.00062942
35.30003,-0.0006282269
35.40003,-0.0006269848
35.50003,-0.0006258594
35.60003,-0.0006244694
35.70003,-0.0006232357
35.80003,-0.000621938
35.90002,-0.000620759
36.00002,-0.000619416
36.10002,-0.0006182399
36.20002,-0.0006170203
36.30002,-0.0006159411
36.40002,-0.0006147112
36.50002,-0.0006134408
36.60001,-0.0006123418
36.70001,-0.0006110751
36.80001,-0.0006099422
36.90001,-0.0006087557
37.00001,-0.0006074692
37.10001,-0.000606311
37.2,-0.0006050763
37.3,-0.0006039971
37.4,-0.0006028058
37.5,-0.0006016832
37.6,-0.0006004675
37.7,-0.0005993939
37.8,-0.0005982958
37.89999,-0.0005971376
37.99999,-0.0005960488
38.09999,-0.0005949245
38.19999,-0.0005937482
38.29999,-0.0005926887
38.39999,-0.0005915041
38.49998,-0.0005904899
38.59998,-0.0005893287
38.69998,-0.0005883125
38.79998,-0.0005871364
38.89998,-0.0005860674
38.99998,-0.0005849647
39.09998,-0.000583892
39.19997,-0.0005828392
39.29997,-0.0005817619
39.39997,-0.0005807486
39.49997,-0.0005797013
39.59997,-0.0005786174
39.69997,-0.0005775806
39.79996,-0.0005765541
39.89996,-0.0005755004
39.99996,-0.0005744267
40.09996,-0.000573403
40.19996,-0.0005723577
40.29996,-0.0005713332
40.39996,-0.0005702869
40.49995,-0.000569348
40.59995,-0.000568297
40.69995,-0.0005673026
40.79995,-0.0005663099
40.89995,-0.0005653805
40.99995,-0.000564466
41.09995,-0.0005635027
41.19994,-0.00056243
41.29994,-0.0005614563
41.39994,-0.0005604486
41.49994,-0.0005594165
41.59994,-0.0005583787
41.69994,-0.0005573475
41.79993,-0.0005565442
41.89993,-0.0005556891
41.99993,-0.000554641
42.09993,-0.0005537821
42.19993,-0.0005529327
42.29993,-0.0005519495
42.39993,-0.0005512808
42.49992,-0.0005502459
42.59992,-0.0005492109
42.69992,-0.0005484764
42.79992,-0.0005475007
42.89992,-0.0005464733
42.99992,-0.0005456635
43.09991,-0.0005447274
43.19991,-0.000543714
43.29991,-0.0005427704
43.39991,-0.0005421668
43.49991,-0.0005414925
43.59991,-0.0005404443
43.69991,-0.0005395685
43.7999,-0.0005386372
43.8999,-0.0005376342
43.9999,-0.0005367039
44.0999,-0.0005357178
44.1999,-0.0005347996
44.2999,-0.0005339239
44.39989,-0.0005330349
44.49989,-0.0005320855
44.59989,-0.0005311325
44.69989,-0.0005301833
44.79989,-0.0005293517
44.89989,-0.0005285306
44.99989,-0.0005275831
45.09988,-0.0005267441
45.19988,-0.0005258824
45.29988,-0.000524902
45.39988,-0.0005240799
45.49988,-0.000523221
45.59988,-0.0005222953
45.69987,-0.0005214742
45.79987,-0.0005206143
45.89987,-0.000519747
45.99987,-0.0005189569
46.09987,-0.0005180849
46.19987,-0.0005171318
46.29987,-0.0005163737
46.39986,-0.0005155149
46.49986,-0.0005146344
46.59986,-0.0005139252
46.69986,-0.0005131417
46.79986,-0.0005122461
46.89986,-0.0005113825
46.99986,-0.0005106489
47.09985,-0.0005097561
47.19985,-0.0005090112
47.29985,-0.0005080723
47.39985,-0.0005072333
47.49985,-0.0005065628
47.59985,-0.0005056775
47.69984,-0.0005047612
47.79984,-0.000504103
47.89984,-0.0005032761
47.99984,-0.0005024417
48.09984,-0.0005017609
48.19984,-0.0005009585
48.29984,-0.0005001844
48.39983,-0.0004993585
48.49983,-0.0004985185
48.59983,-0.0004977632
48.69983,-0.0004970061
48.79983,-0.0004962771
48.89983,-0.0004954296
48.99982,-0.0004946922
49.09982,-0.0004938926
49.19982,-0.0004931374
49.29982,-0.0004924405
49.39982,-0.0004916241
49.49982,-0.000490849
49.59982,-0.0004901116
49.69981,-0.0004893836
49.79981,-0.0004886218
49.89981,-0.0004879033
49.99981,-0.0004871452
50.09981,-0.0004863259
50.19981,-0.0004856045
50.2998,-0.0004850696
50.3998,-0.0004842475
50.4998,-0.0004833312
50.5998,-0.0004826277
50.6998,-0.0004819478
50.7998,-0.0004811294
50.8998,-0.0004804287
50.99979,-0.0004796933
51.09979,-0.0004789295
51.19979,-0.0004781742
51.29979,-0.0004775612
51.39979,-0.0004768144
51.49979,-0.0004760648
51.59978,-0.0004754074
51.69978,-0.0004746474
51.79978,-0.0004739355
51.89978,-0.0004732537
51.99978,-0.0004724909
52.09978,-0.0004718402
52.19978,-0.0004711282
52.29977,-0.0004704351
52.39977,-0.0004697401
52.49977,-0.0004690244
52.59977,-0.0004683275
52.69977,-0.0004676287
52.79977,-0.0004670148
52.89977,-0.0004662736
52.99976,-0.000465604
53.09976,-0.0004649231
53.19976,-0.0004641679
53.29976,-0.00046352
53.39976,-0.0004629078
53.49976,-0.0004621874
53.59975,-0.0004615348
53.69975,-0.0004609076
53.79975,-0.0004602032
53.89975,-0.0004595553
53.99975,-0.0004589309
54.09975,-0.0004582171
54.19975,-0.0004576351
54.29974,-0.0004569683
54.39974,-0.0004562677
54.49974,-0.000455633
54.59974,-0.0004549483
54.69974,-0.0004542467
54.79974,-0.0004536478
54.89973,-0.0004530592
54.99973,-0.0004523774
55.09973,-0.0004517483
55.19973,-0.0004511221
55.29973,-0.0004504262
55.39973,-0.0004498093
55.49973,-0.0004492141
55.59972,-0.0004485153
55.69972,-0.0004478872
55.79972,-0.0004472958
55.89972,-0.0004466197
55.99972,-0.0004460198
56.09972,-0.0004454039
56.19971,-0.0004447013
56.29971,-0.0004441796
56.39971,-0.0004435524
56.49971,-0.000442865
56.59971,-0.0004423131
56.69971,-0.0004417679
56.79971,-0.0004411915
56.8997,-0.000440585
56.9997,-0.0004400529
57.0997,-0.0004393872
57.1997,-0.0004388278
57.2997,-0.0004381968
57.3997,-0.0004375687
57.49969,-0.0004370413
57.59969,-0.0004363783
57.69969,-0.0004357248
57.79969,-0.0004351635
57.89969,-0.000434541
57.99969,-0.000433944
58.09969,-0.0004333949
58.19968,-0.0004327687
58.29968,-0.0004321622
58.39968,-0.0004316132
58.49968,-0.0004310688
58.59968,-0.0004305113
58.69968,-0.0004299416
58.79967,-0.0004293615
58.89967,-0.000428755
58.99967,-0.0004282145
59.09967,-0.0004276541
59.19967,-0.000427042
59.29967,-0.0004264233
59.39967,-0.0004258375
59.49966,-0.0004252819
59.59966,-0.0004246811
59.69966,-0.0004241688
59.79966,-0.0004236226
59.89966,-0.0004230218
59.99966,-0.0004224916
60.09966,-0.0004219265
60.19965,-0.0004214067
60.29965,-0.0004209631
60.39965,-0.0004203953
60.49965,-0.0004199037
60.59965,-0.0004192953
60.69965,-0.0004187416
60.79964,-0.0004181916
60.89964,-0.0004177048
60.99964,-0.0004172245
61.09964,-0.0004165549
61.19964,-0.0004159898
61.29964,-0.0004154879
61.39964,-0.000414937
61.49963,-0.0004145952
61.59963,-0.0004140131
61.69963,-0.0004133869
61.79963,-0.0004129047
61.89963,-0.0004123501
61.99963,-0.0004117389
62.09962,-0.0004112906
62.19962,-0.0004107359
62.29962,-0.0004100795
62.39962,-0.0004095983
62.49962,-0.0004090502
62.59962,-0.0004084645
62.69962,-0.0004079701
62.79961,-0.0004074559
62.89961,-0.0004068673
62.99961,-0.0004063625
63.09961,-0.0004058031
63.19961,-0.0004051967
63.29961,-0.0004047531
63.3996,-0.0004042399
63.4996,-0.0004036861
63.5996,-0.0004031343
63.6996,-0.0004026295
63.7996,-0.000402039
63.8996,-0.0004015465
63.9996,-0.0004010455
64.09959,-0.0004004861
64.19959,-0.0003999945
64.29959,-0.0003994964
64.39959,-0.0003989812
64.49959,-0.0003984869
64.59959,-0.0003980329
64.69958,-0.0003974839
64.79958,-0.0003969424
64.89958,-0.0003964602
64.99958,-0.0003959253
65.09958,-0.0003954629
65.19958,-0.0003949855
65.29958,-0.0003944854
65.39957,-0.0003940117
65.49957,-0.0003935634
65.59957,-0.0003930116
65.69957,-0.0003925153
65.79957,-0.0003920784
65.89957,-0.0003915557
65.99957,-0.0003910283
66.09956,-0.0003905386
66.19956,-0.0003900075
66.29956,-0.0003895799
66.39956,-0.0003890695
66.49956,-0.0003885318
66.59956,-0.0003881024
66.69955,-0.000387622
66.79955,-0.000387122
66.89955,-0.0003867077
66.99955,-0.0003861765
67.09955,-0.0003856783
67.19955,-0.0003852423
67.29955,-0.0003847677
67.39954,-0.0003842808
67.49954,-0.0003838429
67.59954,-0.0003833786
67.69954,-0.0003828795
67.79954,-0.0003823776
67.89954,-0.0003819623
67.99953,-0.0003814904
68.09953,-0.000381014
68.19953,-0.0003805553
68.29953,-0.0003800675
68.39953,-0.0003796399
68.49953,-0.0003792199
68.59953,-0.000378669
68.69952,-0.0003782321
68.79952,-0.000377796
68.89952,-0.0003773157
68.99952,-0.0003768562
69.09952,-0.0003764089
69.19952,-0.0003759343
69.29951,-0.0003755359
69.39951,-0.0003751178
69.49951,-0.0003746554
69.59951,-0.0003742137
69.69951,-0.0003736901
69.79951,-0.0003732032
69.89951,-0.0003728275
69.9995,-0.0003723641
70.0995,-0.0003719065
70.1995,-0.000371494
70.2995,-0.000371042
70.3995,-0.0003706153
70.4995,-0.0003702048
70.59949,-0.0003697348
70.69949,-0.0003692677
70.79949,-0.0003688675
70.89949,-0.0003684315
70.99949,-0.0003679653
71.09949,-0.0003675443
71.19949,-0.000367115
71.29948,-0.0003666262
71.39948,-0.0003661779
71.49948,-0.0003657664
71.59948,-0.0003653181
71.69948,-0.0003649047
71.79948,-0.0003644536
71.89948,-0.0003640439
71.99947,-0.0003636531
72.09947,-0.0003632906
72.19947,-0.0003628037
72.29947,-0.0003623837
72.39947,-0.0003619232
72.49947,-0.0003614871
72.59946,-0.0003611424
72.69946,-0.0003606839
72.79946,-0.0003602196
72.89946,-0.000359825
72.99946,-0.0003594257
73.09946,-0.0003589539
73.19946,-0.000358597
73.29945,-0.0003581723
73.39945,-0.0003577447
73.49945,-0.0003573727
73.59945,-0.0003569188
73.69945,-0.0003565327
73.79945,-0.0003561259
73.89944,-0.000355688
73.99944,-0.000355234
74.09944,-0.0003548818
74.19944,-0.0003544863
74.29944,-0.0003540597
74.39944,-0.0003536934
74.49944,-0.0003533883
74.59943,-0.0003529729
74.69943,-0.0003525294
74.79943,-0.0003521753
74.89943,-0.0003517788
74.99943,-0.0003513362
75.09943,-0.0003509859
75.19942,-0.0003505527
75.29942,-0.0003501138
75.39942,-0.0003497729
75.49942,-0.0003494179
75.59942,-0.0003489857
75.69942,-0.0003487031
75.79942,-0.0003482653
75.89941,-0.0003478377
75.99941,-0.0003475128
76.09941,-0.0003471285
76.19941,-0.0003467029
76.29941,-0.0003463488
76.39941,-0.0003459711
76.4994,-0.000345522
76.5994,-0.0003451142
76.6994,-0.0003447422
76.7994,-0.0003443344
76.8994,-0.0003439832
76.9994,-0.0003436159
77.0994,-0.0003431544
77.19939,-0.0003428267
77.29939,-0.0003424171
77.39939,-0.0003420244
77.49939,-0.0003416759
77.59939,-0.0003413444
77.69939,-0.0003409451
77.79939,-0.0003406155
77.89938,-0.0003401833
77.99938,-0.0003397237
78.09938,-0.0003393951
78.19938,-0.0003390165
78.29938,-0.0003385795
78.39938,-0.0003382556
78.49937,-0.0003378534
78.59937,-0.0003374513
78.69937,-0.0003370972
78.79937,-0.0003367686
78.89937,-0.0003363495
78.99937,-0.0003359916
79.09937,-0.0003356893
79.19936,-0.0003352712
79.29936,-0.0003349021
79.39936,-0.0003345131
79.49936,-0.0003340997
79.59936,-0.0003338464
79.69936,-0.0003334462
79.79935,-0.0003330553
79.89935,-0.0003327059
79.99935,-0.0003323584
80.09935,-0.0003319215
80.19935,-0.0003315363
80.29935,-0.000331218
80.39935,-0.0003308404
80.49934,-0.000330475
80.59934,-0.000330168
80.69934,-0.0003298054
80.79934,-0.0003295596
80.89934,-0.0003291773
80.99934,-0.0003287525
81.09933,-0.0003285134
81.19933,-0.0003282083
81.29933,-0.0003277854
81.39933,-0.000327534
81.49933,-0.0003272185
81.59933,-0.0003268427
81.69933,-0.0003265527
81.79932,-0.0003262231
81.89932,-0.0003257428
81.99932,-0.0003253802
82.09932,-0.0003249969
82.19932,-0.0003246184
82.29932,-0.00032435
82.39931,-0.0003240307
82.49931,-0.0003236022
82.59931,-0.0003232773
82.69931,-0.0003229326
82.79931,-0.000322588
82.89931,-0.0003222179
82.99931,-0.0003218346
83.0993,-0.0003214805
83.1993,-0.0003211302
83.2993,-0.0003208138
83.3993,-0.0003204615
83.4993,-0.0003201536
83.5993,-0.0003197986
83.6993,-0.0003194549
83.79929,-0.0003190847
83.89929,-0.0003187278
83.99929,-0.000318401
84.09929,-0.00031803
84.19929,-0.0003177098
84.29929,-0.0003173708
84.39928,-0.0003170177
84.49928,-0.0003166636
84.59928,-0.0003163245
84.69928,-0.0003160006
84.79928,-0.0003157275
84.89928,-0.0003154007
84.99928,-0.0003150372
85.09927,-0.0003147387
85.19927,-0.0003144401
85.29927,-0.0003140352
85.39927,-0.0003137442
85.49927,-0.000313424
85.59927,-0.0003130727
85.69926,-0.0003128128
85.79926,-0.0003125011
85.89926,-0.0003121705
85.99926,-0.0003118174
86.09926,-0.0003115029
86.19926,-0.0003111384
86.29926,-0.0003108305
86.39925,-0.0003104999
86.49925,-0.000310175
86.59925,-0.0003098558
86.69925,-0.0003095214
86.79925,-0.000309206
86.89925,-0.0003088895
86.99924,-0.0003086249
87.09924,-0.0003082765
87.19924,-0.0003079478
87.29924,-0.0003076098
87.39924,-0.0003072359
87.49924,-0.0003069505
87.59924,-0.0003066407
87.69923,-0.000306329
87.79923,-0.000306054
87.89923,-0.0003057338
87.99923,-0.0003053939
88.09923,-0.0003051311
88.19923,-0.0003048128
88.29922,-0.0003044351
88.39922,-0.0003041997
88.49922,-0.0003038984
88.59922,-0.0003035406
88.69922,-0.0003032552
88.79922,-0.0003029661
88.89922,-0.0003026365
88.99921,-0.0003023267
89.09921,-0.0003020064
89.19921,-0.0003016458
89.29921,-0.0003013811
89.39921,-0.0003011316
89.49921,-0.000300786
89.59921,-0.0003004922
89.6992,-0.0003002115
89.7992,-0.0002998819
89.8992,-0.0002996126
89.9992,-0.0002993121
90.0992,-0.0002989778
90.1992,-0.0002986981
90.29919,-0.0002984279
90.39919,-0.0002980822
90.49919,-0.0002978101
90.59919,-0.0002974956
90.69919,-0.0002971914
90.79919,-0.0002969098
90.89919,-0.0002966103
90.99918,-0.0002962873
91.09918,-0.0002960575
91.19918,-0.0002957948
91.29918,-0.0002954576
91.39918,-0.0002951732
91.49918,-0.0002949105
91.59917,-0.0002945912
91.69917,-0.0002943398
91.79917,-0.000294062
91.89917,-0.0002937588
91.99917,-0.000293594
92.09917,-0.0002934009
92.19917,-0.0002930289
92.29916,-0.0002928114
92.39916,-0.0002925938
92.49916,-0.0002922284
92.59916,-0.0002919507
92.69916,-0.0002916653
92.79916,-0.0002913169
92.89915,-0.0002911473
92.99915,-0.0002909581
93.09915,-0.0002905597
93.19915,-0.0002903374
93.29915,-0.0002901651
93.39915,-0.0002897517
93.49915,-0.0002894212
93.59914,-0.000289117
93.69914,-0.0002888759
93.79914,-0.0002885971
93.89914,-0.0002883278
93.99914,-0.000288001
94.09914,-0.0002876931
94.19913,-0.000287435
94.29913,-0.000287128
94.39913,-0.0002868756
94.49913,-0.0002865912
94.59913,-0.0002862833
94.69913,-0.0002860319
94.79913,-0.0002857879
94.89912,-0.0002855346
94.99912,-0.0002851984
95.09912,-0.0002848641
95.19912,-0.0002846438
95.29912,-0.0002844205
95.39912,-0.0002842247
95.49911,-0.0002838565
95.59911,-0.0002835966
95.69911,-0.0002833395
95.79911,-0.0002830494
95.89911,-0.0002827669
95.99911,-0.0002824909
96.09911,-0.0002822508
96.1991,-0.0002819758
96.2991,-0.0002817244
96.3991,-0.0002814042
96.4991,-0.0002811631
96.5991,-0.0002808787
96.6991,-0.0002806367
96.7991,-0.0002803532
96.89909,-0.0002800547
96.99909,-0.0002798221
97.09909,-0.0002795537
97.19909,-0.0002792778
97.29909,-0.0002790461
97.39909,-0.000278772
97.49908,-0.0002785235
97.59908,-0.0002782042
97.69908,-0.0002779283
97.79908,-0.0002776975
97.89908,-0.0002775092
97.99908,-0.000277206
98.09908,-0.0002769432
98.19907,-0.0002766842
98.29907,-0.0002764902
98.39907,-0.0002761889
98.49907,-0.0002759544
98.59907,-0.0002757227
98.69907,-0.0002754496
98.79906,-0.0002751464
98.89906,-0.0002749345
98.99906,-0.0002746849
99.09906,-0.0002743968
99.19906,-0.0002741265
99.29906,-0.000273923
99.39906,-0.0002736792
99.49905,-0.0002733853
99.59905,-0.0002731603
99.69905,-0.0002728938
99.79905,-0.0002726395
99.89905,-0.0002723824
99.99905,-0.0002721602
100.099,-0.0002718871
100.199,-0.0002715951
100.299,-0.0002713672
100.399,-0.0002711318
100.499,-0.0002708813
100.599,-0.0002706524
100.699,-0.0002703925
100.799,-0.0002701053
100.899,-0.0002698746
100.999,-0.000269642
101.099,-0.0002694047
101.199,-0.0002691824
101.299,-0.0002689065
101.399,-0.0002686691
101.499,-0.0002684074
101.599,-0.0002681813
101.699,-0.0002679139
101.799,-0.0002676361
101.899,-0.0002674166
101.999,-0.0002672029
102.099,-0.0002669618
102.199,-0.0002667556
102.299,-0.0002664872
102.399,-0.0002662009
102.499,-0.0002659824
102.599,-0.0002657479
102.699,-0.0002654757
102.799,-0.000265262
102.899,-0.0002650105
102.999,-0.0002647393
103.099,-0.0002645011
103.199,-0.0002643071
103.299,-0.000264099
103.399,-0.0002638899
103.499,-0.0002635904
103.599,-0.0002633333
103.699,-0.0002631308
103.799,-0.0002629058
103.899,-0.0002626383
103.999,-0.0002624123
104.099,-0.0002621496
104.199,-0.0002619593
104.299,-0.0002617729
104.399,-0.0002615431
104.499,-0.0002612549
104.599,-0.0002610684
104.699,-0.0002608594
104.799,-0.0002605882
104.899,-0.0002603527
104.999,-0.0002601342
105.099,-0.0002598498
105.199,-0.0002596804
105.299,-0.0002594694
105.399,-0.0002592368
105.499,-0.0002589891
105.599,-0.0002587132
105.699,-0.0002584646
105.799,-0.0002582527
105.899,-0.0002580784
105.999,-0.0002578289
106.099,-0.0002575652
106.199,-0.0002573646
106.299,-0.0002571584
106.3989,-0.0002569587
106.4989,-0.0002567704
106.5989,-0.0002565745
106.6989,-0.0002563523
106.7989,-0.0002561328
106.8989,-0.000255856
106.9989,-0.000255597
107.0989,-0.0002553766
107.1989,-0.0002551581
107.2989,-0.0002549689
107.3989,-0.0002547833
107.4989,-0.000254497
107.5989,-0.0002542927
107.6989,-0.0002540704
107.7989,-0.0002538557
107.8989,-0.0002536099
107.9989,-0.0002533839
108.0989,-0.0002531927
108.1989,-0.0002529846
108.2989,-0.0002528264
108.3989,-0.0002525919
108.4989,-0.0002523687
108.5989,-0.0002521267
108.6989,-0.0002519318
108.7989,-0.0002516926
108.8989,-0.0002514731
108.9989,-0.0002512556
109.0989,-0.0002510381
109.1989,-0.0002508205
109.2989,-0.0002505888
109.3989,-0.0002503666
109.4989,-0.0002501896
109.5989,-0.0002499664
109.6989,-0.0002497234
109.7989,-0.0002495059
109.8989,-0.0002493119
109.9989,-0.0002490745
110.0989,-0.0002489258
110.1989,-0.0002486799
110.2989,-0.0002484474
110.3989,-0.0002482496
110.4989,-0.0002480189
110.5989,-0.000247823
110.6989,-0.0002476299
110.7989,-0.0002473936
110.8989,-0.0002471544
110.9989,-0.0002469227
111.0989,-0.0002467108
111.1989,-0.0002464697
111.2989,-0.0002462861
111.3989,-0.0002460582
111.4989,-0.0002457813
111.5989,-0.0002455835
111.6989,-0.0002453924
111.7989,-0.0002451843
111.8989,-0.0002449827
111.9989,-0.0002447464
112.0989,-0.0002445552
112.1989,-0.0002443734
112.2989,-0.000244154
112.3989,-0.0002439402
112.4989,-0.0002437236
112.5989,-0.0002435127
112.6989,-0.0002433281
112.7989,-0.0002431275
112.8988,-0.0002428733
112.9988,-0.0002426548
113.0988,-0.0002424824
113.1988,-0.0002422762
113.2988,-0.0002420775
113.3988,-0.0002418788
113.4988,-0.0002416961
113.5988,-0.0002414823
113.6988,-0.0002412959
113.7988,-0.0002411009
113.8988,-0.0002408645
113.9988,-0.0002406866
114.0988,-0.0002404878
114.1988,-0.0002402713
114.2988,-0.000240098
114.3988,-0.0002398936
114.4988,-0.0002397119
114.5988,-0.0002395678
114.6988,-0.000239403
114.7988,-0.0002391308
114.8988,-0.000238902
114.9988,-0.0002387023
115.0988,-0.0002384763
115.1988,-0.0002383058
115.2988,-0.000238077
115.3988,-0.0002379141
115.4988,-0.0002377116
115.5988,-0.000237512
115.6988,-0.0002373199
115.7988,-0.0002371447
115.8988,-0.0002369865
115.9988,-0.0002367784
116.0988,-0.0002365947
116.1988,-0.0002363621
116.2988,-0.0002361483
116.3988,-0.0002359779
116.4988,-0.0002357783
116.5988,-0.0002355447
116.6988,-0.0002354006
116.7988,-0.0002352057
116.8988,-0.0002350051
116.9988,-0.0002348262
117.0988,-0.0002346434
117.1988,-0.000234473
117.2988,-0.0002342696
117.3988,-0.0002340511
117.4988,-0.0002339023
117.5988,-0.0002337488
117.6988,-0.0002335501
117.7988,-0.0002333731
117.8988,-0.0002332149
117.9988,-0.0002330727
118.0988,-0.0002328956
118.1988,-0.0002326847
118.2988,-0.0002324746
118.3988,-0.0002322929
118.4988,-0.0002321375
118.5988,-0.000232
118.6988,-0.0002318183
118.7988,-0.000231693
118.8988,-0.0002314209
118.9988,-0.000231224
119.0988,-0.0002310508
119.1988,-0.0002308445
119.2988,-0.0002306778
119.3988,-0.0002304942
119.4987,-0.0002303482
119.5987,-0.0002301354
119.6987,-0.0002299131
119.7987,-0.0002297747
119.8987,-0.0002296024
119.9987,-0.0002294121
120.0987,-0.0002292633
120.1987,-0.0002290882
120.2987,-0.0002288349
120.3987,-0.0002286748
120.4987,-0.0002284638
120.5987,-0.0002283028
120.6987,-0.0002282199
120.7987,-0.0002279562
120.8987,-0.000227733
120.9987,-0.0002275475
121.0987,-0.0002274072
121.1987,-0.000227217
121.2987,-0.0002270974
121.3987,-0.0002268977
121.4987,-0.0002266783
121.5987,-0.000226538
121.6987,-0.0002263431
121.7987,-0.0002261688
121.8987,-0.0002259852
121.9987,-0.0002257856
122.0987,-0.000225584
122.1987,-0.0002254428
122.2987,-0.0002252902
122.3987,-0.0002250717
122.4987,-0.0002248871
122.5987,-0.0002247289
122.6987,-0.000224549
122.7987,-0.0002243814
122.8987,-0.0002241836
122.9987,-0.0002240141
123.0987,-0.0002238324
123.1987,-0.0002236525
123.2987,-0.0002234708
123.3987,-0.0002233182
123.4987,-0.000223176
123.5987,-0.0002229905
123.6987,-0.0002227776
123.7987,-0.0002225855
123.8987,-0.0002224367
123.9987,-0.0002222531
124.0987,-0.0002220214
124.1987,-0.0002219338
124.2987,-0.0002218359
124.3987,-0.0002217455
124.4987,-0.0002214818
124.5987,-0.0002213245
124.6987,-0.0002212049
124.7987,-0.0002210609
124.8987,-0.000220881
124.9987,-0.0002206974
125.0987,-0.0002204808
125.1987,-0.0002203037
125.2987,-0.0002201709
125.3987,-0.0002199515
125.4987,-0.0002197895
125.5987,-0.0002196191
125.6987,-0.0002194336
125.7987,-0.0002192716
125.8987,-0.0002190983
125.9986,-0.0002189316
126.0986,-0.0002188073
126.1986,-0.0002186557
126.2986,-0.0002184297
126.3986,-0.0002182771
126.4986,-0.0002181085
126.5986,-0.0002179089
126.6986,-0.0002177658
126.7986,-0.0002176744
126.8986,-0.000217503
126.9986,-0.0002173297
127.0986,-0.0002171292
127.1986,-0.0002169945
127.2986,-0.000216825
127.3986,-0.0002166442
127.4986,-0.0002164596
127.5986,-0.0002162938
127.6986,-0.0002161168
127.7986,-0.0002159652
127.8986,-0.0002157947
127.9986,-0.0002155988
128.0986,-0.0002154585
128.1986,-0.0002153201
128.2986,-0.0002151044
128.3986,-0.0002149895
128.4986,-0.0002148935
128.5986,-0.0002147089
128.6987,-0.0002145168
128.7987,-0.0002143661
128.8987,-0.0002141994
128.9987,-0.0002140186
129.0987,-0.000213851
129.1987,-0.0002136617
129.2987,-0.0002135195
129.3987,-0.0002134479
129.4987,-0.0002132332
129.5987,-0.0002130147
129.6987,-0.0002129055
129.7987,-0.0002127341
129.8987,-0.0002125683
129.9987,-0.0002124233
130.0987,-0.0002122491
130.1987,-0.0002120683
130.2988,-0.0002119675
130.3988,-0.0002118018
130.4988,-0.0002116002
130.5988,-0.0002114486
130.6988,-0.0002112725
130.7988,-0.0002111322
130.8988,-0.0002110004
130.9988,-0.0002107951
131.0988,-0.0002106302
131.1988,-0.0002105803
131.2988,-0.0002104325
131.3988,-0.0002101763
131.4988,-0.0002100304
131.5988,-0.0002098882
131.6988,-0.0002097441
131.7988,-0.0002095943
131.8988,-0.00020939
131.9989,-0.0002092111
132.0989,-0.0002090755
132.1989,-0.0002089088
132.2989,-0.0002087402
132.3989,-0.0002085867
132.4989,-0.0002084181
132.5989,-0.0002082411
132.6989,-0.0002081196
132.7989,-0.0002079595
132.8989,-0.0002078022
132.9989,-0.0002076789
133.0989,-0.0002074745
133.1989,-0.0002073201
133.2989,-0.0002072457
133.3989,-0.0002070997
133.4989,-0.0002069085
133.599,-0.0002067522
133.699,-0.0002066147
133.799,-0.0002064264
133.899,-0.0002063152
133.999,-0.0002061561
134.099,-0.000205948
134.199,-0.0002058255
134.299,-0.000205737
134.399,-0.0002055421
134.499,-0.0002053622
134.599,-0.0002051993
134.699,-0.0002050543
134.799,-0.0002049234
134.899,-0.0002047652
134.999,-0.000204574
135.099,-0.0002045033
135.1991,-0.0002043489
135.2991,-0.00020417
135.3991,-0.0002040334
135.4991,-0.0002038714
135.5991,-0.0002037584
135.6991,-0.0002036247
135.7991,-0.0002034599
135.8991,-0.0002033234
135.9991,-0.0002031793
136.0991,-0.0002030154
136.1991,-0.0002028751
136.2991,-0.0002027536
136.3991,-0.0002025766
136.4991,-0.0002024212
136.5991,-0.0002023308
136.6991,-0.0002021858
136.7991,-0.000201972
136.8992,-0.0002018524
136.9992,-0.0002017403
137.0992,-0.0002015868
137.1992,-0.0002014342
137.2992,-0.000201261
137.3992,-0.000201131
137.4992,-0.0002011028
137.5992,-0.0002009201
137.6992,-0.0002007534
137.7992,-0.0002006055
137.8992,-0.0002004869
137.9992,-0.0002003324
138.0992,-0.0002002015
138.1992,-0.0002000537
138.2992,-0.0001998663
138.3992,-0.0001997749
138.4993,-0.0001995988
138.5993,-0.0001994171
138.6993,-0.0001993012
138.7993,-0.0001991506
138.8993,-0.000198997
138.9993,-0.000198884
139.0993,-0.0001988115
139.1993,-0.0001986119
139.2993,-0.0001985186
139.3993,-0.0001983717
139.4993,-0.0001982126
139.5993,-0.0001980939
139.6993,-0.0001979197
139.7993,-0.0001978086
139.8993,-0.0001976871
139.9993,-0.0001975694
140.0993,-0.0001973971
140.1994,-0.0001972643
140.2994,-0.0001971173
140.3994,-0.0001969912
140.4994,-0.0001968979
140.5994,-0.0001967256
140.6994,-0.0001965382
140.7994,-0.0001964176
140.8994,-0.0001962764
140.9994,-0.0001961257
141.0994,-0.0001960089
141.1994,-0.0001958856
141.2994,-0.0001957547
141.3994,-0.0001955889
141.4994,-0.0001954703
141.5994,-0.0001953497
141.6994,-0.0001951793
141.7995,-0.000195055
141.8995,-0.0001948741
141.9995,-0.0001947837
142.0995,-0.000194651
142.1995,-0.000194505
142.2995,-0.0001943703
142.3995,-0.0001942187
142.4995,-0.0001940831
142.5995,-0.000193971
142.6995,-0.0001938627
142.7995,-0.0001937337
142.8995,-0.0001935896
142.9995,-0.0001934719
143.0995,-0.0001933146
143.1995,-0.0001931743
143.2995,-0.000193067
143.3996,-0.0001929464
143.4996,-0.0001927891
143.5996,-0.0001926582
143.6996,-0.0001925001
143.7996,-0.0001923833
143.8996,-0.0001922656
143.9996,-0.0001921469
144.0996,-0.0001920301
144.1996,-0.0001918757
144.2996,-0.0001917429
144.3996,-0.0001916092
144.4996,-0.0001914698
144.5996,-0.0001913201
144.6996,-0.0001911854
144.7996,-0.0001910752
144.8996,-0.000190966
144.9996,-0.0001908285
145.0997,-0.0001907079
145.1997,-0.0001905949
145.2997,-0.0001905149
145.3997,-0.0001903755
145.4997,-0.0001901871
145.5997,-0.0001900657
145.6997,-0.0001899159
145.7997,-0.0001897813
145.8997,-0.0001896325
145.9997,-0.0001895129
146.0997,-0.0001893669
146.1997,-0.0001892445
146.2997,-0.0001891221
146.3997,-0.0001890166
146.4997,-0.0001888725
146.5997,-0.0001887378
146.6998,-0.000188622
146.7998,-0.0001884873
146.8998,-0.0001883611
146.9998,-0.00018825
147.0998,-0.0001881229
147.1998,-0.0001880061
147.2998,-0.0001878752
147.3998,-0.0001877556
147.4998,-0.0001876407
147.5998,-0.0001875032
147.6998,-0.0001874024
147.7998,-0.0001872687
147.8998,-0.0001871491
147.9998,-0.0001870079
148.0998,-0.0001868901
148.1998,-0.0001867658
148.2999,-0.0001866349
148.3999,-0.0001865417
148.4999,-0.0001863797
148.5999,-0.0001862733
148.6999,-0.0001861603
148.7999,-0.0001860511
148.8999,-0.0001859399
148.9999,-0.0001858665
149.0999,-0.0001857817
149.1999,-0.0001856009
149.2999,-0.0001854907
149.3999,-0.000185341
149.4999,-0.0001851658
149.5999,-0.0001851319
149.6999,-0.0001849747
149.7999,-0.0001848268
149.8999,-0.0001847016
150,-0.0001845904
150.1,-0.0001844868
150.2,-0.0001843908
150.3,-0.0001842307
150.4,-0.0001840989
150.5,-0.0001839877
150.6,-0.0001838662
150.7,-0.0001837645
150.8,-0.00018366
150.9,-0.0001835206
151,-0.0001833944
151.1,-0.0001832664
151.2,-0.0001831373
151.3,-0.0001830215
151.4,-0.0001829
151.5,-0.000182772
151.6001,-0.0001826552
151.7001,-0.0001825422
151.8001,-0.0001824103
151.9001,-0.0001822757
152.0001,-0.0001821702
152.1001,-0.0001820675
152.2001,-0.0001819197
152.3001,-0.0001818057
152.4001,-0.000181656
152.5001,-0.0001815543
152.6001,-0.0001814394
152.7001,-0.0001813104
152.8001,-0.0001811917
152.9001,-0.0001810571
153.0001,-0.0001809572
153.1001,-0.0001808489
153.2001,-0.0001807322
153.3002,-0.000180558
153.4002,-0.0001804647
153.5002,-0.0001803828
153.6002,-0.0001802613
153.7002,-0.0001801737
153.8002,-0.0001800984
153.9002,-0.0001799731
154.0002,-0.0001798177
154.1002,-0.000179765
154.2002,-0.000179652
154.3002,-0.0001794947
154.4002,-0.0001793921
154.5002,-0.0001792405
154.6002,-0.0001791566
154.7002,-0.0001790465
154.8002,-0.0001789269
154.9003,-0.0001787781
155.0003,-0.0001787037
155.1003,-0.0001785869
155.2003,-0.0001784786
155.3003,-0.0001784004
155.4003,-0.0001782667
155.5003,-0.0001781302
155.6003,-0.0001779964
155.7003,-0.0001779249
155.8003,-0.0001778015
155.9003,-0.0001776414
156.0003,-0.000177535
156.1003,-0.0001774427
156.2003,-0.0001773316
156.3003,-0.0001772167
156.4003,-0.0001771018
156.5004,-0.0001769878
156.6004,-0.0001768588
156.7004,-0.0001767599
156.8004,-0.0001766573
156.9004,-0.0001765405
157.0004,-0.000176469
157.1004,-0.0001763324
157.2004,-0.0001762354
157.3004,-0.000176128
157.4004,-0.000175999
157.5004,-0.0001758813
157.6004,-0.0001757768
157.7004,-0.0001756751
157.8004,-0.0001755347
157.9004,-0.000175434
158.0004,-0.0001753313
158.1004,-0.0001751807
158.2005,-0.0001750865
158.3005,-0.0001749518
158.4005,-0.0001748426
158.5005,-0.0001747597
158.6005,-0.0001746401
158.7005,-0.0001744979
158.8005,-0.0001743877
158.9005,-0.0001742973
159.0005,-0.0001741834
159.1005,-0.0001741005
159.2005,-0.0001739545
159.3005,-0.0001738387
159.4005,-0.000173785
159.5005,-0.000173656
159.6005,-0.0001735486
159.7005,-0.0001734215
159.8006,-0.0001733076
159.9006,-0.0001731927
160.0006,-0.0001731409
160.1006,-0.0001729987
160.2006,-0.0001728734
160.3006,-0.0001727755
160.4006,-0.0001726483
160.5006,-0.0001725626
160.6006,-0.0001724647
160.7006,-0.0001723272
160.8006,-0.0001721765
160.9006,-0.0001721445
161.0006,-0.0001719976
161.1006,-0.0001719072
161.2006,-0.000171813
161.3006,-0.000171701
161.4007,-0.0001715757
161.5007,-0.0001715164
161.6007,-0.000171393
161.7007,-0.0001712725
161.8007,-0.0001711745
161.9007,-0.0001710983
162.0007,-0.0001709777
162.1007,-0.0001708628
162.2007,-0.0001707328
162.3007,-0.0001706057
162.4007,-0.0001705172
162.5007,-0.0001704061
162.6007,-0.0001702846
162.7007,-0.0001701857
162.8007,-0.0001700501
162.9007,-0.0001699833
163.0007,-0.0001698853
163.1008,-0.0001697412
163.2008,-0.0001696405
163.3008,-0.0001695604
163.4008,-0.0001694643
163.5008,-0.0001693551
163.6008,-0.0001692543
163.7008,-0.0001691592
163.8008,-0.0001690594
163.9008,-0.0001689718
164.0008,-0.0001688588
164.1008,-0.0001687646
164.2008,-0.000168678
164.3008,-0.0001685603
164.4008,-0.0001684322
164.5008,-0.0001683286
164.6008,-0.0001682071
164.7009,-0.0001681205
164.8009,-0.000168016
164.9009,-0.0001678653
165.0009,-0.0001677758
165.1009,-0.0001677419
165.2009,-0.0001676214
165.3009,-0.0001674999
165.4009,-0.0001674048
165.5009,-0.0001673379
165.6009,-0.0001671882
165.7009,-0.0001670686
165.8009,-0.0001669462
165.9009,-0.0001668548
166.0009,-0.0001667672
166.1009,-0.0001666175
166.2009,-0.0001665167
166.3009,-0.000166415
166.401,-0.0001663133
166.501,-0.0001662304
166.601,-0.0001661193
166.701,-0.0001659837
166.801,-0.0001659159
166.901,-0.0001658424
167.001,-0.000165752
167.101,-0.0001656268
167.201,-0.0001655279
167.301,-0.0001654149
167.401,-0.0001653075
167.501,-0.0001652002
167.601,-0.0001651116
167.701,-0.0001650137
167.801,-0.0001649384
167.901,-0.0001648386
168.0011,-0.0001647227
168.1011,-0.0001646483
168.2011,-0.000164541
168.3011,-0.0001644722
168.4011,-0.0001643809
168.5011,-0.0001642594
168.6011,-0.0001641483
168.7011,-0.000164056
168.8011,-0.0001639627
168.9011,-0.000163862
169.0011,-0.0001637669
169.1011,-0.0001636209
169.2011,-0.000163538
169.3011,-0.0001635211
169.4011,-0.0001634467
169.5011,-0.0001633224
169.6012,-0.0001632433
169.7012,-0.00016315
169.8012,-0.0001630662
169.9012,-0.000163021
170.0012,-0.0001628543
170.1012,-0.0001627592
170.2012,-0.0001627715
170.3012,-0.0001626104
170.4012,-0.0001624852
170.5012,-0.0001623882
170.6012,-0.0001623034
170.7012,-0.0001622366
170.8012,-0.0001621603
170.9012,-0.0001620171
171.0012,-0.0001618759
171.1012,-0.0001618467
171.2012,-0.0001617177
171.3013,-0.000161615
171.4013,-0.0001615472
171.5013,-0.0001614408
171.6013,-0.0001613391
171.7013,-0.0001612477
171.8013,-0.0001611658
171.9013,-0.0001610566
172.0013,-0.0001609812
172.1013,-0.0001608805
172.2013,-0.0001607948
172.3013,-0.0001607703
172.4013,-0.0001606902
172.5013,-0.0001605414
172.6013,-0.0001604143
172.7013,-0.0001603475
172.8013,-0.0001602278
172.9014,-0.0001601421
173.0014,-0.0001600386
173.1014,-0.0001599077
173.2014,-0.0001598709
173.3014,-0.000159805
173.4014,-0.000159676
173.5014,-0.0001596063
173.6014,-0.0001595008
173.7014,-0.0001593558
173.8014,-0.0001592833
173.9014,-0.0001592089
174.0014,-0.0001590893
174.1014,-0.0001590074
174.2014,-0.0001588906
174.3014,-0.0001588049
174.4014,-0.000158738
174.5014,-0.0001586212
174.6015,-0.0001585308
174.7015,-0.0001584734
174.8015,-0.0001583745
174.9015,-0.0001582813
175.0015,-0.0001581852
175.1015,-0.0001580835
175.2015,-0.0001579762
175.3015,-0.0001579084
175.4015,-0.0001578189
175.5015,-0.0001577012
175.6015,-0.0001576042
175.7015,-0.0001575439
175.8015,-0.0001574479
175.9015,-0.0001573565
176.0015,-0.0001572586
176.1015,-0.0001571474
176.2016,-0.0001570617
176.3016,-0.0001569836
176.4016,-0.0001568602
176.5016,-0.0001567745
176.6016,-0.0001566926
176.7016,-0.0001565852
176.8016,-0.0001565391
176.9016,-0.0001564421
177.0016,-0.0001563168
177.1016,-0.000156249
177.2016,-0.0001561511
177.3016,-0.0001560522
177.4016,-0.0001559863
177.5016,-0.0001558996
177.6016,-0.0001557866
177.7016,-0.0001557396
177.8017,-0.0001556388
177.9017,-0.0001555474
178.0017,-0.0001554806
178.1017,-0.0001553299
178.2017,-0.0001552141
178.3017,-0.0001551585
178.4017,-0.0001550681
178.5017,-0.0001549579
178.6017,-0.0001548939
178.7017,-0.0001547959
178.8017,-0.000154698
178.9017,-0.000154618
179.0017,-0.0001545313
179.1017,-0.000154439
179.2017,-0.0001543552
179.3017,-0.0001542516
179.4017,-0.0001541396
179.5018,-0.0001540887
179.6018,-0.0001540115
179.7018,-0.0001539069
179.8018,-0.000153842
179.9018,-0.0001537629
180.0018,-0.0001536659
180.1018,-0.0001535745
180.2018,-0.0001534916
180.3018,-0.0001533946
180.4018,-0.0001533174
180.5018,-0.0001532129
180.6018,-0.0001531046
180.7018,-0.0001530434
180.8018,-0.0001529727
180.9018,-0.000152856
181.0018,-0.00015279
181.1019,-0.000152694
181.2019,-0.0001526177
181.3019,-0.0001525433
181.4019,-0.0001524266
181.5019,-0.000152339
181.6019,-0.00015229
181.7019,-0.0001521902
181.8019,-0.0001521007
181.9019,-0.0001520084
182.0019,-0.000151934
182.1019,-0.0001518672
182.2019,-0.0001517739
182.3019,-0.0001517174
182.4019,-0.000151627
182.5019,-0.00015153
182.6019,-0.0001514763
182.702,-0.000151353
182.802,-0.0001513266
182.902,-0.0001513049
183.002,-0.0001510874
183.102,-0.0001510177
183.202,-0.0001509866
183.302,-0.0001508595
183.402,-0.0001507041
183.502,-0.0001506589
183.602,-0.0001505911
183.702,-0.0001505082
183.802,-0.0001504282
183.902,-0.000150335
184.002,-0.0001502832
184.102,-0.0001502031
184.202,-0.0001501438
184.302,-0.0001500393
184.4021,-0.0001499667
184.5021,-0.0001498848
184.6021,-0.0001498132
184.7021,-0.0001497021
184.8021,-0.0001496079
184.9021,-0.0001495364
185.0021,-0.0001494789
185.1021,-0.0001493763
185.2021,-0.0001492576
185.3021,-0.0001491974
185.4021,-0.0001490985
185.5021,-0.0001490118
185.6021,-0.0001489553
185.7021,-0.0001488442
185.8021,-0.0001487416
185.9021,-0.0001487048
186.0022,-0.0001485852
186.1022,-0.0001484892
186.2022,-0.0001484308
186.3022,-0.0001483865
186.4022,-0.0001482905
186.5022,-0.0001482151
186.6022,-0.0001481143
186.7022,-0.0001479995
186.8022,-0.0001479599
186.9022,-0.0001478695
187.0022,-0.0001477876
187.1022,-0.0001477179
187.2022,-0.0001476152
187.3022,-0.0001475493
187.4022,-0.0001474909
187.5022,-0.000147409
187.6022,-0.0001472932
187.7023,-0.0001472235
187.8023,-0.000147134
187.9023,-0.0001470474
188.0023,-0.0001470041
188.1023,-0.0001468976
188.2023,-0.000146811
188.3023,-0.0001467376
188.4023,-0.0001466876
188.5023,-0.0001465633
188.6023,-0.0001464644
188.7023,-0.0001464127
188.8023,-0.0001463505
188.9023,-0.0001462629
189.0023,-0.0001461687
189.1023,-0.0001460567
189.2023,-0.0001459945
189.3024,-0.0001459173
189.4024,-0.0001458269
189.5024,-0.0001457497
189.6024,-0.0001456621
189.7024,-0.0001455877
189.8024,-0.0001455152
189.9024,-0.0001454427
190.0024,-0.0001453626
190.1024,-0.0001452741
190.2024,-0.0001451752
190.3024,-0.000145131
190.4024,-0.0001450895
190.5024,-0.0001450161
190.6024,-0.0001448842
190.7024,-0.0001448061
190.8024,-0.0001447665
190.9025,-0.0001446752
191.0025,-0.0001446064
191.1025,-0.0001445028
191.2025,-0.0001444096
191.3025,-0.000144402
191.4025,-0.0001443069
191.5025,-0.0001442137
191.6025,-0.0001441299
191.7025,-0.000144031
191.8025,-0.0001439632
191.9025,-0.0001439331
192.0025,-0.0001438389
192.1025,-0.0001437165
192.2025,-0.0001436788
192.3025,-0.0001435639
192.4025,-0.0001435272
192.5025,-0.0001434641
192.6026,-0.0001433822
192.7026,-0.0001432795
192.8026,-0.00014324
192.9026,-0.0001431524
193.0026,-0.0001430526
193.1026,-0.0001430055
193.2026,-0.0001428962
193.3026,-0.0001428181
193.4026,-0.0001427719
193.5026,-0.0001426862
193.6026,-0.0001425685
193.7026,-0.000142496
193.8026,-0.0001424367
193.9026,-0.0001423575
194.0026,-0.0001422907
194.1026,-0.0001421956
194.2027,-0.0001421023
194.3027,-0.0001420647
194.4027,-0.0001419827
194.5027,-0.0001418801
194.6027,-0.0001418226
194.7027,-0.0001417379
194.8027,-0.0001416569
194.9027,-0.0001415825
195.0027,-0.0001415138
195.1027,-0.0001414309
195.2027,-0.0001413744
195.3027,-0.0001412576
195.4027,-0.0001412021
195.5027,-0.0001411729
195.6027,-0.0001410702
195.7027,-0.0001409553
195.8027,-0.0001409035
195.9028,-0.0001408009
196.0028,-0.0001407491
196.1028,-0.0001406784
196.2028,-0.0001405862
196.3028,-0.0001404873
196.4028,-0.0001404468
196.5028,-0.0001403733
196.6028,-0.0001403149
196.7028,-0.000140216
196.8028,-0.0001401511
196.9028,-0.0001400531
197.0028,-0.0001399863
197.1028,-0.0001399166
197.2028,-0.0001398413
197.3028,-0.0001397593
197.4028,-0.0001396821
197.5029,-0.0001396284
197.6029,-0.0001395804
197.7029,-0.000139505
197.8029,-0.0001394024
197.9029,-0.0001393195
198.0029,-0.0001392828
198.1029,-0.0001391933
198.2029,-0.0001391321
198.3029,-0.0001390766
198.4029,-0.0001389758
198.5029,-0.0001388948
198.6029,-0.0001388157
198.7029,-0.0001387451
198.8029,-0.0001386895
198.9029,-0.0001386227
199.0029,-0.0001385275
199.103,-0.0001384513
199.203,-0.000138391
199.303,-0.0001383411
199.403,-0.0001382535
199.503,-0.0001381744
199.603,-0.0001381019
199.703,-0.0001380171
199.803,-0.0001379672
199.903,-0.0001378834
200.003,-0.0001378043
200.103,-0.0001377365
200.203,-0.0001376602
200.303,-0.0001375877
200.403,-0.000137518
200.503,-0.0001374493
200.603,-0.0001374106
200.703,-0.0001373325
200.8031,-0.0001372534
200.9031,-0.0001371507
201.0031,-0.0001371074
201.1031,-0.0001370151
201.2031,-0.0001369332
201.3031,-0.000136887
201.4031,-0.0001368164
201.5031,-0.0001367486
201.6031,-0.0001366648
201.7031,-0.0001366111
201.8031,-0.0001365433
201.9031,-0.0001364991
202.0031,-0.0001364171
202.1031,-0.0001363446
202.2031,-0.0001362919
202.3031,-0.0001361788
202.4032,-0.0001361157
202.5032,-0.0001360649
202.6032,-0.0001359914
202.7032,-0.0001359321
202.8032,-0.0001358596
202.9032,-0.0001357645
203.0032,-0.0001356958
203.1032,-0.0001356515
203.2032,-0.0001355959
203.3032,-0.000135498
203.4032,-0.0001354311
203.5032,-0.0001353774
203.6032,-0.0001352965
203.7032,-0.0001352258
203.8032,-0.0001351495
203.9032,-0.0001350582
204.0033,-0.0001350026
204.1033,-0.0001349283
204.2033,-0.0001348567
204.3033,-0.000134818
204.4033,-0.0001347267
204.5033,-0.0001346551
204.6033,-0.0001346109
204.7033,-0.0001345346
204.8033,-0.0001344856
204.9033,-0.0001344159
205.0033,-0.0001343302
205.1033,-0.0001342568
205.2033,-0.0001342106
205.3033,-0.0001340807
205.4033,-0.0001340392
205.5033,-0.0001340138
205.6033,-0.00013393
205.7034,-0.000133849
205.8034,-0.0001338217
205.9034,-0.0001337614
206.0034,-0.0001336814
206.1034,-0.000133624
206.2034,-0.0001335043
206.3034,-0.0001334639
206.4034,-0.0001334281
206.5034,-0.0001333461
206.6034,-0.0001333047
206.7034,-0.0001332086
206.8034,-0.0001331342
206.9034,-0.0001330777
207.0034,-0.0001330146
207.1034,-0.0001329242
207.2034,-0.0001328668
207.3035,-0.0001327915
207.4035,-0.0001327406
207.5035,-0.0001326267
207.6035,-0.0001325636
207.7035,-0.0001325174
207.8035,-0.0001324374
207.9035,-0.0001323837
208.0035,-0.0001322914
208.1035,-0.0001322471
208.2035,-0.0001321859
208.3035,-0.0001320851
208.4035,-0.0001320616
208.5035,-0.000132022
208.6035,-0.0001319533
208.7035,-0.000131829
208.8035,-0.0001317753
208.9035,-0.0001316764
209.0036,-0.0001316284
209.1036,-0.0001315597
209.2036,-0.0001314815
209.3036,-0.0001314241
209.4036,-0.0001313732
209.5036,-0.0001312809
209.6036,-0.0001312197
209.7036,-0.0001311632
209.8036,-0.000131101
209.9036,-0.000131021
210.0036,-0.0001309588
210.1036,-0.0001308816
210.2036,-0.0001308326
210.3036,-0.0001307771
210.4036,-0.000130698
210.5036,-0.000130617
210.6037,-0.0001305934
210.7037,-0.0001305417
210.8037,-0.0001304738
210.9037,-0.0001303816
211.0037,-0.0001303166
211.1037,-0.0001302667
211.2037,-0.000130245
211.3037,-0.0001301339
211.4037,-0.0001300576
211.5037,-0.0001300039
211.6037,-0.0001299154
211.7037,-0.0001298514
211.8037,-0.0001298071
211.9037,-0.0001297346
212.0037,-0.0001296611
212.1037,-0.0001295952
212.2038,-0.0001295171
212.3038,-0.0001294549
212.4038,-0.0001293918
212.5038,-0.0001293475
212.6038,-0.0001292788
212.7038,-0.000129242
212.8038,-0.0001291215
212.9038,-0.0001291168
213.0038,-0.0001290584
213.1038,-0.0001289944
213.2038,-0.0001288757
213.3038,-0.0001288268
213.4038,-0.0001287985
213.5038,-0.0001287232
213.6038,-0.0001286817
213.7038,-0.0001285847
213.8038,-0.0001285169
213.9039,-0.0001284868
214.0039,-0.0001283889
214.1039,-0.0001283248
214.2039,-0.0001282721
214.3039,-0.0001282231
214.4039,-0.0001281346
214.5039,-0.0001280997
214.6039,-0.0001280282
214.7039,-0.0001279858
214.8039,-0.0001279425
214.9039,-0.0001278483
215.0039,-0.0001278238
215.1039,-0.0001278304
215.2039,-0.0001277927
215.3039,-0.0001276712
215.4039,-0.0001276223
215.504,-0.0001276016
215.604,-0.000127529
215.704,-0.0001274641
215.804,-0.0001273887
215.904,-0.0001273162
216.004,-0.0001273002
216.104,-0.0001272183
216.204,-0.0001271825
216.304,-0.0001271222
216.404,-0.000127062
216.504,-0.0001269988
216.604,-0.0001269537
216.704,-0.000126899
216.804,-0.0001268209
216.904,-0.0001267653
217.004,-0.0001266975
217.104,-0.0001266325
217.2041,-0.0001265741
217.3041,-0.0001265167
217.4041,-0.0001264319
217.5041,-0.0001264008
217.6041,-0.0001263585
217.7041,-0.0001262747
217.8041,-0.0001262163
217.9041,-0.000126156
218.0041,-0.0001260788
218.1041,-0.0001260289
218.2041,-0.0001259488
218.3041,-0.0001258744
218.4041,-0.0001258189
218.5041,-0.0001258038
218.6041,-0.0001257134
218.7041,-0.0001256456
218.8042,-0.0001255693
218.9042,-0.0001255458
219.0042,-0.0001255072
219.1042,-0.0001254478
219.2042,-0.0001253678
219.3042,-0.0001253179
219.4042,-0.0001252698
219.5042,-0.0001251587
219.6042,-0.0001251239
219.7042,-0.0001250457
219.8042,-0.0001249647
219.9042,-0.00012496
220.0042,-0.0001249045
220.1042,-0.0001248178
220.2042,-0.0001247302
220.3042,-0.0001246737
220.4043,-0.0001246125
220.5043,-0.000124604
220.6043,-0.0001244854
220.7043,-0.0001244298
220.8043,-0.0001244035
220.9043,-0.000124346
221.0043,-0.0001242707
221.1043,-0.0001242405
221.2043,-0.0001241803
221.3043,-0.0001241077
221.4043,-0.0001240776
221.5043,-0.0001239957
221.6043,-0.0001239109
221.7043,-0.0001239128
221.8043,-0.0001238224
221.9043,-0.000123732
222.0043,-0.0001237226
222.1044,-0.0001236689
222.2044,-0.0001235888
222.3044,-0.0001235371
222.4044,-0.0001234372
222.5044,-0.0001234033
222.6044,-0.0001234203
222.7044,-0.0001233779
222.8044,-0.0001232517
222.9044,-0.0001231962
223.0044,-0.0001231613
223.1044,-0.000123086
223.2044,-0.0001230191
223.3044,-0.0001229598
223.4044,-0.0001228854
223.5044,-0.0001228449
223.6044,-0.0001227837
223.7045,-0.0001227074
223.8045,-0.0001226678
223.9045,-0.0001226057
224.0045,-0.0001225275
224.1045,-0.0001225049
224.2045,-0.0001224155
224.3045,-0.0001223646
224.4045,-0.0001223279
224.5045,-0.0001222469
224.6045,-0.0001221744
224.7045,-0.0001221546
224.8045,-0.0001221301
224.9045,-0.0001220557
225.0045,-0.000122034
225.1045,-0.000121922
225.2045,-0.0001218721
225.3046,-0.0001218636
225.4046,-0.0001217798
225.5046,-0.000121664
225.6046,-0.0001216574
225.7046,-0.0001216084
225.8046,-0.0001214954
225.9046,-0.000121453
226.0046,-0.0001214342
226.1046,-0.0001213362
226.2046,-0.0001212665
226.3046,-0.0001212176
226.4046,-0.0001211686
226.5046,-0.0001211093
226.6046,-0.0001210556
226.7046,-0.0001209708
226.8046,-0.0001209294
226.9046,-0.0001208757
227.0047,-0.0001208042
227.1047,-0.0001207806
227.2047,-0.0001207043
227.3047,-0.0001206459
227.4047,-0.0001206186
227.5047,-0.0001205508
227.6047,-0.0001204934
227.7047,-0.0001204519
227.8047,-0.0001204133
227.9047,-0.0001203201
228.0047,-0.0001202768
228.1047,-0.0001202495
228.2047,-0.0001202052
228.3047,-0.000120111
228.4047,-0.0001201073
228.5047,-0.000120063
228.6048,-0.0001200282
228.7048,-0.000119966
228.8048,-0.0001198794
228.9048,-0.000119836
229.0048,-0.0001197777
229.1048,-0.0001197221
229.2048,-0.0001196449
229.3048,-0.0001196016
229.4048,-0.0001195206
229.5048,-0.0001194546
229.6048,-0.0001194123
229.7048,-0.0001193266
229.8048,-0.000119288
229.9048,-0.0001192597
230.0048,-0.0001192032
230.1048,-0.0001191429
230.2048,-0.0001190403
230.3049,-0.0001189979
230.4049,-0.000118997
230.5049,-0.0001189423
230.6049,-0.0001188651
230.7049,-0.0001188011
230.8049,-0.0001187465
230.9049,-0.0001186975
231.0049,-0.0001186165
231.1049,-0.000118577
231.2049,-0.0001185026
231.3049,-0.0001184423
231.4049,-0.0001183528
231.5049,-0.0001183057
231.6049,-0.0001182954
231.7049,-0.0001182087
231.8049,-0.0001181617
231.905,-0.0001180995
232.005,-0.0001180421
232.105,-0.0001180044
232.205,-0.0001179724
232.305,-0.000117913
232.405,-0.0001178396
232.505,-0.0001177784
232.605,-0.000117735
232.705,-0.0001176691
232.805,-0.0001176484
232.905,-0.0001175571
233.005,-0.0001174977
233.105,-0.000117477
233.205,-0.0001174026
233.305,-0.0001173423
233.405,-0.0001172887
233.5051,-0.0001172453
233.6051,-0.0001172096
233.7051,-0.000117121
233.8051,-0.000117121
233.9051,-0.0001170645
234.0051,-0.000116993
234.1051,-0.0001169591
234.2051,-0.0001168837
234.3051,-0.0001168187
234.4051,-0.0001167848
234.5051,-0.0001167001
234.6051,-0.0001166285
234.7051,-0.0001166549
234.8051,-0.0001165777
234.9051,-0.0001164995
235.0051,-0.0001164731
235.1051,-0.0001163987
235.2052,-0.0001163337
235.3052,-0.0001162923
235.4052,-0.0001162217
235.5052,-0.0001161624
235.6052,-0.0001161115
235.7052,-0.0001160531
235.8052,-0.0001160041
235.9052,-0.0001159881
236.0052,-0.0001159156
236.1052,-0.0001158553
236.2052,-0.0001157941
236.3052,-0.0001157433
236.4052,-0.000115667
236.5052,-0.0001156406
236.6052,-0.0001156067
236.7052,-0.0001155709
236.8053,-0.000115522
236.9053,-0.0001154287
237.0053,-0.000115393
237.1053,-0.0001153553
237.2053,-0.0001152696
237.3053,-0.0001152244
237.4053,-0.0001151895
237.5053,-0.0001151481
237.6053,-0.0001151227
237.7053,-0.0001150681
237.8053,-0.0001149626
237.9053,-0.0001149221
238.0053,-0.0001149259
238.1053,-0.0001148251
238.2053,-0.0001147884
238.3053,-0.0001147432
238.4053,-0.0001146631
238.5054,-0.0001146311
238.6054,-0.0001145953
238.7054,-0.0001144898
238.8054,-0.0001144465
238.9054,-0.000114422
239.0054,-0.000114358
239.1054,-0.0001142996
239.2054,-0.0001142676
239.3054,-0.0001141744
239.4054,-0.0001141273
239.5054,-0.000114099
239.6054,-0.0001140491
239.7054,-0.0001140011
239.8054,-0.0001139295
239.9054,-0.0001138636
240.0054,-0.0001138335
240.1055,-0.000113808
240.2055,-0.0001137091
240.3055,-0.0001136668
240.4055,-0.000113646
240.5055,-0.0001135914
240.6055,-0.0001135189
240.7055,-0.0001135067
240.8055,-0.0001134285
240.9055,-0.0001133532
241.0055,-0.0001133268
241.1055,-0.0001132562
241.2055,-0.000113211
241.3055,-0.0001131827
241.4055,-0.0001130904
241.5055,-0.0001130933
241.6055,-0.0001130264
241.7056,-0.0001129699
241.8056,-0.000112903
241.9056,-0.0001128522
242.0056,-0.0001127994
242.1056,-0.0001127401
242.2056,-0.0001126864
242.3056,-0.0001126101
242.4056,-0.0001125847
242.5056,-0.0001125207
242.6056,-0.0001124359
242.7056,-0.0001124218
242.8056,-0.000112402
242.9056,-0.0001123126
243.0056,-0.0001122344
243.1056,-0.0001122297
243.2056,-0.0001121685
243.3056,-0.0001121129
243.4057,-0.0001120724
243.5057,-0.000111983
243.6057,-0.0001119396
243.7057,-0.0001119283
243.8057,-0.0001118445
243.9057,-0.0001117795
244.0057,-0.0001117579
244.1057,-0.0001116816
244.2057,-0.0001116336
244.3057,-0.0001115959
244.4057,-0.0001115055
244.5057,-0.0001114744
244.6057,-0.0001114528
244.7057,-0.0001113642
244.8057,-0.0001112823
244.9057,-0.0001112983
245.0058,-0.0001112399
245.1058,-0.000111191
245.2058,-0.0001111458
245.3058,-0.0001110798
245.4058,-0.0001109894
245.5058,-0.0001109922
245.6058,-0.000110932
245.7058,-0.0001108698
245.8058,-0.0001108529
245.9058,-0.0001107738
246.0058,-0.0001107173
246.1058,-0.0001106834
246.2058,-0.0001106231
246.3058,-0.0001105628
246.4058,-0.0001105214
246.5058,-0.0001104649
246.6059,-0.0001103952
246.7059,-0.0001103566
246.8059,-0.0001103029
246.9059,-0.0001102549
247.0059,-0.0001102228
247.1059,-0.0001101513
247.2059,-0.0001101127
247.3059,-0.000110075
247.4059,-0.0001100157
247.5059,-0.000109994
247.6059,-0.0001099526
247.7059,-0.0001098659
247.8059,-0.0001098151
247.9059,-0.0001097953
248.0059,-0.0001097463
248.1059,-0.0001097134
248.2059,-0.0001096588
248.306,-0.0001095825
248.406,-0.0001095561
248.506,-0.000109541
248.606,-0.0001094648
248.706,-0.0001094073
248.806,-0.0001093875
248.906,-0.0001093339
249.006,-0.0001092745
249.106,-0.0001092416
249.206,-0.0001091813
249.306,-0.0001091286
249.406,-0.0001090824
249.506,-0.0001090203
249.606,-0.0001089741
249.706,-0.0001089506
249.806,-0.0001088696
249.9061,-0.0001088159
250.0061,-0.0001087867
250.1061,-0.0001087368
250.2061,-0.0001086746
250.3061,-0.0001086238
250.4061,-0.0001085833
250.5061,-0.0001085249
250.6061,-0.0001084985
250.7061,-0.0001084449
250.8061,-0.0001083789
250.9061,-0.0001083629
251.0061,-0.0001083102
251.1061,-0.0001082499
251.2061,-0.000108217
251.3061,-0.0001081755
251.4061,-0.0001081087
251.5061,-0.0001080559
251.6062,-0.0001080013
251.7062,-0.0001079712
251.8062,-0.0001079297
251.9062,-0.0001078657
252.0062,-0.0001078346
252.1062,-0.0001077894
252.2062,-0.000107715
252.3062,-0.000107667
252.4062,-0.0001076557
252.5062,-0.0001075983
252.6062,-0.0001075408
252.7062,-0.000107538
252.8062,-0.0001074645
252.9062,-0.0001074165
253.0062,-0.0001073986
253.1062,-0.0001073327
253.2063,-0.0001072781
253.3063,-0.0001072517
253.4063,-0.0001071782
253.5063,-0.0001071142
253.6063,-0.0001070605
253.7063,-0.0001070219
253.8063,-0.0001069918
253.9063,-0.0001069541
254.0063,-0.0001069042
254.1063,-0.0001068543
254.2063,-0.0001068025
254.3063,-0.0001067592
254.4063,-0.0001067262
254.5063,-0.0001066866
254.6063,-0.0001066028
254.7063,-0.0001065426
254.8064,-0.0001065708
254.9064,-0.0001065332
255.0064,-0.0001064719
255.1064,-0.0001064277
255.2064,-0.0001063702
255.3064,-0.0001062958
255.4064,-0.0001062968
255.5064,-0.0001062384
255.6064,-0.0001061847
255.7064,-0.0001061273
255.8064,-0.000106067
255.9064,-0.0001060491
256.0064,-0.0001060161
256.1064,-0.0001059559
256.2064,-0.0001058871
256.3064,-0.0001058476
256.4064,-0.000105809
256.5064,-0.0001057562
256.6064,-0.0001057393
256.7065,-0.0001056677
256.8065,-0.0001056102
256.9065,-0.0001055811
257.0065,-0.0001055396
257.1065,-0.0001054935
257.2065,-0.0001054558
257.3065,-0.0001053842
257.4065,-0.000105356
257.5065,-0.000105307
257.6065,-0.0001052599
257.7065,-0.0001052157
257.8065,-0.0001051695
257.9065,-0.0001051008
258.0065,-0.0001050819
258.1065,-0.0001050527
258.2065,-0.0001050151
258.3065,-0.0001049388
258.4066,-0.0001049219
258.5066,-0.0001048578
258.6066,-0.0001048371
258.7066,-0.0001048004
258.8066,-0.000104726
258.9066,-0.0001046582
259.0066,-0.0001046751
259.1066,-0.0001046309
259.2066,-0.0001045998
259.3066,-0.0001045499
259.4066,-0.0001045037
259.5066,-0.0001044444
259.6066,-0.0001044227
259.7066,-0.0001043323
259.8066,-0.0001042655
259.9066,-0.0001042607
260.0067,-0.0001042447
260.1067,-0.0001041751
260.2067,-0.0001041148
260.3067,-0.0001040686
260.4067,-0.0001040357
260.5067,-0.0001040168
260.6067,-0.0001039603
260.7067,-0.0001038859
260.8067,-0.0001038756
260.9067,-0.0001038266
261.0067,-0.0001037965
261.1067,-0.0001037522
261.2067,-0.0001036854
261.3067,-0.0001036166
261.4067,-0.0001036006
261.5067,-0.0001035488
261.6068,-0.0001035055
261.7068,-0.0001034791
261.8068,-0.0001034179
261.9068,-0.0001033708
262.0068,-0.0001033482
262.1068,-0.0001032729
262.2068,-0.0001032201
262.3068,-0.0001032201
262.4068,-0.0001031599
262.5068,-0.0001031071
262.6068,-0.0001030666
262.7068,-0.0001030619
262.8068,-0.000102996
262.9068,-0.0001029706
263.0068,-0.0001029028
263.1068,-0.0001028095
263.2068,-0.000102819
263.3069,-0.0001027643
263.4069,-0.0001026994
263.5069,-0.0001026645
263.6069,-0.0001026513
263.7069,-0.0001026287
263.8069,-0.0001025534
263.9069,-0.0001025082
264.0069,-0.0001024404
264.1069,-0.0001024263
264.2069,-0.0001024008
264.3069,-0.0001023302
264.4069,-0.0001023283
264.5069,-0.0001022539
264.6069,-0.0001022163
264.7069,-0.0001021701
264.8069,-0.0001020929
264.907,-0.0001020336
265.007,-0.0001020194
265.107,-0.0001019733
265.207,-0.0001019121
265.307,-0.0001018753
265.407,-0.0001018556
265.507,-0.0001017962
265.607,-0.0001017605
265.707,-0.0001017124
265.807,-0.0001016748
265.907,-0.0001016832
266.007,-0.0001016361
266.107,-0.0001015749
266.207,-0.0001015344
266.307,-0.0001015024
266.407,-0.0001014431
266.507,-0.0001014073
266.6071,-0.0001013612
266.7071,-0.0001013018
266.8071,-0.0001012905
266.9071,-0.0001012397
267.0071,-0.0001011785
267.1071,-0.0001011464
267.2071,-0.0001011135
267.3071,-0.0001010692
267.4071,-0.0001010438
267.5071,-0.0001009713
267.6071,-0.0001009167
267.7071,-0.0001009148
267.8071,-0.0001008903
267.9071,-0.0001008385
268.0071,-0.0001007933
268.1071,-0.00010075
268.2072,-0.0001006812
268.3072,-0.0001006436
268.4072,-0.0001006087
268.5072,-0.0001005588
268.6072,-0.0001005193
268.7072,-0.0001004618
268.8072,-0.000100427
268.9072,-0.0001004354
269.0072,-0.0001003686
269.1072,-0.0001003149
269.2072,-0.0001002791
269.3072,-0.000100265
269.4072,-0.0001002057
269.5072,-0.0001001463
269.6072,-0.0001001162
269.7072,-0.0001000531
269.8073,-0.0001000286
269.9073,-9.998246E-05
270.0073,-9.994573E-05
270.1073,-9.993444E-05
270.2073,-9.987699E-05
270.3073,-9.982708E-05
270.4073,-9.977529E-05
270.5073,-9.976869E-05
270.6073,-9.970466E-05
270.7073,-9.965286E-05
270.8073,-9.958506E-05
270.9073,-9.954362E-05
271.0073,-9.952572E-05
271.1073,-9.949653E-05
271.2073,-9.944756E-05
271.3073,-9.936375E-05
271.4073,-9.934491E-05
271.5074,-9.929688E-05
271.6074,-9.928465E-05
271.7074,-9.92319E-05
271.8074,-9.916788E-05
271.9074,-9.913491E-05
272.0074,-9.91076E-05
272.1074,-9.909065E-05
272.2074,-9.906522E-05
272.3074,-9.89946E-05
272.4074,-9.89362E-05
272.5074,-9.892866E-05
272.6074,-9.89023E-05
272.7074,-9.881943E-05
272.8074,-9.877893E-05
272.9074,-9.874786E-05
273.0074,-9.868194E-05
273.1075,-9.865651E-05
273.2075,-9.862543E-05
273.3075,-9.856233E-05
273.4075,-9.855292E-05
273.5075,-9.851714E-05
273.6075,-9.844274E-05
273.7075,-9.841636E-05
273.8075,-9.838718E-05
273.9075,-9.834291E-05
274.0075,-9.8293E-05
274.1075,-9.825439E-05
274.2075,-9.821672E-05
274.3075,-9.818E-05
274.4075,-9.81395E-05
274.5075,-9.808299E-05
274.6075,-9.807452E-05
274.7076,-9.801143E-05
274.8076,-9.795209E-05
274.9076,-9.791442E-05
275.0076,-9.789276E-05
275.1076,-9.784757E-05
275.2076,-9.781931E-05
275.3076,-9.77741E-05
275.4076,-9.772043E-05
275.5076,-9.772796E-05
275.6076,-9.769217E-05
275.7076,-9.759895E-05
275.8076,-9.75462E-05
275.9076,-9.755845E-05
276.0076,-9.748217E-05
276.1076,-9.743979E-05
276.2076,-9.739365E-05
276.3076,-9.732301E-05
276.4077,-9.731078E-05
276.5077,-9.730324E-05
276.6077,-9.722225E-05
276.7077,-9.715445E-05
276.8077,-9.717423E-05
276.9077,-9.712902E-05
277.0077,-9.706875E-05
277.1077,-9.702449E-05
277.2077,-9.699059E-05
277.3077,-9.697646E-05
277.4077,-9.690959E-05
277.5077,-9.684745E-05
277.6077,-9.68352E-05
277.7077,-9.681449E-05
277.8077,-9.674573E-05
277.9077,-9.672879E-05
278.0078,-9.669394E-05
278.1078,-9.661954E-05
278.2078,-9.657434E-05
278.3078,-9.656681E-05
278.4078,-9.650936E-05
278.5078,-9.648581E-05
278.6078,-9.644815E-05
278.7078,-9.638318E-05
278.8078,-9.634738E-05
278.9078,-9.63342E-05
279.0078,-9.627487E-05
279.1078,-9.624474E-05
279.2078,-9.621931E-05
279.3078,-9.617223E-05
279.4078,-9.612607E-05
279.5078,-9.610254E-05
279.6078,-9.604415E-05
279.7079,-9.602437E-05
279.8079,-9.601213E-05
279.9079,-9.595656E-05
280.0079,-9.590571E-05
280.1079,-9.586709E-05
280.2079,-9.583226E-05
280.3079,-9.581153E-05
280.4079,-9.578423E-05
280.5079,-9.571266E-05
280.6079,-9.563732E-05
280.7079,-9.56392E-05
280.8079,-9.561095E-05
280.9079,-9.557328E-05
281.0079,-9.551395E-05
281.1079,-9.550642E-05
281.2079,-9.546592E-05
281.308,-9.539246E-05
281.408,-9.536798E-05
281.508,-9.53369E-05
281.608,-9.533596E-05
281.708,-9.531053E-05
281.808,-9.522954E-05
281.908,-9.51947E-05
282.008,-9.518246E-05
282.108,-9.512879E-05
282.208,-9.507417E-05
282.308,-9.501672E-05
282.408,-9.499694E-05
282.508,-9.497246E-05
282.608,-9.493385E-05
282.708,-9.485098E-05
282.808,-9.482178E-05
282.9081,-9.479823E-05
283.0081,-9.478033E-05
283.1081,-9.472949E-05
283.2081,-9.469652E-05
283.3081,-9.465226E-05
283.4081,-9.462025E-05
283.5081,-9.459576E-05
283.6081,-9.452231E-05
283.7081,-9.449029E-05
283.8081,-9.445921E-05
283.9081,-9.439988E-05
284.0081,-9.438764E-05
284.1081,-9.434338E-05
284.2081,-9.430288E-05
284.3081,-9.430854E-05
284.4081,-9.425486E-05
284.5081,-9.419741E-05
284.6082,-9.418328E-05
284.7082,-9.413997E-05
284.8082,-9.409476E-05
284.9082,-9.408817E-05
285.0082,-9.403638E-05
285.1082,-9.401283E-05
285.2082,-9.398364E-05
285.3082,-9.391396E-05
285.4082,-9.383485E-05
285.5082,-9.385085E-05
285.6082,-9.382825E-05
285.7082,-9.375763E-05
285.8082,-9.370018E-05
285.9082,-9.366345E-05
286.0082,-9.364462E-05
286.1082,-9.362296E-05
286.2083,-9.357776E-05
286.3083,-9.351371E-05
286.4083,-9.350241E-05
286.5083,-9.346098E-05
286.6083,-9.340447E-05
286.7083,-9.34073E-05
286.8083,-9.338658E-05
286.9083,-9.332913E-05
287.0083,-9.327546E-05
287.1083,-9.324909E-05
287.2083,-9.321424E-05
287.3083,-9.320294E-05
287.4083,-9.315021E-05
287.5083,-9.308523E-05
287.6083,-9.308052E-05
287.7083,-9.304662E-05
287.8083,-9.301742E-05
287.9084,-9.295998E-05
288.0084,-9.292419E-05
288.1084,-9.28658E-05
288.2084,-9.286204E-05
288.3084,-9.283567E-05
288.4084,-9.277445E-05
288.5084,-9.27349E-05
288.6084,-9.269911E-05
288.7084,-9.267274E-05
288.8084,-9.264827E-05
288.9084,-9.259929E-05
289.0084,-9.256446E-05
289.1084,-9.253243E-05
289.2084,-9.247686E-05
289.3084,-9.24213E-05
289.4084,-9.24392E-05
289.5085,-9.236857E-05
289.6085,-9.232713E-05
289.7085,-9.22791E-05
289.8085,-9.226122E-05
289.9085,-9.223579E-05
290.0085,-9.218399E-05
290.1085,-9.211335E-05
290.2085,-9.206533E-05
290.3085,-9.206909E-05
290.4085,-9.202766E-05
290.5085,-9.196739E-05
290.6085,-9.195138E-05
290.7085,-9.186663E-05
290.8085,-9.189018E-05
290.9085,-9.188169E-05
291.0085,-9.181389E-05
291.1086,-9.174796E-05
291.2086,-9.174702E-05
291.3086,-9.169052E-05
291.4086,-9.163684E-05
291.5086,-9.161141E-05
291.6086,-9.157845E-05
291.7086,-9.155774E-05
291.8086,-9.151347E-05
291.9086,-9.147298E-05
292.0086,-9.142872E-05
292.1086,-9.14259E-05
292.2086,-9.135244E-05
292.3086,-9.128934E-05
292.4086,-9.127805E-05
292.5086,-9.124037E-05
292.6086,-9.118953E-05
292.7086,-9.116787E-05
292.8087,-9.113772E-05
292.9087,-9.10944E-05
293.0087,-9.105203E-05
293.1087,-9.101059E-05
293.2087,-9.096068E-05
293.3087,-9.096633E-05
293.4087,-9.092301E-05
293.5087,-9.087876E-05
293.6087,-9.083072E-05
293.7087,-9.078552E-05
293.8087,-9.076103E-05
293.9087,-9.075538E-05
294.0087,-9.071489E-05
294.1087,-9.066592E-05
294.2087,-9.06499E-05
294.3087,-9.059811E-05
294.4088,-9.058681E-05
294.5088,-9.055574E-05
294.6088,-9.0503E-05
294.7088,-9.044932E-05
294.8088,-9.043238E-05
294.9088,-9.038435E-05
295.0088,-9.034762E-05
295.1088,-9.032972E-05
295.2088,-9.029864E-05
295.3088,-9.022236E-05
295.4088,-9.021012E-05
295.5088,-9.017151E-05
295.6088,-9.013102E-05
295.7088,-9.009146E-05
295.8088,-9.003401E-05
295.9088,-9.001612E-05
296.0089,-9.002836E-05
296.1089,-9.001236E-05
296.2089,-8.993043E-05
296.3089,-8.989935E-05
296.4089,-8.988616E-05
296.5089,-8.984756E-05
296.6089,-8.978917E-05
296.7089,-8.979105E-05
296.8089,-8.973078E-05
296.9089,-8.96931E-05
297.0089,-8.965167E-05
297.1089,-8.960647E-05
297.2089,-8.961777E-05
297.3089,-8.956315E-05
297.4089,-8.94944E-05
297.5089,-8.946803E-05
297.6089,-8.94379E-05
297.709,-8.942001E-05
297.809,-8.939647E-05
297.909,-8.935032E-05
298.009,-8.929758E-05
298.109,-8.929287E-05
298.209,-8.927215E-05
298.309,-8.920341E-05
298.409,-8.91243E-05
298.509,-8.91196E-05
298.609,-8.907533E-05
298.709,-8.905933E-05
298.809,-8.901224E-05
298.909,-8.894255E-05
299.009,-8.891901E-05
299.109,-8.887098E-05
299.209,-8.88399E-05
299.3091,-8.88286E-05
299.4091,-8.877681E-05
299.5091,-8.87269E-05
299.6091,-8.870524E-05
299.7091,-8.865814E-05
299.8091,-8.861953E-05
299.9091,-8.862424E-05
300.0091,-8.85555E-05
300.1091,-8.851312E-05
300.2091,-8.848581E-05
300.3091,-8.846226E-05
300.4091,-8.843119E-05
300.5091,-8.839164E-05
300.6091,-8.835774E-05
300.7091,-8.830123E-05
300.8091,-8.831347E-05
300.9091,-8.825886E-05
301.0092,-8.821271E-05
301.1092,-8.821083E-05
301.2092,-8.814773E-05
301.3092,-8.811383E-05
301.4092,-8.810913E-05
301.5092,-8.807804E-05
301.6092,-8.801212E-05
301.7092,-8.796975E-05
301.8092,-8.79349E-05
301.9092,-8.791041E-05
302.0092,-8.789251E-05
302.1092,-8.785297E-05
302.2092,-8.781813E-05
302.3092,-8.778609E-05
302.4092,-8.771171E-05
302.5092,-8.771077E-05
302.6093,-8.769287E-05
302.7093,-8.765332E-05
302.8093,-8.759494E-05
302.9093,-8.75761E-05
303.0093,-8.752148E-05
303.1093,-8.751112E-05
303.2093,-8.747815E-05
303.3093,-8.742731E-05
303.4093,-8.736704E-05
303.5093,-8.739151E-05
303.6093,-8.738116E-05
303.7093,-8.733219E-05
303.8093,-8.729735E-05
303.9093,-8.723237E-05
304.0093,-8.719469E-05
304.1093,-8.718811E-05
304.2094,-8.71137E-05
304.3094,-8.708263E-05
304.4094,-8.708451E-05
304.5094,-8.706662E-05
304.6094,-8.701012E-05
304.7094,-8.696679E-05
304.8094,-8.693949E-05
304.9094,-8.689335E-05
305.0094,-8.686226E-05
305.1094,-8.680859E-05
305.2094,-8.678129E-05
305.3094,-8.676998E-05
305.4094,-8.670217E-05
305.5094,-8.667109E-05
305.6094,-8.665132E-05
305.7094,-8.663342E-05
305.8094,-8.659387E-05
305.9095,-8.65515E-05
306.0095,-8.652041E-05
306.1095,-8.646108E-05
306.2095,-8.648275E-05
306.3095,-8.644414E-05
306.4095,-8.639423E-05
306.5095,-8.636315E-05
306.6095,-8.630288E-05
306.7095,-8.628875E-05
306.8095,-8.628687E-05
306.9095,-8.623319E-05
307.0095,-8.61748E-05
307.1095,-8.616257E-05
307.2095,-8.612488E-05
307.3095,-8.605991E-05
307.4095,-8.607875E-05
307.5096,-8.60326E-05
307.6096,-8.598363E-05
307.7096,-8.596856E-05
307.8096,-8.592807E-05
307.9096,-8.589793E-05
308.0096,-8.590169E-05
308.1096,-8.585179E-05
308.2096,-8.579905E-05
308.3096,-8.576892E-05
308.4096,-8.573689E-05
308.5096,-8.568604E-05
308.6096,-8.569546E-05
308.7096,-8.563802E-05
308.8096,-8.560412E-05
308.9096,-8.555986E-05
309.0096,-8.552407E-05
309.1096,-8.551747E-05
309.2097,-8.55024E-05
309.3097,-8.546191E-05
309.4097,-8.542706E-05
309.5097,-8.536585E-05
309.6097,-8.534984E-05
309.7097,-8.531406E-05
309.8097,-8.530841E-05
309.9097,-8.526698E-05
310.0097,-8.522647E-05
310.1097,-8.519446E-05
310.2097,-8.51502E-05
310.3097,-8.512005E-05
310.4097,-8.509464E-05
310.5097,-8.509747E-05
310.6097,-8.50758E-05
310.7097,-8.502023E-05
310.8098,-8.497691E-05
310.9098,-8.494772E-05
311.0098,-8.492135E-05
311.1098,-8.489782E-05
311.2098,-8.487239E-05
311.3098,-8.48366E-05
311.4098,-8.476879E-05
311.5098,-8.47462E-05
311.6098,-8.475656E-05
311.7098,-8.471136E-05
311.8098,-8.46605E-05
311.9098,-8.463224E-05
312.0098,-8.459834E-05
312.1098,-8.454937E-05
312.2098,-8.455125E-05
312.3098,-8.449569E-05
312.4099,-8.442601E-05
312.5099,-8.44147E-05
312.6099,-8.439587E-05
312.7099,-8.436103E-05
312.8099,-8.433089E-05
312.9099,-8.427062E-05
313.0099,-8.423483E-05
313.1099,-8.422918E-05
313.2099,-8.421412E-05
313.3099,-8.415102E-05
313.4099,-8.412182E-05
313.5099,-8.407191E-05
313.6099,-8.405119E-05
313.7099,-8.402106E-05
313.8099,-8.401635E-05
313.9099,-8.395326E-05
314.0099,-8.395702E-05
314.11,-8.393348E-05
314.21,-8.386756E-05
314.31,-8.383554E-05
314.41,-8.381483E-05
314.51,-8.377621E-05
314.61,-8.374325E-05
314.71,-8.368486E-05
314.81,-8.366037E-05
314.91,-8.366509E-05
315.01,-8.362647E-05
315.11,-8.354737E-05
315.21,-8.354737E-05
315.31,-8.352289E-05
315.41,-8.346544E-05
315.51,-8.342212E-05
315.61,-8.343624E-05
315.7101,-8.340234E-05
315.8101,-8.334866E-05
315.9101,-8.331853E-05
316.0101,-8.328463E-05
316.1101,-8.324696E-05
316.2101,-8.321117E-05
316.3101,-8.315656E-05
316.4101,-8.315656E-05
316.5101,-8.31057E-05
316.6101,-8.305202E-05
316.7101,-8.30313E-05
316.8101,-8.304731E-05
316.9101,-8.302565E-05
317.0101,-8.296727E-05
317.1101,-8.292583E-05
317.2101,-8.289851E-05
317.3102,-8.286367E-05
317.4102,-8.285897E-05
317.5102,-8.282882E-05
317.6102,-8.278457E-05
317.7102,-8.276291E-05
317.8102,-8.271676E-05
317.9102,-8.271394E-05
318.0102,-8.269981E-05
318.1102,-8.265555E-05
318.2102,-8.261317E-05
318.3102,-8.26207E-05
318.4102,-8.258868E-05
318.5102,-8.254349E-05
318.6102,-8.251806E-05
318.7102,-8.247756E-05
318.8102,-8.245873E-05
318.9102,-8.242671E-05
319.0103,-8.237398E-05
319.1103,-8.233348E-05
319.2103,-8.234007E-05
319.3103,-8.233631E-05
319.4103,-8.227886E-05
319.5103,-8.22798E-05
319.6103,-8.22393E-05
319.7103,-8.221576E-05
319.8103,-8.220634E-05
319.9103,-8.214514E-05
320.0103,-8.210746E-05
320.1103,-8.210841E-05
320.2103,-8.204813E-05
320.3103,-8.199634E-05
320.4103,-8.201895E-05
320.5103,-8.202082E-05
320.6104,-8.192289E-05
320.7104,-8.189746E-05
320.8104,-8.188239E-05
320.9104,-8.184567E-05
321.0104,-8.183813E-05
321.1104,-8.178822E-05
321.2104,-8.173737E-05
321.3104,-8.175432E-05
321.4104,-8.171759E-05
321.5104,-8.166862E-05
321.6104,-8.164508E-05
321.7104,-8.162341E-05
321.8104,-8.156785E-05
321.9104,-8.153866E-05
322.0104,-8.151228E-05
322.1104,-8.149816E-05
322.2104,-8.146426E-05
322.3105,-8.141717E-05
322.4105,-8.13861E-05
322.5105,-8.141717E-05
322.6105,-8.138233E-05
322.7105,-8.130699E-05
322.8105,-8.129757E-05
322.9105,-8.127026E-05
323.0105,-8.122788E-05
323.1105,-8.122224E-05
323.2105,-8.118174E-05
323.3105,-8.111865E-05
323.4105,-8.111865E-05
323.5105,-8.111206E-05
323.6105,-8.103013E-05
323.7105,-8.099434E-05
323.8105,-8.099245E-05
323.9106,-8.098492E-05
324.0106,-8.092183E-05
324.1106,-8.089546E-05
324.2106,-8.084366E-05
324.3106,-8.08625E-05
324.4106,-8.082105E-05
324.5106,-8.075419E-05
324.6106,-8.077586E-05
324.7106,-8.075984E-05
324.8106,-8.070805E-05
324.9106,-8.068074E-05
325.0106,-8.064025E-05
325.1106,-8.06167E-05
325.2106,-8.059221E-05
325.3106,-8.056303E-05
325.4106,-8.050087E-05
325.5107,-8.049145E-05
325.6107,-8.046321E-05
325.7107,-8.041517E-05
325.8107,-8.040387E-05
325.9107,-8.041423E-05
326.0107,-8.035679E-05
326.1107,-8.0321E-05
326.2107,-8.026732E-05
326.3107,-8.02353E-05
326.4107,-8.022118E-05
326.5107,-8.022588E-05
326.6107,-8.016937E-05
326.7107,-8.013548E-05
326.8107,-8.011665E-05
326.9107,-8.011382E-05
327.0107,-8.011099E-05
327.1107,-8.006485E-05
327.2108,-8.002435E-05
327.3108,-7.999422E-05
327.4108,-8.000364E-05
327.5108,-7.990193E-05
327.6108,-7.987462E-05
327.7108,-7.989063E-05
327.8108,-7.983224E-05
327.9108,-7.978421E-05
328.0108,-7.97861E-05
328.1108,-7.977008E-05
328.2108,-7.973901E-05
328.3108,-7.970793E-05
328.4108,-7.966461E-05
328.5108,-7.962412E-05
328.6108,-7.96147E-05
328.7108,-7.957138E-05
328.8109,-7.956386E-05
328.9109,-7.9529E-05
329.0109,-7.94951E-05
329.1109,-7.94838E-05
329.2109,-7.944801E-05
329.3109,-7.940376E-05
329.4109,-7.940941E-05
329.5109,-7.939528E-05
329.6109,-7.933972E-05
329.7109,-7.929263E-05
329.8109,-7.930299E-05
329.9109,-7.927191E-05
330.0109,-7.921258E-05
330.1109,-7.922388E-05
330.2109,-7.919092E-05
330.3109,-7.914572E-05
330.4109,-7.910898E-05
330.511,-7.907602E-05
330.611,-7.910051E-05
330.711,-7.906285E-05
330.811,-7.899976E-05
330.911,-7.896584E-05
331.011,-7.895643E-05
331.111,-7.893571E-05
331.211,-7.888674E-05
331.311,-7.888203E-05
331.411,-7.882082E-05
331.511,-7.879068E-05
331.611,-7.878033E-05
331.711,-7.872759E-05
331.811,-7.870122E-05
331.911,-7.869463E-05
332.011,-7.86579E-05
332.1111,-7.860988E-05
332.2111,-7.859763E-05
332.3111,-7.858257E-05
332.4111,-7.853171E-05
332.5111,-7.85204E-05
332.6111,-7.845449E-05
332.7111,-7.845731E-05
332.8111,-7.84752E-05
332.9111,-7.843942E-05
333.0111,-7.838103E-05
333.1111,-7.835843E-05
333.2111,-7.835373E-05
333.3111,-7.830004E-05
333.4111,-7.828215E-05
333.5111,-7.824637E-05
333.6111,-7.820869E-05
333.7112,-7.819646E-05
333.8112,-7.816726E-05
333.9112,-7.815219E-05
334.0112,-7.812017E-05
334.1112,-7.807968E-05
334.2112,-7.801941E-05
334.3112,-7.800999E-05
334.4112,-7.799493E-05
334.5112,-7.793371E-05
334.6112,-7.793277E-05
334.7112,-7.787626E-05
334.8112,-7.787249E-05
334.9112,-7.787815E-05
335.0112,-7.782824E-05
335.1112,-7.77981E-05
335.2112,-7.777833E-05
335.3112,-7.775384E-05
335.4113,-7.771712E-05
335.5113,-7.771617E-05
335.6113,-7.767661E-05
335.7113,-7.76107E-05
335.8113,-7.760411E-05
335.9113,-7.759185E-05
336.0113,-7.757774E-05
336.1113,-7.751841E-05
336.2113,-7.750804E-05
336.3113,-7.744966E-05
336.4113,-7.746473E-05
336.5113,-7.741105E-05
336.6113,-7.734701E-05
336.7113,-7.734513E-05
336.8113,-7.732723E-05
336.9113,-7.728109E-05
337.0114,-7.726037E-05
337.1114,-7.724718E-05
337.2114,-7.719916E-05
337.3114,-7.720764E-05
337.4114,-7.715961E-05
337.5114,-7.713136E-05
337.6114,-7.708709E-05
337.7114,-7.709275E-05
337.8114,-7.705695E-05
337.9114,-7.701364E-05
338.0114,-7.699763E-05
338.1114,-7.696561E-05
338.2114,-7.695243E-05
338.3114,-7.693642E-05
338.4114,-7.687332E-05
338.5114,-7.685919E-05
338.6115,-7.682435E-05
338.7115,-7.679893E-05
338.8115,-7.676973E-05
338.9115,-7.675184E-05
339.0115,-7.670098E-05
339.1115,-7.669062E-05
339.2115,-7.666613E-05
339.3115,-7.66313E-05
339.4115,-7.660587E-05
339.5115,-7.65682E-05
339.6115,-7.653995E-05
339.7115,-7.654278E-05
339.8115,-7.649003E-05
339.9115,-7.644672E-05
340.0115,-7.645331E-05
340.1115,-7.642506E-05
340.2115,-7.639775E-05
340.3116,-7.633842E-05
340.4116,-7.631394E-05
340.5116,-7.629604E-05
340.6116,-7.631111E-05
340.7116,-7.628756E-05
340.8116,-7.618962E-05
340.9116,-7.619998E-05
341.0116,-7.619245E-05
341.1116,-7.616231E-05
341.2116,-7.616797E-05
341.3116,-7.612936E-05
341.4116,-7.604365E-05
341.5116,-7.604648E-05
341.6116,-7.603612E-05
341.7116,-7.600881E-05
341.8116,-7.598621E-05
341.9117,-7.595889E-05
342.0117,-7.589487E-05
342.1117,-7.589298E-05
342.2117,-7.587979E-05
342.3117,-7.583082E-05
342.4117,-7.581575E-05
342.5117,-7.579409E-05
342.6117,-7.574135E-05
342.7117,-7.573194E-05
342.8117,-7.570934E-05
342.9117,-7.568297E-05
343.0117,-7.565189E-05
343.1117,-7.562552E-05
343.2117,-7.55662E-05
343.3117,-7.559916E-05
343.4117,-7.557185E-05
343.5117,-7.552006E-05
343.6118,-7.550216E-05
343.7118,-7.549369E-05
343.8118,-7.543624E-05
343.9118,-7.542305E-05
344.0118,-7.539574E-05
344.1118,-7.536561E-05
344.2118,-7.534395E-05
344.3118,-7.532606E-05
344.4118,-7.527897E-05
344.5118,-7.526296E-05
344.6118,-7.523754E-05
344.7118,-7.51961E-05
344.8118,-7.515372E-05
344.9118,-7.514618E-05
345.0118,-7.511322E-05
345.1118,-7.508592E-05
345.2119,-7.509251E-05
345.3119,-7.503601E-05
345.4119,-7.500587E-05
345.5119,-7.500681E-05
345.6119,-7.497196E-05
345.7119,-7.493995E-05
345.8119,-7.494183E-05
345.9119,-7.493336E-05
346.0119,-7.488439E-05
346.1119,-7.487497E-05
346.2119,-7.481564E-05
346.3119,-7.479115E-05
346.4119,-7.476856E-05
346.5119,-7.472994E-05
346.6119,-7.471487E-05
346.7119,-7.471017E-05
346.812,-7.465649E-05
346.912,-7.461222E-05
347.012,-7.460658E-05
347.112,-7.456703E-05
347.212,-7.456043E-05
347.312,-7.452464E-05
347.412,-7.447191E-05
347.512,-7.444647E-05
347.612,-7.444742E-05
347.712,-7.441163E-05
347.812,-7.439091E-05
347.912,-7.438244E-05
348.012,-7.432877E-05
348.112,-7.429298E-05
348.212,-7.429298E-05
348.312,-7.426472E-05
348.412,-7.42393E-05
348.5121,-7.419032E-05
348.6121,-7.417715E-05
348.7121,-7.418374E-05
348.8121,-7.414701E-05
348.9121,-7.408862E-05
349.0121,-7.408203E-05
349.1121,-7.407449E-05
349.2121,-7.405189E-05
349.3121,-7.401893E-05
349.4121,-7.398127E-05
349.5121,-7.394925E-05
349.6121,-7.392759E-05
349.7121,-7.390404E-05
349.8121,-7.386731E-05
349.9121,-7.385507E-05
350.0121,-7.381175E-05
350.1122,-7.377596E-05
350.2122,-7.375337E-05
350.3122,-7.374677E-05
350.4122,-7.370533E-05
350.5122,-7.368367E-05
350.6122,-7.36705E-05
350.7122,-7.359327E-05
350.8122,-7.359609E-05
350.9122,-7.359421E-05
351.0122,-7.355749E-05
351.1122,-7.351604E-05
351.2122,-7.355373E-05
351.3122,-7.352547E-05
351.4122,-7.347556E-05
351.5122,-7.344354E-05
351.6122,-7.342093E-05
351.7122,-7.336255E-05
351.8123,-7.337856E-05
351.9123,-7.3339E-05
352.0123,-7.330887E-05
352.1123,-7.327968E-05
352.2123,-7.324483E-05
352.3123,-7.324483E-05
352.4123,-7.32194E-05
352.5123,-7.319021E-05
352.6123,-7.316949E-05
352.7123,-7.313371E-05
352.8123,-7.309509E-05
352.9123,-7.312241E-05
353.0123,-7.308756E-05
353.1123,-7.30094E-05
353.2123,-7.300751E-05
353.3123,-7.298867E-05
353.4124,-7.29802E-05
353.5124,-7.294536E-05
353.6124,-7.289639E-05
353.7124,-7.285401E-05
353.8124,-7.285496E-05
353.9124,-7.284083E-05
354.0124,-7.278903E-05
354.1124,-7.276644E-05
354.2124,-7.275889E-05
354.3124,-7.273252E-05
354.4124,-7.268921E-05
354.5124,-7.266567E-05
354.6124,-7.263741E-05
354.7124,-7.263836E-05
354.8124,-7.260163E-05
354.9124,-7.256678E-05
355.0125,-7.256113E-05
355.1125,-7.256207E-05
355.2125,-7.247732E-05
355.3125,-7.247449E-05
355.4125,-7.248956E-05
355.5125,-7.247826E-05
355.6125,-7.240858E-05
355.7125,-7.239915E-05
355.8125,-7.239539E-05
355.9125,-7.23323E-05
356.0125,-7.231063E-05
356.1125,-7.229274E-05
356.2125,-7.222775E-05
356.3125,-7.225601E-05
356.4125,-7.221081E-05
356.5125,-7.219386E-05
356.6125,-7.220233E-05
356.7126,-7.213264E-05
356.8126,-7.213077E-05
356.9126,-7.210439E-05
357.0126,-7.207238E-05
357.1126,-7.206391E-05
357.2126,-7.205919E-05
357.3126,-7.200645E-05
357.4126,-7.196125E-05
357.5126,-7.19848E-05
357.6126,-7.195371E-05
357.7126,-7.191793E-05
357.8126,-7.189815E-05
357.9126,-7.185766E-05
358.0126,-7.182846E-05
358.1126,-7.186331E-05
358.2126,-7.179457E-05
358.3127,-7.177196E-05
358.4127,-7.175124E-05
358.5127,-7.173052E-05
358.6127,-7.171734E-05
358.7127,-7.170981E-05
358.8127,-7.167685E-05
358.9127,-7.16354E-05
359.0127,-7.161752E-05
359.1127,-7.160433E-05
359.2127,-7.156008E-05
359.3127,-7.156196E-05
359.4127,-7.153088E-05
359.5127,-7.149697E-05
359.6127,-7.151016E-05
359.7127,-7.147155E-05
359.8127,-7.142258E-05
359.9128,-7.142258E-05
360.0128,-7.139715E-05
360.1128,-7.138868E-05
360.2128,-7.136795E-05
360.3128,-7.131146E-05
360.4128,-7.129827E-05
360.5128,-7.128414E-05
360.6128,-7.125777E-05
360.7128,-7.119939E-05
360.8128,-7.120881E-05
360.9128,-7.120315E-05
361.0128,-7.115042E-05
361.1128,-7.113064E-05
361.2128,-7.109863E-05
361.3128,-7.110051E-05
361.4128,-7.106284E-05
361.5128,-7.104682E-05
361.6129,-7.099409E-05
361.7129,-7.09715E-05
361.8129,-7.098373E-05
361.9129,-7.095077E-05
362.0129,-7.092534E-05
362.1129,-7.091028E-05
362.2129,-7.089051E-05
362.3129,-7.086695E-05
362.4129,-7.086225E-05
362.5129,-7.079538E-05
362.6129,-7.076525E-05
362.7129,-7.076243E-05
362.8129,-7.073228E-05
362.9129,-7.071628E-05
363.0129,-7.070781E-05
363.1129,-7.063812E-05
363.213,-7.063812E-05
363.313,-7.062023E-05
363.413,-7.055524E-05
363.513,-7.054678E-05
363.613,-7.056278E-05
363.713,-7.052135E-05
363.813,-7.04752E-05
363.913,-7.04865E-05
364.013,-7.046296E-05
364.113,-7.041493E-05
364.213,-7.04234E-05
364.313,-7.036972E-05
364.413,-7.035842E-05
364.513,-7.034053E-05
364.613,-7.032075E-05
364.713,-7.027743E-05
364.813,-7.026237E-05
364.9131,-7.024918E-05
365.0131,-7.020775E-05
365.1131,-7.019833E-05
365.2131,-7.017855E-05
365.3131,-7.014936E-05
365.4131,-7.01098E-05
365.5131,-7.009661E-05
365.6131,-7.01098E-05
365.7131,-7.010604E-05
365.8131,-7.004389E-05
365.9131,-7.000622E-05
366.0131,-7.000339E-05
366.1131,-6.997984E-05
366.2131,-6.994594E-05
366.3131,-6.991957E-05
366.4131,-6.987626E-05
366.5132,-6.98725E-05
366.6132,-6.987908E-05
366.7132,-6.983105E-05
366.8132,-6.97849E-05
366.9132,-6.978585E-05
367.0132,-6.97802E-05
367.1132,-6.973877E-05
367.2132,-6.972181E-05
367.3132,-6.969168E-05
367.4132,-6.964647E-05
367.5132,-6.964742E-05
367.6132,-6.963235E-05
367.7132,-6.960221E-05
367.8132,-6.959562E-05
367.9132,-6.95636E-05
368.0132,-6.952781E-05
368.1133,-6.94845E-05
368.2133,-6.949392E-05
368.3133,-6.947884E-05
368.4133,-6.944777E-05
368.5133,-6.942328E-05
368.6133,-6.942988E-05
368.7133,-6.940163E-05
368.8133,-6.937149E-05
368.9133,-6.933852E-05
369.0133,-6.93423E-05
369.1133,-6.931121E-05
369.2133,-6.925377E-05
369.3133,-6.92387E-05
369.4133,-6.924153E-05
369.5133,-6.924718E-05
369.6133,-6.918597E-05
369.7133,-6.916618E-05
369.8134,-6.916713E-05
369.9134,-6.915678E-05
370.0134,-6.912664E-05
370.1134,-6.908237E-05
370.2134,-6.907107E-05
370.3134,-6.906072E-05
370.4134,-6.904565E-05
370.5134,-6.90061E-05
370.6134,-6.897219E-05
370.7134,-6.892793E-05
370.8134,-6.894206E-05
370.9134,-6.89364E-05
371.0134,-6.888367E-05
371.1134,-6.885259E-05
371.2134,-6.886578E-05
371.3134,-6.886578E-05
371.4135,-6.883753E-05
371.5135,-6.879703E-05
371.6135,-6.878479E-05
371.7135,-6.875842E-05
371.8135,-6.874241E-05
371.9135,-6.872547E-05
372.0135,-6.868025E-05
372.1135,-6.867461E-05
372.2135,-6.863693E-05
372.3135,-6.859173E-05
372.4135,-6.858609E-05
372.5135,-6.857102E-05
372.6135,-6.855783E-05
372.7135,-6.853994E-05
372.8135,-6.851169E-05
372.9135,-6.848815E-05
373.0135,-6.846742E-05
373.1136,-6.847025E-05
373.2136,-6.842505E-05
373.3136,-6.841186E-05
373.4136,-6.834688E-05
373.5136,-6.83629E-05
373.6136,-6.837325E-05
373.7136,-6.833653E-05
373.8136,-6.828285E-05
373.9136,-6.828379E-05
374.0136,-6.826684E-05
374.1136,-6.823482E-05
374.2136,-6.822257E-05
374.3136,-6.819904E-05
374.4136,-6.814065E-05
374.5136,-6.813877E-05
374.6136,-6.812463E-05
374.7137,-6.809921E-05
374.8137,-6.807189E-05
374.9137,-6.803893E-05
375.0137,-6.800597E-05
375.1137,-6.800504E-05
375.2137,-6.799562E-05
375.3137,-6.794665E-05
375.4137,-6.794476E-05
375.5137,-6.789863E-05
375.6137,-6.78713E-05
375.7137,-6.788638E-05
375.8137,-6.78327E-05
375.9137,-6.780445E-05
376.0137,-6.783458E-05
376.1137,-6.779598E-05
376.2137,-6.774982E-05
376.3138,-6.775453E-05
376.4138,-6.771781E-05
376.5138,-6.771498E-05
376.6138,-6.768108E-05
376.7138,-6.764153E-05
376.8138,-6.763494E-05
376.9138,-6.761328E-05
377.0138,-6.760951E-05
377.1138,-6.754924E-05
377.2138,-6.75304E-05
377.3138,-6.754736E-05
377.4138,-6.748331E-05
377.5138,-6.748426E-05
377.6138,-6.747578E-05
377.7138,-6.747108E-05
377.8138,-6.744847E-05
377.9138,-6.743623E-05
378.0139,-6.735619E-05
378.1139,-6.732887E-05
378.2139,-6.734771E-05
378.3139,-6.730344E-05
378.4139,-6.727519E-05
378.5139,-6.73138E-05
378.6139,-6.723282E-05
378.7139,-6.719609E-05
378.8139,-6.719138E-05
378.9139,-6.715654E-05
379.0139,-6.713205E-05
379.1139,-6.712451E-05
379.2139,-6.710285E-05
379.3139,-6.707555E-05
379.4139,-6.707649E-05
379.5139,-6.703788E-05
379.614,-6.699644E-05
379.714,-6.699927E-05
379.814,-6.698514E-05
379.914,-6.695312E-05
380.014,-6.694465E-05
380.114,-6.68872E-05
380.214,-6.686177E-05
380.314,-6.69051E-05
380.414,-6.689567E-05
380.514,-6.68486E-05
380.614,-6.681657E-05
380.714,-6.68194E-05
380.814,-6.678267E-05
380.914,-6.676101E-05
381.014,-6.675442E-05
381.114,-6.670827E-05
381.2141,-6.670546E-05
381.3141,-6.666966E-05
381.4141,-6.662634E-05
381.5141,-6.665647E-05
381.6141,-6.661504E-05
381.7141,-6.656608E-05
381.8141,-6.655477E-05
381.9141,-6.656136E-05
382.0141,-6.652558E-05
382.1141,-6.651616E-05
382.2141,-6.648037E-05
382.3141,-6.645494E-05
382.4141,-6.644176E-05
382.5141,-6.643988E-05
382.6141,-6.639562E-05
382.7141,-6.635795E-05
382.8141,-6.631745E-05
382.9142,-6.629297E-05
383.0142,-6.628826E-05
383.1142,-6.62487E-05
383.2142,-6.619692E-05
383.3142,-6.616773E-05
383.4142,-6.6147E-05
383.5142,-6.612534E-05
383.6142,-6.611498E-05
383.7142,-6.604341E-05
383.8142,-6.600669E-05
383.9142,-6.601986E-05
384.0142,-6.60048E-05
384.1142,-6.593604E-05
384.2142,-6.591251E-05
384.3142,-6.587672E-05
384.4142,-6.585696E-05
384.5143,-6.584941E-05
384.6143,-6.58221E-05
384.7143,-6.577219E-05
384.8143,-6.576748E-05
384.9143,-6.576936E-05
385.0143,-6.568461E-05
385.1143,-6.567425E-05
385.2143,-6.565823E-05
385.3143,-6.563564E-05
385.4143,-6.562151E-05
385.5143,-6.559232E-05
385.6143,-6.554335E-05
385.7143,-6.553959E-05
385.8143,-6.553205E-05
385.9143,-6.548684E-05
386.0143,-6.546236E-05
386.1143,-6.545294E-05
386.2144,-6.54407E-05
386.3144,-6.540398E-05
386.4144,-6.536819E-05
386.5144,-6.536724E-05
386.6144,-6.535029E-05
386.7144,-6.532298E-05
386.8144,-6.52712E-05
386.9144,-6.527967E-05
387.0144,-6.524859E-05
387.1144,-6.522222E-05
387.2144,-6.518832E-05
387.3144,-6.519303E-05
387.4144,-6.517984E-05
387.5144,-6.515159E-05
387.6144,-6.513841E-05
387.7144,-6.508661E-05
387.8145,-6.508849E-05
387.9145,-6.507626E-05
388.0145,-6.505741E-05
388.1145,-6.502445E-05
388.2145,-6.501127E-05
388.3145,-6.497172E-05
388.4145,-6.496419E-05
388.5145,-6.497549E-05
388.6145,-6.492369E-05
388.7145,-6.489449E-05
388.8145,-6.488602E-05
388.9145,-6.486907E-05
389.0145,-6.484836E-05
389.1145,-6.486907E-05
389.2145,-6.482482E-05
389.3145,-6.479562E-05
389.4146,-6.477772E-05
389.5146,-6.477396E-05
389.6146,-6.474947E-05
389.7146,-6.473064E-05
389.8146,-6.472216E-05
389.9146,-6.469955E-05
390.0146,-6.468073E-05
390.1146,-6.465624E-05
390.2146,-6.465812E-05
390.3146,-6.463929E-05
390.4146,-6.457619E-05
390.5146,-6.458373E-05
390.6146,-6.457148E-05
390.7146,-6.455453E-05
390.8146,-6.453098E-05
390.9146,-6.451781E-05
391.0146,-6.44905E-05
391.1147,-6.445094E-05
391.2147,-6.446036E-05
391.3147,-6.442269E-05
391.4147,-6.441421E-05
391.5147,-6.440197E-05
391.6147,-6.437843E-05
391.7147,-6.438031E-05
391.8147,-6.435583E-05
391.9147,-6.431063E-05
392.0147,-6.428426E-05
392.1147,-6.428426E-05
392.2147,-6.426542E-05
392.3147,-6.426542E-05
392.4147,-6.425789E-05
392.5147,-6.419291E-05
392.6147,-6.419385E-05
392.7148,-6.421081E-05
392.8148,-6.420421E-05
392.9148,-6.414393E-05
393.0148,-6.415241E-05
393.1148,-6.414865E-05
393.2148,-6.409497E-05
393.3148,-6.410533E-05
393.4148,-6.409214E-05
393.5148,-6.403188E-05
393.6148,-6.402434E-05
393.7148,-6.401963E-05
393.8148,-6.398855E-05
393.9148,-6.398479E-05
394.0148,-6.396501E-05
394.1148,-6.391604E-05
394.2148,-6.391415E-05
394.3148,-6.39038E-05
394.4149,-6.38859E-05
394.5149,-6.387461E-05
394.6149,-6.384729E-05
394.7149,-6.38228E-05
394.8149,-6.384353E-05
394.9149,-6.381528E-05
395.0149,-6.378043E-05
395.1149,-6.377854E-05
395.2149,-6.375689E-05
395.3149,-6.373334E-05
395.4149,-6.372016E-05
395.5149,-6.368437E-05
395.6149,-6.366554E-05
395.7149,-6.367685E-05
395.8149,-6.367966E-05
395.9149,-6.363917E-05
396.015,-6.360809E-05
396.115,-6.35949E-05
396.215,-6.356665E-05
396.315,-6.359961E-05
396.415,-6.355064E-05
396.515,-6.352239E-05
396.615,-6.351392E-05
396.715,-6.347719E-05
396.815,-6.347532E-05
396.915,-6.347813E-05
397.015,-6.345836E-05
397.115,-6.341692E-05
397.215,-6.340467E-05
397.315,-6.339903E-05
397.415,-6.337642E-05
397.515,-6.337737E-05
397.6151,-6.332558E-05
397.7151,-6.329167E-05
397.8151,-6.329826E-05
397.9151,-6.328226E-05
398.0151,-6.328037E-05
398.1151,-6.326248E-05
398.2151,-6.322481E-05
398.3151,-6.320786E-05
398.4151,-6.321162E-05
398.5151,-6.318713E-05
398.6151,-6.316266E-05
398.7151,-6.316548E-05
398.8151,-6.311934E-05
398.9151,-6.312499E-05
399.0151,-6.311556E-05
399.1151,-6.305247E-05
399.2151,-6.305813E-05
399.3152,-6.304117E-05
399.4152,-6.304305E-05
399.5152,-6.301668E-05
399.6152,-6.300633E-05
399.7152,-6.297337E-05
399.8152,-6.295547E-05
399.9152,-6.295076E-05
400.0152,-6.291498E-05
400.1152,-6.287919E-05
400.2152,-6.290273E-05
400.3152,-6.291969E-05
400.4152,-6.285094E-05
400.5152,-6.284624E-05
400.6152,-6.283305E-05
400.7152,-6.279632E-05
400.8152,-6.279443E-05
400.9153,-6.276336E-05
401.0153,-6.272004E-05
401.1153,-6.274641E-05
401.2153,-6.273417E-05
401.3153,-6.266636E-05
401.4153,-6.267013E-05
401.5153,-6.26852E-05
401.6153,-6.263999E-05
401.7153,-6.262869E-05
401.8153,-6.260703E-05
401.9153,-6.257313E-05
402.0153,-6.256653E-05
402.1153,-6.256653E-05
402.2153,-6.252793E-05
402.3153,-6.249685E-05
402.4153,-6.249308E-05
402.5154,-6.245071E-05
402.6154,-6.246389E-05
402.7154,-6.244317E-05
402.8154,-6.242246E-05
402.9154,-6.244129E-05
403.0154,-6.24055E-05
403.1154,-6.236877E-05
403.2154,-6.235654E-05
403.3154,-6.23377E-05
403.4154,-6.232169E-05
403.5154,-6.231133E-05
403.6154,-6.227742E-05
403.7154,-6.226142E-05
403.8154,-6.225294E-05
403.9154,-6.223128E-05
404.0154,-6.219078E-05
404.1154,-6.218514E-05
404.2155,-6.218231E-05
404.3155,-6.214182E-05
404.4155,-6.213522E-05
404.5155,-6.211262E-05
404.6155,-6.209849E-05
404.7155,-6.207778E-05
404.8155,-6.20467E-05
404.9155,-6.202693E-05
405.0155,-6.2042E-05
405.1155,-6.201092E-05
405.2155,-6.195912E-05
405.3155,-6.196101E-05
405.4155,-6.193746E-05
405.5155,-6.192051E-05
405.6155,-6.191015E-05
405.7155,-6.189791E-05
405.8156,-6.187154E-05
405.9156,-6.187907E-05
406.0156,-6.183952E-05
406.1156,-6.180279E-05
406.2156,-6.179432E-05
406.3156,-6.179903E-05
406.4156,-6.176701E-05
406.5156,-6.172934E-05
406.6156,-6.17331E-05
406.7156,-6.172463E-05
406.8156,-6.17058E-05
406.9156,-6.168131E-05
407.0156,-6.166342E-05
407.1156,-6.164647E-05
407.2156,-6.164929E-05
407.3156,-6.157678E-05
407.4156,-6.157489E-05
407.5157,-6.157584E-05
407.6157,-6.156359E-05
407.7157,-6.153063E-05
407.8157,-6.152498E-05
407.9157,-6.150144E-05
408.0157,-6.149579E-05
408.1157,-6.147507E-05
408.2157,-6.143835E-05
408.3157,-6.140821E-05
408.4157,-6.143081E-05
408.5157,-6.141197E-05
408.6157,-6.137713E-05
408.7157,-6.1363E-05
408.8157,-6.133664E-05
408.9157,-6.131686E-05
409.0157,-6.133381E-05
409.1158,-6.128108E-05
409.2158,-6.125659E-05
409.3158,-6.127825E-05
409.4158,-6.126883E-05
409.5158,-6.124717E-05
409.6158,-6.124341E-05
409.7158,-6.119915E-05
409.8158,-6.119726E-05
409.9158,-6.120103E-05
410.0158,-6.114734E-05
410.1158,-6.111062E-05
410.2158,-6.112004E-05
410.3158,-6.110026E-05
410.4158,-6.109179E-05
410.5158,-6.105035E-05
410.6158,-6.101457E-05
410.7159,-6.102116E-05
410.8159,-6.102304E-05
410.9159,-6.098254E-05
411.0159,-6.095523E-05
411.1159,-6.09477E-05
411.2159,-6.09251E-05
411.3159,-6.090156E-05
411.4159,-6.090438E-05
411.5159,-6.088084E-05
411.6159,-6.087331E-05
411.7159,-6.085353E-05
411.8159,-6.08168E-05
411.9159,-6.079232E-05
412.0159,-6.079232E-05
412.1159,-6.077066E-05
412.2159,-6.0765E-05
412.3159,-6.075465E-05
412.416,-6.069155E-05
412.516,-6.067554E-05
412.616,-6.070285E-05
412.716,-6.072451E-05
412.816,-6.068213E-05
412.916,-6.066895E-05
413.016,-6.065577E-05
413.116,-6.061339E-05
413.216,-6.063881E-05
413.316,-6.05889E-05
413.416,-6.057384E-05
413.516,-6.056159E-05
413.616,-6.055217E-05
413.716,-6.053523E-05
413.816,-6.051074E-05
413.916,-6.047212E-05
414.0161,-6.047212E-05
414.1161,-6.045329E-05
414.2161,-6.044293E-05
414.3161,-6.038925E-05
414.4161,-6.041751E-05
414.5161,-6.037607E-05
414.6161,-6.03497E-05
414.7161,-6.037042E-05
414.8161,-6.03497E-05
414.9161,-6.030921E-05
415.0161,-6.030827E-05
415.1161,-6.03158E-05
415.2161,-6.024046E-05
415.3161,-6.02367E-05
415.4161,-6.02367E-05
415.5161,-6.022539E-05
415.6161,-6.023764E-05
415.7162,-6.020562E-05
415.8162,-6.016701E-05
415.9162,-6.01736E-05
416.0162,-6.016041E-05
416.1162,-6.013781E-05
416.2162,-6.009638E-05
416.3162,-6.009072E-05
416.4162,-6.006812E-05
416.5162,-6.005589E-05
416.6162,-6.003611E-05
416.7162,-5.999185E-05
416.8162,-5.99975E-05
416.9162,-5.998054E-05
417.0162,-5.994664E-05
417.1162,-5.993534E-05
417.2162,-5.994947E-05
417.3163,-5.989108E-05
417.4163,-5.986471E-05
417.5163,-5.987884E-05
417.6163,-5.986188E-05
417.7163,-5.986094E-05
417.8163,-5.982516E-05
417.9163,-5.981386E-05
418.0163,-5.978372E-05
418.1163,-5.977431E-05
418.2163,-5.976301E-05
418.3163,-5.97357E-05
418.4163,-5.972816E-05
418.5163,-5.968484E-05
418.6163,-5.969426E-05
418.7163,-5.967731E-05
418.8163,-5.963963E-05
418.9164,-5.964717E-05
419.0164,-5.963775E-05
419.1164,-5.955205E-05
419.2164,-5.9553E-05
419.3164,-5.959726E-05
419.4164,-5.957089E-05
419.5164,-5.951721E-05
419.6164,-5.952851E-05
419.7164,-5.950591E-05
419.8164,-5.948801E-05
419.9164,-5.946542E-05
420.0164,-5.944187E-05
420.1164,-5.941268E-05
420.2164,-5.941268E-05
420.3164,-5.938725E-05
420.4164,-5.938348E-05
420.5164,-5.935712E-05
420.6165,-5.932416E-05
420.7165,-5.930721E-05
420.8165,-5.931286E-05
420.9165,-5.92912E-05
421.0165,-5.92733E-05
421.1165,-5.924882E-05
421.2165,-5.922433E-05
421.3165,-5.920361E-05
421.4165,-5.921115E-05
421.5165,-5.918572E-05
421.6165,-5.914429E-05
421.7165,-5.915276E-05
421.8165,-5.91537E-05
421.9165,-5.914523E-05
422.0165,-5.911227E-05
422.1165,-5.90859E-05
422.2166,-5.907366E-05
422.3166,-5.911697E-05
422.4166,-5.905388E-05
422.5166,-5.900962E-05
422.6166,-5.900867E-05
422.7166,-5.900491E-05
422.8166,-5.898702E-05
422.9166,-5.89663E-05
423.0166,-5.893334E-05
423.1166,-5.888342E-05
423.2166,-5.893993E-05
423.3166,-5.890508E-05
423.4166,-5.887024E-05
423.5166,-5.887778E-05
423.6166,-5.885517E-05
423.7166,-5.882881E-05
423.8167,-5.880621E-05
423.9167,-5.881845E-05
424.0167,-5.87789E-05
424.1167,-5.876853E-05
424.2167,-5.874594E-05
424.3167,-5.87271E-05
424.4167,-5.872992E-05
424.5167,-5.868849E-05
424.6167,-5.866871E-05
424.7167,-5.865176E-05
424.8167,-5.8648E-05
424.9167,-5.862539E-05
425.0167,-5.861032E-05
425.1167,-5.858678E-05
425.2167,-5.855571E-05
425.3167,-5.858866E-05
425.4167,-5.855571E-05
425.5168,-5.852557E-05
425.6168,-5.852275E-05
425.7168,-5.85105E-05
425.8168,-5.849355E-05
425.9168,-5.845965E-05
426.0168,-5.846059E-05
426.1168,-5.841821E-05
426.2168,-5.84248E-05
426.3168,-5.840597E-05
426.4168,-5.837489E-05
426.5168,-5.83796E-05
426.6168,-5.836642E-05
426.7168,-5.834099E-05
426.8168,-5.832216E-05
426.9168,-5.830803E-05
427.0168,-5.830238E-05
427.1169,-5.830426E-05
427.2169,-5.828072E-05
427.3169,-5.824211E-05
427.4169,-5.822421E-05
427.5169,-5.821762E-05
427.6169,-5.82082E-05
427.7169,-5.822421E-05
427.8169,-5.818843E-05
427.9169,-5.815076E-05
428.0169,-5.814699E-05
428.1169,-5.815358E-05
428.2169,-5.81112E-05
428.3169,-5.809897E-05
428.4169,-5.809802E-05
428.5169,-5.80773E-05
428.6169,-5.80726E-05
428.7169,-5.803963E-05
428.817,-5.801609E-05
428.917,-5.801798E-05
429.017,-5.80321E-05
429.117,-5.796995E-05
429.217,-5.797842E-05
429.317,-5.795676E-05
429.417,-5.792474E-05
429.517,-5.79464E-05
429.617,-5.794735E-05
429.717,-5.787954E-05
429.817,-5.787483E-05
429.917,-5.787201E-05
430.017,-5.784093E-05
430.117,-5.785035E-05
430.217,-5.782022E-05
430.317,-5.776465E-05
430.4171,-5.778631E-05
430.5171,-5.778819E-05
430.6171,-5.775523E-05
430.7171,-5.772886E-05
430.8171,-5.771945E-05
430.9171,-5.768272E-05
431.0171,-5.770721E-05
431.1171,-5.769402E-05
431.2171,-5.765164E-05
431.3171,-5.765164E-05
431.4171,-5.764317E-05
431.5171,-5.762056E-05
431.6171,-5.761115E-05
431.7171,-5.760361E-05
431.8171,-5.755464E-05
431.9171,-5.757536E-05
432.0172,-5.756218E-05
432.1172,-5.752639E-05
432.2172,-5.751509E-05
432.3172,-5.748119E-05
432.4172,-5.748307E-05
432.5172,-5.748213E-05
432.6172,-5.743598E-05
432.7172,-5.742468E-05
432.8172,-5.743693E-05
432.9172,-5.741245E-05
433.0172,-5.735971E-05
433.1172,-5.737007E-05
433.2172,-5.735311E-05
433.3172,-5.732769E-05
433.4172,-5.731921E-05
433.5172,-5.733804E-05
433.6172,-5.728813E-05
433.7173,-5.727307E-05
433.8173,-5.725894E-05
433.9173,-5.722786E-05
434.0173,-5.721656E-05
434.1173,-5.719961E-05
434.2173,-5.720244E-05
434.3173,-5.720714E-05
434.4173,-5.719208E-05
434.5173,-5.715535E-05
434.6173,-5.715723E-05
434.7173,-5.714499E-05
434.8173,-5.71271E-05
434.9173,-5.712145E-05
435.0173,-5.708754E-05
435.1173,-5.705458E-05
435.2173,-5.704517E-05
435.3174,-5.704517E-05
435.4174,-5.702068E-05
435.5174,-5.69962E-05
435.6174,-5.698019E-05
435.7174,-5.696418E-05
435.8174,-5.695382E-05
435.9174,-5.697359E-05
436.0174,-5.690014E-05
436.1174,-5.690296E-05
436.2174,-5.688695E-05
436.3174,-5.68653E-05
436.4174,-5.686624E-05
436.5174,-5.686341E-05
436.6174,-5.683422E-05
436.7174,-5.680879E-05
436.8174,-5.679938E-05
436.9174,-5.678996E-05
437.0175,-5.677206E-05
437.1175,-5.679467E-05
437.2175,-5.673063E-05
437.3175,-5.674852E-05
437.4175,-5.674005E-05
437.5175,-5.668449E-05
437.6175,-5.668731E-05
437.7175,-5.67052E-05
437.8175,-5.667601E-05
437.9175,-5.666E-05
438.0175,-5.664305E-05
438.1175,-5.665623E-05
438.2175,-5.659785E-05
438.3175,-5.660067E-05
438.4175,-5.658466E-05
438.5175,-5.657713E-05
438.6176,-5.654793E-05
438.7176,-5.652533E-05
438.8176,-5.65112E-05
438.9176,-5.651403E-05
439.0176,-5.647354E-05
439.1176,-5.647448E-05
439.2176,-5.646412E-05
439.3176,-5.646224E-05
439.4176,-5.643116E-05
439.5176,-5.642268E-05
439.6176,-5.638218E-05
439.7176,-5.639255E-05
439.8176,-5.639443E-05
439.9176,-5.637183E-05
440.0176,-5.63238E-05
440.1176,-5.634829E-05
440.2177,-5.631344E-05
440.3177,-5.629837E-05
440.4177,-5.629367E-05
440.5177,-5.627012E-05
440.6177,-5.625223E-05
440.7177,-5.624375E-05
440.8177,-5.620043E-05
440.9177,-5.620515E-05
441.0177,-5.619949E-05
441.1177,-5.616559E-05
441.2177,-5.614581E-05
441.3177,-5.616653E-05
441.4177,-5.613263E-05
441.5177,-5.610155E-05
441.6177,-5.612415E-05
441.7177,-5.61138E-05
441.8177,-5.609214E-05
441.9178,-5.611191E-05
442.0178,-5.608648E-05
442.1178,-5.606859E-05
442.2178,-5.61072E-05
442.3178,-5.607895E-05
442.4178,-5.602716E-05
442.5178,-5.602904E-05
442.6178,-5.60328E-05
442.7178,-5.598478E-05
442.8178,-5.599231E-05
442.9178,-5.596688E-05
443.0178,-5.593298E-05
443.1178,-5.593487E-05
443.2178,-5.591886E-05
443.3178,-5.591227E-05
443.4178,-5.59198E-05
443.5179,-5.588213E-05
443.6179,-5.584917E-05
443.7179,-5.585482E-05
443.8179,-5.583786E-05
443.9179,-5.578702E-05
444.0179,-5.582186E-05
444.1179,-5.58002E-05
444.2179,-5.575405E-05
444.3179,-5.574652E-05
444.4179,-5.575029E-05
444.5179,-5.573522E-05
444.6179,-5.571638E-05
444.7179,-5.570697E-05
444.8179,-5.571356E-05
444.9179,-5.572298E-05
445.0179,-5.569472E-05
445.118,-5.566553E-05
445.218,-5.567589E-05
445.318,-5.566365E-05
445.418,-5.56175E-05
445.518,-5.561468E-05
445.618,-5.564105E-05
445.718,-5.558266E-05
445.818,-5.557418E-05
445.918,-5.557512E-05
446.018,-5.553275E-05
446.118,-5.553275E-05
446.218,-5.552521E-05
446.318,-5.549319E-05
446.418,-5.548001E-05
446.518,-5.548095E-05
446.618,-5.548189E-05
446.718,-5.548849E-05
446.8181,-5.54414E-05
446.9181,-5.546212E-05
447.0181,-5.542915E-05
447.1181,-5.543293E-05
447.2181,-5.541032E-05
447.3181,-5.538489E-05
447.4181,-5.537171E-05
447.5181,-5.533781E-05
447.6181,-5.534157E-05
447.7181,-5.535099E-05
447.8181,-5.530485E-05
447.9181,-5.532462E-05
448.0181,-5.527942E-05
448.1181,-5.525494E-05
448.2181,-5.52587E-05
448.3181,-5.523233E-05
448.4182,-5.521726E-05
448.5182,-5.521538E-05
448.6182,-5.520314E-05
448.7182,-5.517677E-05
448.8182,-5.515323E-05
448.9182,-5.516547E-05
449.0182,-5.511933E-05
449.1182,-5.513157E-05
449.2182,-5.512403E-05
449.3182,-5.509202E-05
449.4182,-5.507506E-05
449.5182,-5.509013E-05
449.6182,-5.504587E-05
449.7182,-5.503645E-05
449.8182,-5.505906E-05
449.9182,-5.502138E-05
450.0182,-5.500349E-05
450.1183,-5.498372E-05
450.2183,-5.497054E-05
450.3183,-5.497995E-05
450.4183,-5.496959E-05
450.5183,-5.493663E-05
450.6183,-5.492533E-05
450.7183,-5.493004E-05
450.8183,-5.491779E-05
450.9183,-5.491497E-05
451.0183,-5.488954E-05
451.1183,-5.482174E-05
451.2183,-5.483963E-05
451.3183,-5.486223E-05
451.4183,-5.483398E-05
451.5183,-5.480102E-05
451.6183,-5.479914E-05
451.7184,-5.479349E-05
451.8184,-5.478501E-05
451.9184,-5.477183E-05
452.0184,-5.471532E-05
452.1184,-5.471815E-05
452.2184,-5.472851E-05
452.3184,-5.472192E-05
452.4184,-5.469837E-05
452.5184,-5.466729E-05
452.6184,-5.466541E-05
452.7184,-5.464187E-05
452.8184,-5.464187E-05
452.9184,-5.461833E-05
453.0184,-5.462963E-05
453.1184,-5.461738E-05
453.2184,-5.45816E-05
453.3185,-5.457312E-05
453.4185,-5.457124E-05
453.5185,-5.453734E-05
453.6185,-5.452792E-05
453.7185,-5.454581E-05
453.8185,-5.450814E-05
453.9185,-5.447518E-05
454.0185,-5.451661E-05
454.1185,-5.448836E-05
454.2185,-5.445917E-05
454.3185,-5.446859E-05
454.4185,-5.446859E-05
454.5185,-5.442056E-05
454.6185,-5.44507E-05
454.7185,-5.443469E-05
454.8185,-5.438854E-05
454.9185,-5.440926E-05
455.0186,-5.436877E-05
455.1186,-5.432827E-05
455.2186,-5.432357E-05
455.3186,-5.434428E-05
455.4186,-5.431132E-05
455.5186,-5.428778E-05
455.6186,-5.426141E-05
455.7186,-5.426329E-05
455.8186,-5.42793E-05
455.9186,-5.424258E-05
456.0186,-5.420114E-05
456.1186,-5.42115E-05
456.2186,-5.421526E-05
456.3186,-5.418795E-05
456.4186,-5.415594E-05
456.5186,-5.414652E-05
456.6187,-5.41145E-05
456.7187,-5.413898E-05
456.8187,-5.413239E-05
456.9187,-5.409755E-05
457.0187,-5.410414E-05
457.1187,-5.406647E-05
457.2187,-5.406835E-05
457.3187,-5.406176E-05
457.4187,-5.402598E-05
457.5187,-5.401185E-05
457.6187,-5.400996E-05
457.7187,-5.399019E-05
457.8187,-5.396853E-05
457.9187,-5.395064E-05
458.0187,-5.39431E-05
458.1187,-5.39158E-05
458.2188,-5.391862E-05
458.3188,-5.387436E-05
458.4188,-5.386117E-05
458.5188,-5.389037E-05
458.6188,-5.387436E-05
458.7188,-5.383857E-05
458.8188,-5.384046E-05
458.9188,-5.383669E-05
459.0188,-5.382162E-05
459.1188,-5.380655E-05
459.2188,-5.379431E-05
459.3188,-5.375381E-05
459.4188,-5.375758E-05
459.5188,-5.375193E-05
459.6188,-5.372933E-05
459.7188,-5.372086E-05
459.8188,-5.371897E-05
459.9189,-5.36766E-05
460.0189,-5.366341E-05
460.1189,-5.368224E-05
460.2189,-5.365776E-05
460.3189,-5.363139E-05
460.4189,-5.360314E-05
460.5189,-5.356264E-05
460.6189,-5.362197E-05
460.7189,-5.362009E-05
460.8189,-5.354852E-05
460.9189,-5.355323E-05
461.0189,-5.355605E-05
461.1189,-5.354381E-05
461.2189,-5.35391E-05
461.3189,-5.352592E-05
461.4189,-5.349578E-05
461.519,-5.349955E-05
461.619,-5.347036E-05
461.719,-5.344399E-05
461.819,-5.344587E-05
461.919,-5.345058E-05
462.019,-5.343551E-05
462.119,-5.340161E-05
462.219,-5.339502E-05
462.319,-5.338654E-05
462.419,-5.339785E-05
462.519,-5.336959E-05
462.619,-5.334134E-05
462.719,-5.336488E-05
462.819,-5.334887E-05
462.919,-5.32999E-05
463.019,-5.331779E-05
463.119,-5.330743E-05
463.2191,-5.329049E-05
463.3191,-5.329708E-05
463.4191,-5.326223E-05
463.5191,-5.323492E-05
463.6191,-5.325752E-05
463.7191,-5.324057E-05
463.8191,-5.320008E-05
463.9191,-5.320008E-05
464.0191,-5.318972E-05
464.1191,-5.318124E-05
464.2191,-5.318501E-05
464.3191,-5.313133E-05
464.4191,-5.314169E-05
464.5191,-5.312003E-05
464.6191,-5.311532E-05
464.7191,-5.30899E-05
464.8192,-5.306635E-05
464.9192,-5.305976E-05
465.0192,-5.305505E-05
465.1192,-5.307765E-05
465.2192,-5.302397E-05
465.3192,-5.299855E-05
465.4192,-5.300608E-05
465.5192,-5.300326E-05
465.6192,-5.297595E-05
465.7192,-5.29816E-05
465.8192,-5.294675E-05
465.9192,-5.294204E-05
466.0192,-5.295899E-05
466.1192,-5.296277E-05
466.2192,-5.291473E-05
466.3192,-5.290249E-05
466.4193,-5.290061E-05
466.5193,-5.287141E-05
466.6193,-5.288083E-05
466.7193,-5.284881E-05
466.8193,-5.282433E-05
466.9193,-5.28328E-05
467.0193,-5.283374E-05
467.1193,-5.279702E-05
467.2193,-5.280266E-05
467.3193,-5.277912E-05
467.4193,-5.273675E-05
467.5193,-5.273958E-05
467.6193,-5.27424E-05
467.7193,-5.272073E-05
467.8193,-5.270567E-05
467.9193,-5.268119E-05
468.0193,-5.267459E-05
468.1194,-5.266423E-05
468.2194,-5.268684E-05
468.3194,-5.261997E-05
468.4194,-5.26049E-05
468.5194,-5.261055E-05
468.6194,-5.259454E-05
468.7194,-5.260773E-05
468.8194,-5.257006E-05
468.9194,-5.253239E-05
469.0194,-5.254652E-05
469.1194,-5.255499E-05
469.2194,-5.252109E-05
469.3194,-5.252674E-05
469.4194,-5.250508E-05
469.5194,-5.249755E-05
469.6194,-5.249661E-05
469.7195,-5.245705E-05
469.8195,-5.246365E-05
469.9195,-5.247118E-05
470.0195,-5.243633E-05
470.1195,-5.240996E-05
470.2195,-5.243633E-05
470.3195,-5.242597E-05
470.4195,-5.238454E-05
470.5195,-5.236288E-05
470.6195,-5.236664E-05
470.7195,-5.237136E-05
470.8195,-5.235817E-05
470.9195,-5.234687E-05
471.0195,-5.227059E-05
471.1195,-5.231485E-05
471.2195,-5.232615E-05
471.3195,-5.227247E-05
471.4196,-5.22753E-05
471.5196,-5.22753E-05
471.6196,-5.223763E-05
471.7196,-5.225834E-05
471.8196,-5.221596E-05
471.9196,-5.219996E-05
472.0196,-5.221126E-05
472.1196,-5.220655E-05
472.2196,-5.218677E-05
472.3196,-5.214534E-05
472.4196,-5.213686E-05
472.5196,-5.212839E-05
472.6196,-5.211614E-05
472.7196,-5.212462E-05
472.8196,-5.208036E-05
472.9196,-5.210296E-05
473.0197,-5.208413E-05
473.1197,-5.204928E-05
473.2197,-5.20361E-05
473.3197,-5.205399E-05
473.4197,-5.205493E-05
473.5197,-5.203704E-05
473.6197,-5.20069E-05
473.7197,-5.197488E-05
473.8197,-5.198524E-05
473.9197,-5.20069E-05
474.0197,-5.196641E-05
474.1197,-5.190426E-05
474.2197,-5.195417E-05
474.3197,-5.197018E-05
474.4197,-5.194946E-05
474.5197,-5.19212E-05
474.6198,-5.19212E-05
474.7198,-5.189672E-05
474.8198,-5.190426E-05
474.9198,-5.188165E-05
475.0198,-5.185905E-05
475.1198,-5.185905E-05
475.2198,-5.181197E-05
475.3198,-5.181291E-05
475.4198,-5.183174E-05
475.5198,-5.181008E-05
475.6198,-5.17743E-05
475.7198,-5.178842E-05
475.8198,-5.177806E-05
475.9198,-5.17338E-05
476.0198,-5.174322E-05
476.1198,-5.171779E-05
476.2198,-5.171685E-05
476.3199,-5.170272E-05
476.4199,-5.169331E-05
476.5199,-5.167824E-05
476.6199,-5.16886E-05
476.7199,-5.166223E-05
476.8199,-5.163586E-05
476.9199,-5.16321E-05
477.0199,-5.16368E-05
477.1199,-5.161703E-05
477.2199,-5.159066E-05
477.3199,-5.157182E-05
477.4199,-5.15577E-05
477.5199,-5.157654E-05
477.6199,-5.157936E-05
477.7199,-5.153416E-05
477.8199,-5.152568E-05
477.92,-5.151815E-05
478.02,-5.149366E-05
478.12,-5.150778E-05
478.22,-5.146917E-05
478.32,-5.146729E-05
478.42,-5.148612E-05
478.52,-5.146729E-05
478.62,-5.142209E-05
478.72,-5.141644E-05
478.82,-5.140608E-05
478.92,-5.139855E-05
479.02,-5.138254E-05
479.12,-5.137501E-05
479.22,-5.134298E-05
479.32,-5.136935E-05
479.42,-5.137783E-05
479.5201,-5.134298E-05
479.6201,-5.136182E-05
479.7201,-5.132792E-05
479.8201,-5.130437E-05
479.9201,-5.132132E-05
480.0201,-5.129496E-05
480.1201,-5.127801E-05
480.2201,-5.128177E-05
480.3201,-5.128742E-05
480.4201,-5.124504E-05
480.5201,-5.124881E-05
480.6201,-5.12102E-05
480.7201,-5.120832E-05
480.8201,-5.121679E-05
480.9201,-5.120737E-05
481.0201,-5.114899E-05
481.1201,-5.114334E-05
481.2202,-5.116688E-05
481.3202,-5.113769E-05
481.4202,-5.114334E-05
481.5202,-5.112073E-05
481.6202,-5.108401E-05
481.7202,-5.108683E-05
481.8202,-5.108777E-05
481.9202,-5.105952E-05
482.0202,-5.106988E-05
482.1202,-5.107553E-05
482.2202,-5.102751E-05
482.3202,-5.103127E-05
482.4202,-5.101997E-05
482.5202,-5.099548E-05
482.6202,-5.10049E-05
482.7202,-5.102091E-05
482.8203,-5.096818E-05
482.9203,-5.096629E-05
483.0203,-5.098418E-05
483.1203,-5.095028E-05
483.2203,-5.093333E-05
483.3203,-5.091826E-05
483.4203,-5.091167E-05
483.5203,-5.092862E-05
483.6203,-5.087965E-05
483.7203,-5.085517E-05
483.8203,-5.087306E-05
483.9203,-5.088436E-05
484.0203,-5.08401E-05
484.1203,-5.086741E-05
484.2203,-5.082692E-05
484.3203,-5.081185E-05
484.4203,-5.085423E-05
484.5204,-5.082409E-05
484.6204,-5.076476E-05
484.7204,-5.078171E-05
484.8204,-5.077889E-05
484.9204,-5.075251E-05
485.0204,-5.076759E-05
485.1204,-5.073463E-05
485.2204,-5.069978E-05
485.3204,-5.073368E-05
485.4204,-5.072238E-05
485.5204,-5.068E-05
485.6204,-5.068377E-05
485.7204,-5.069413E-05
485.8204,-5.065458E-05
485.9204,-5.067718E-05
486.0204,-5.067153E-05
486.1205,-5.062915E-05
486.2205,-5.059996E-05
486.3205,-5.061597E-05
486.4205,-5.060184E-05
486.5205,-5.061126E-05
486.6205,-5.059808E-05
486.7205,-5.056323E-05
486.8205,-5.05557E-05
486.9205,-5.057453E-05
487.0205,-5.054722E-05
487.1205,-5.052744E-05
487.2205,-5.054157E-05
487.3205,-5.04813E-05
487.4205,-5.049919E-05
487.5205,-5.051614E-05
487.6205,-5.047848E-05
487.7206,-5.046623E-05
487.8206,-5.047282E-05
487.9206,-5.04813E-05
488.0206,-5.044363E-05
488.1206,-5.044834E-05
488.2206,-5.041161E-05
488.3206,-5.039843E-05
488.4206,-5.046247E-05
488.5206,-5.039184E-05
488.6206,-5.034851E-05
488.7206,-5.042385E-05
488.8206,-5.04069E-05
488.9206,-5.034851E-05
489.0206,-5.037865E-05
489.1206,-5.037865E-05
489.2206,-5.031179E-05
489.3206,-5.034381E-05
489.4207,-5.034098E-05
489.5207,-5.031838E-05
489.6207,-5.031744E-05
489.7207,-5.028636E-05
489.8207,-5.026564E-05
489.9207,-5.027035E-05
490.0207,-5.027788E-05
490.1207,-5.023551E-05
490.2207,-5.021291E-05
490.3207,-5.020819E-05
490.4207,-5.018654E-05
490.5207,-5.020914E-05
490.6207,-5.018842E-05
490.7207,-5.016299E-05
490.8207,-5.016582E-05
490.9207,-5.014416E-05
491.0208,-5.012627E-05
491.1208,-5.013286E-05
491.2208,-5.011874E-05
491.3208,-5.009331E-05
491.4208,-5.011309E-05
491.5208,-5.010555E-05
491.6208,-5.008954E-05
491.7208,-5.009236E-05
491.8208,-5.007918E-05
491.9208,-5.003774E-05
492.0208,-5.006505E-05
492.1208,-5.004433E-05
492.2208,-5.002645E-05
492.3208,-5.002267E-05
492.4208,-5.004151E-05
492.5208,-5.001891E-05
492.6208,-4.998124E-05
492.7209,-4.996523E-05
492.8209,-4.995582E-05
492.9209,-4.99916E-05
493.0209,-4.996335E-05
493.1209,-4.992662E-05
493.2209,-4.993227E-05
493.3209,-4.994545E-05
493.4209,-4.991155E-05
493.5209,-4.991061E-05
493.6209,-4.988424E-05
493.7209,-4.987388E-05
493.8209,-4.989178E-05
493.9209,-4.988518E-05
494.0209,-4.985882E-05
494.1209,-4.984469E-05
494.2209,-4.985317E-05
494.321,-4.983527E-05
494.421,-4.982209E-05
494.521,-4.982491E-05
494.621,-4.982021E-05
494.721,-4.98155E-05
494.821,-4.979289E-05
494.921,-4.9775E-05
495.021,-4.976182E-05
495.121,-4.97637E-05
495.221,-4.974863E-05
495.321,-4.97524E-05
495.421,-4.97232E-05
495.521,-4.972132E-05
495.621,-4.971379E-05
495.721,-4.971567E-05
495.821,-4.967235E-05
495.9211,-4.969966E-05
496.0211,-4.969213E-05
496.1211,-4.963939E-05
496.2211,-4.965823E-05
496.3211,-4.966482E-05
496.4211,-4.964787E-05
496.5211,-4.963186E-05
496.6211,-4.963656E-05
496.7211,-4.959795E-05
496.8211,-4.962244E-05
496.9211,-4.962997E-05
497.0211,-4.95697E-05
497.1211,-4.953863E-05
497.2211,-4.956217E-05
497.3211,-4.955746E-05
497.4211,-4.955746E-05
497.5211,-4.953957E-05
497.6212,-4.951791E-05
497.7212,-4.950661E-05
497.8212,-4.950378E-05
497.9212,-4.949719E-05
498.0212,-4.946046E-05
498.1212,-4.947365E-05
498.2212,-4.945199E-05
498.3212,-4.94501E-05
498.4212,-4.946988E-05
498.5212,-4.945952E-05
498.6212,-4.941432E-05
498.7212,-4.942562E-05
498.8212,-4.940584E-05
498.9212,-4.940302E-05
499.0212,-4.939171E-05
499.1212,-4.939078E-05
499.2213,-4.935781E-05
499.3213,-4.938418E-05
499.4213,-4.936723E-05
499.5213,-4.931449E-05
499.6213,-4.934086E-05
499.7213,-4.933521E-05
499.8213,-4.932203E-05
499.9213,-4.92966E-05
500.0213,-4.9274E-05
500.1213,-4.927965E-05
500.2213,-4.929755E-05
500.3213,-4.92853E-05
500.4213,-4.921467E-05
500.5213,-4.923162E-05
500.6213,-4.923351E-05
500.7213,-4.922691E-05
500.8214,-4.924575E-05
500.9214,-4.922503E-05
501.0214,-4.91883E-05
501.1214,-4.918171E-05
501.2214,-4.917417E-05
501.3214,-4.916664E-05
501.4214,-4.917041E-05
501.5214,-4.915063E-05
501.6214,-4.911861E-05
501.7214,-4.913839E-05
501.8214,-4.914593E-05
501.9214,-4.912803E-05
502.0214,-4.910731E-05
502.1214,-4.909507E-05
502.2214,-4.90687E-05
502.3214,-4.910543E-05
502.4214,-4.907436E-05
502.5215,-4.904516E-05
502.6215,-4.90574E-05
502.7215,-4.906305E-05
502.8215,-4.904704E-05
502.9215,-4.905928E-05
503.0215,-4.903668E-05
503.1215,-4.903103E-05
503.2215,-4.904328E-05
503.3215,-4.900843E-05
503.4215,-4.896605E-05
503.5215,-4.900937E-05
503.6215,-4.899807E-05
503.7215,-4.896794E-05
503.8215,-4.899242E-05
503.9215,-4.898771E-05
504.0215,-4.892462E-05
504.1216,-4.89557E-05
504.2216,-4.894063E-05
504.3216,-4.89152E-05
504.4216,-4.893686E-05
504.5216,-4.892273E-05
504.6216,-4.891425E-05
504.7216,-4.887753E-05
504.8216,-4.888412E-05
504.9216,-4.884646E-05
505.0216,-4.886246E-05
505.1216,-4.887565E-05
505.2216,-4.88474E-05
505.3216,-4.883233E-05
505.4216,-4.88295E-05
505.5216,-4.88182E-05
505.6216,-4.883327E-05
505.7216,-4.881067E-05
505.8217,-4.87843E-05
505.9217,-4.878995E-05
506.0217,-4.881255E-05
506.1217,-4.876829E-05
506.2217,-4.873721E-05
506.3217,-4.877959E-05
506.4217,-4.877771E-05
506.5217,-4.874757E-05
506.6217,-4.876264E-05
506.7217,-4.877394E-05
506.8217,-4.874474E-05
506.9217,-4.875887E-05
507.0217,-4.874474E-05
507.1217,-4.871838E-05
507.2217,-4.871084E-05
507.3217,-4.870991E-05
507.4218,-4.867223E-05
507.5218,-4.866658E-05
507.6218,-4.868165E-05
507.7218,-4.86647E-05
507.8218,-4.862797E-05
507.9218,-4.862985E-05
508.0218,-4.860537E-05
508.1218,-4.864963E-05
508.2218,-4.860537E-05
508.3218,-4.856581E-05
508.4218,-4.85969E-05
508.5218,-4.859218E-05
508.6218,-4.856959E-05
508.7218,-4.855734E-05
508.8218,-4.855169E-05
508.9218,-4.851308E-05
509.0219,-4.855358E-05
509.1219,-4.854887E-05
509.2219,-4.850743E-05
509.3219,-4.849895E-05
509.4219,-4.84886E-05
509.5219,-4.84933E-05
509.6219,-4.852438E-05
509.7219,-4.848577E-05
509.8219,-4.845846E-05
509.9219,-4.844904E-05
510.0219,-4.846223E-05
510.1219,-4.844151E-05
510.2219,-4.846599E-05
510.3219,-4.842738E-05
510.4219,-4.838972E-05
510.5219,-4.842079E-05
510.6219,-4.840572E-05
510.722,-4.838783E-05
510.822,-4.837465E-05
510.922,-4.841608E-05
511.022,-4.835016E-05
511.122,-4.834074E-05
511.222,-4.835299E-05
511.322,-4.833886E-05
511.422,-4.83511E-05
511.522,-4.833038E-05
511.622,-4.830496E-05
511.722,-4.831814E-05
511.822,-4.829742E-05
511.922,-4.827765E-05
512.022,-4.829742E-05
512.122,-4.82946E-05
512.222,-4.82541E-05
512.322,-4.82494E-05
512.4219,-4.824657E-05
512.5219,-4.825505E-05
512.6219,-4.824469E-05
512.7219,-4.823998E-05
512.8218,-4.820514E-05
512.9218,-4.820325E-05
513.0218,-4.823998E-05
513.1218,-4.820702E-05
513.2217,-4.82089E-05
513.3217,-4.817783E-05
513.4217,-4.81637E-05
513.5217,-4.819007E-05
513.6216,-4.818065E-05
513.7216,-4.81637E-05
513.8216,-4.814957E-05
513.9216,-4.814863E-05
514.0215,-4.811944E-05
514.1215,-4.81185E-05
514.2215,-4.813827E-05
514.3215,-4.809401E-05
514.4214,-4.810343E-05
514.5214,-4.81006E-05
514.6214,-4.806764E-05
514.7214,-4.806199E-05
514.8214,-4.806294E-05
514.9213,-4.80554E-05
515.0213,-4.804881E-05
515.1213,-4.805258E-05
515.2213,-4.800737E-05
515.3212,-4.799418E-05
515.4212,-4.804693E-05
515.5212,-4.800925E-05
515.6212,-4.797064E-05
515.7211,-4.803656E-05
515.8211,-4.80215E-05
515.9211,-4.800172E-05
516.0211,-4.796405E-05
516.121,-4.797441E-05
516.221,-4.798006E-05
516.321,-4.797912E-05
516.421,-4.794616E-05
516.5209,-4.791508E-05
516.6209,-4.793863E-05
516.7209,-4.791696E-05
516.8209,-4.787741E-05
516.9208,-4.788212E-05
517.0208,-4.790849E-05
517.1208,-4.7884E-05
517.2208,-4.786611E-05
517.3207,-4.781997E-05
517.4207,-4.782562E-05
517.5207,-4.785858E-05
517.6207,-4.782373E-05
517.7206,-4.780678E-05
517.8206,-4.780867E-05
517.9206,-4.778794E-05
518.0206,-4.778418E-05
518.1205,-4.780772E-05
518.2205,-4.77823E-05
518.3205,-4.775499E-05
518.4205,-4.775875E-05
518.5204,-4.775028E-05
518.6204,-4.77305E-05
518.7204,-4.776346E-05
518.8204,-4.772297E-05
518.9203,-4.771167E-05
519.0203,-4.772485E-05
519.1203,-4.770131E-05
519.2203,-4.769377E-05
519.3203,-4.769942E-05
519.4202,-4.767682E-05
519.5202,-4.766081E-05
519.6202,-4.769001E-05
519.7202,-4.765893E-05
519.8201,-4.762974E-05
519.9201,-4.764386E-05
520.0201,-4.762974E-05
520.1201,-4.760337E-05
520.22,-4.764386E-05
520.32,-4.759772E-05
520.42,-4.756852E-05
520.52,-4.758171E-05
520.6199,-4.758453E-05
520.7199,-4.757606E-05
520.8199,-4.756758E-05
520.9199,-4.75591E-05
521.0198,-4.753556E-05
521.1198,-4.753744E-05
521.2198,-4.753556E-05
521.3198,-4.753274E-05
521.4197,-4.751296E-05
521.5197,-4.749413E-05
521.6197,-4.746211E-05
521.7197,-4.751202E-05
521.8196,-4.748188E-05
521.9196,-4.744704E-05
522.0196,-4.747341E-05
522.1196,-4.746587E-05
522.2195,-4.746776E-05
522.3195,-4.743951E-05
522.4195,-4.742067E-05
522.5195,-4.739995E-05
522.6194,-4.744327E-05
522.7194,-4.741126E-05
522.8194,-4.739054E-05
522.9194,-4.739619E-05
523.0193,-4.738112E-05
523.1193,-4.738488E-05
523.2193,-4.739148E-05
523.3193,-4.734439E-05
523.4193,-4.732932E-05
523.5192,-4.73896E-05
523.6192,-4.738677E-05
523.7192,-4.732838E-05
523.8192,-4.73152E-05
523.9191,-4.733121E-05
524.0191,-4.731332E-05
524.1191,-4.731049E-05
524.2191,-4.730672E-05
524.319,-4.728035E-05
524.419,-4.729165E-05
524.519,-4.728789E-05
524.619,-4.726529E-05
524.7189,-4.727187E-05
524.8189,-4.725399E-05
524.9189,-4.724739E-05
525.0189,-4.723421E-05
525.1188,-4.725304E-05
525.2188,-4.721349E-05
525.3188,-4.721161E-05
525.4188,-4.71956E-05
525.5187,-4.717771E-05
525.6187,-4.719842E-05
525.7187,-4.721349E-05
525.8187,-4.716358E-05
525.9186,-4.715322E-05
526.0186,-4.715793E-05
526.1186,-4.714945E-05
526.2186,-4.716829E-05
526.3185,-4.716264E-05
526.4185,-4.71438E-05
526.5185,-4.714004E-05
526.6185,-4.712967E-05
526.7184,-4.711084E-05
526.8184,-4.71099E-05
526.9184,-4.71099E-05
527.0184,-4.710896E-05
527.1183,-4.710331E-05
527.2183,-4.706187E-05
527.3183,-4.704304E-05
527.4183,-4.707506E-05
527.5182,-4.705622E-05
527.6182,-4.702609E-05
527.7182,-4.705246E-05
527.8182,-4.701949E-05
527.9182,-4.701102E-05
528.0181,-4.701949E-05
528.1181,-4.701572E-05
528.2181,-4.697994E-05
528.3181,-4.701572E-05
528.418,-4.69903E-05
528.518,-4.698183E-05
528.618,-4.696111E-05
528.718,-4.69564E-05
528.8179,-4.69564E-05
528.9179,-4.69451E-05
529.0179,-4.692721E-05
529.1179,-4.691496E-05
529.2178,-4.691779E-05
529.3178,-4.693003E-05
529.4178,-4.689801E-05
529.5178,-4.689801E-05
529.6177,-4.689142E-05
529.7177,-4.686411E-05
529.8177,-4.688389E-05
529.9177,-4.688295E-05
530.0176,-4.685469E-05
530.1176,-4.685564E-05
530.2176,-4.685375E-05
530.3176,-4.685657E-05
530.4175,-4.682267E-05
530.5175,-4.68368E-05
530.6175,-4.681985E-05
530.7175,-4.680101E-05
530.8174,-4.681326E-05
530.9174,-4.680478E-05
531.0174,-4.680007E-05
531.1174,-4.678971E-05
531.2173,-4.675204E-05
531.3173,-4.677276E-05
531.4173,-4.6785E-05
531.5173,-4.675675E-05
531.6172,-4.671908E-05
531.7172,-4.675299E-05
531.8172,-4.675675E-05
531.9172,-4.673321E-05
532.0172,-4.66946E-05
532.1171,-4.668895E-05
532.2171,-4.669742E-05
532.3171,-4.669648E-05
532.4171,-4.667953E-05
532.517,-4.664375E-05
532.617,-4.670967E-05
532.717,-4.667388E-05
532.817,-4.664563E-05
532.9169,-4.664657E-05
533.0169,-4.663715E-05
533.1169,-4.663527E-05
533.2169,-4.665128E-05
533.3168,-4.66202E-05
533.4168,-4.659572E-05
533.5168,-4.65976E-05
533.6168,-4.6575E-05
533.7167,-4.656934E-05
533.8167,-4.658253E-05
533.9167,-4.657876E-05
534.0167,-4.654298E-05
534.1166,-4.655616E-05
534.2166,-4.654675E-05
534.3166,-4.653073E-05
534.4166,-4.653262E-05
534.5165,-4.651284E-05
534.6165,-4.647988E-05
534.7165,-4.65345E-05
534.8165,-4.654581E-05
534.9164,-4.648647E-05
535.0164,-4.650813E-05
535.1164,-4.650813E-05
535.2164,-4.648271E-05
535.3163,-4.645634E-05
535.4163,-4.646011E-05
535.5163,-4.646293E-05
535.6163,-4.644221E-05
535.7162,-4.644787E-05
535.8162,-4.64149E-05
535.9162,-4.645446E-05
536.0162,-4.644221E-05
536.1161,-4.637347E-05
536.2161,-4.640266E-05
536.3161,-4.638759E-05
536.4161,-4.637912E-05
536.5161,-4.639324E-05
536.616,-4.638288E-05
536.716,-4.636688E-05
536.816,-4.638853E-05
536.916,-4.636593E-05
537.0159,-4.633297E-05
537.1159,-4.634522E-05
537.2159,-4.633768E-05
537.3159,-4.634992E-05
537.4158,-4.630849E-05
537.5158,-4.631508E-05
537.6158,-4.631979E-05
537.7158,-4.632073E-05
537.8157,-4.630095E-05
537.9157,-4.626893E-05
538.0157,-4.629625E-05
538.1157,-4.627176E-05
538.2156,-4.623221E-05
538.3156,-4.629625E-05
538.4156,-4.629248E-05
538.5156,-4.624727E-05
538.6155,-4.622844E-05
538.7155,-4.626517E-05
538.8155,-4.622279E-05
538.9155,-4.621714E-05
539.0154,-4.623692E-05
539.1154,-4.621337E-05
539.2154,-4.619548E-05
539.3154,-4.621055E-05
539.4153,-4.619548E-05
539.5153,-4.617005E-05
539.6153,-4.616346E-05
539.7153,-4.61644E-05
539.8152,-4.616817E-05
539.9152,-4.616252E-05
540.0152,-4.613898E-05
540.1152,-4.613992E-05
540.2151,-4.615499E-05
540.3151,-4.616346E-05
540.4151,-4.613426E-05
540.5151,-4.612485E-05
540.6151,-4.611449E-05
540.715,-4.610978E-05
540.815,-4.612485E-05
540.915,-4.611355E-05
541.015,-4.606269E-05
541.1149,-4.609E-05
541.2149,-4.608342E-05
541.3149,-4.607211E-05
541.4149,-4.606647E-05
541.5148,-4.606081E-05
541.6148,-4.602691E-05
541.7148,-4.604951E-05
541.8148,-4.604198E-05
541.9147,-4.601467E-05
542.0147,-4.600807E-05
542.1147,-4.601467E-05
542.2147,-4.600337E-05
542.3146,-4.599018E-05
542.4146,-4.599583E-05
542.5146,-4.598359E-05
542.6146,-4.597135E-05
542.7145,-4.5977E-05
542.8145,-4.594875E-05
542.9145,-4.598171E-05
543.0145,-4.595628E-05
543.1144,-4.593556E-05
543.2144,-4.59318E-05
543.3144,-4.593085E-05
543.4144,-4.594498E-05
543.5143,-4.595063E-05
543.6143,-4.590072E-05
543.7143,-4.589412E-05
543.8143,-4.592144E-05
543.9142,-4.590261E-05
544.0142,-4.586493E-05
544.1142,-4.588942E-05
544.2142,-4.585834E-05
544.3141,-4.585928E-05
544.4141,-4.589318E-05
544.5141,-4.589036E-05
544.6141,-4.585551E-05
544.7141,-4.58461E-05
544.814,-4.584892E-05
544.914,-4.584422E-05
545.014,-4.584045E-05
545.114,-4.583197E-05
545.2139,-4.580654E-05
545.3139,-4.581219E-05
545.4139,-4.581785E-05
545.5139,-4.580654E-05
545.6138,-4.581596E-05
545.7138,-4.578959E-05
545.8138,-4.576228E-05
545.9138,-4.578017E-05
546.0137,-4.579054E-05
546.1137,-4.575758E-05
546.2137,-4.577359E-05
546.3137,-4.575758E-05
546.4136,-4.573403E-05
546.5136,-4.575192E-05
546.6136,-4.57491E-05
546.7136,-4.573309E-05
546.8135,-4.57378E-05
546.9135,-4.576511E-05
547.0135,-4.571049E-05
547.1135,-4.572179E-05
547.2134,-4.573403E-05
547.3134,-4.570484E-05
547.4134,-4.568506E-05
547.5134,-4.569919E-05
547.6133,-4.569919E-05
547.7133,-4.568883E-05
547.8133,-4.571614E-05
547.9133,-4.56973E-05
548.0132,-4.570201E-05
548.1132,-4.566717E-05
548.2132,-4.566717E-05
548.3132,-4.568412E-05
548.4131,-4.566152E-05
548.5131,-4.562761E-05
548.6131,-4.566811E-05
548.7131,-4.567565E-05
548.813,-4.565304E-05
548.913,-4.562668E-05
549.013,-4.565869E-05
549.113,-4.563609E-05
549.213,-4.56003E-05
549.3129,-4.562668E-05
549.4129,-4.563609E-05
549.5129,-4.56069E-05
549.6129,-4.56295E-05
549.7128,-4.558524E-05
549.8128,-4.558806E-05
549.9128,-4.561349E-05
550.0128,-4.561255E-05
550.1127,-4.555699E-05
550.2127,-4.560313E-05
550.3127,-4.558241E-05
550.4127,-4.552308E-05
550.5126,-4.557959E-05
550.6126,-4.557111E-05
550.7126,-4.551837E-05
550.8126,-4.554286E-05
550.9125,-4.55617E-05
551.0125,-4.553815E-05
551.1125,-4.551367E-05
551.2125,-4.552779E-05
551.3124,-4.548918E-05
551.4124,-4.55212E-05
551.5124,-4.553721E-05
551.6124,-4.548259E-05
551.7123,-4.548353E-05
551.8123,-4.548541E-05
551.9123,-4.545434E-05
552.0123,-4.547976E-05
552.1122,-4.548071E-05
552.2122,-4.545528E-05
552.3122,-4.546093E-05
552.4122,-4.545716E-05
552.5121,-4.543456E-05
552.6121,-4.542326E-05
552.7121,-4.544774E-05
552.8121,-4.542138E-05
552.912,-4.542985E-05
553.012,-4.541102E-05
553.112,-4.540066E-05
553.212,-4.540914E-05
553.312,-4.540914E-05
553.4119,-4.539972E-05
553.5119,-4.539124E-05
553.6119,-4.540631E-05
553.7119,-4.53677E-05
553.8118,-4.534886E-05
553.9118,-4.536487E-05
554.0118,-4.535451E-05
554.1118,-4.536487E-05
554.2117,-4.535922E-05
554.3117,-4.53272E-05
554.4117,-4.532908E-05
554.5117,-4.533662E-05
554.6116,-4.53112E-05
554.7116,-4.53564E-05
554.8116,-4.53225E-05
554.9116,-4.527917E-05
555.0115,-4.529048E-05
555.1115,-4.532438E-05
555.2115,-4.529989E-05
555.3115,-4.528388E-05
555.4114,-4.527541E-05
555.5114,-4.526316E-05
555.6114,-4.528765E-05
555.7114,-4.530083E-05
555.8113,-4.52481E-05
555.9113,-4.528012E-05
556.0113,-4.525563E-05
556.1113,-4.526694E-05
556.2112,-4.52707E-05
556.3112,-4.526034E-05
556.4112,-4.52302E-05
556.5112,-4.522832E-05
556.6111,-4.524433E-05
556.7111,-4.521608E-05
556.8111,-4.524245E-05
556.9111,-4.523303E-05
557.011,-4.519159E-05
557.111,-4.520478E-05
557.211,-4.52255E-05
557.311,-4.519725E-05
557.4109,-4.519913E-05
557.5109,-4.518877E-05
557.6109,-4.517935E-05
557.7109,-4.520007E-05
557.8109,-4.520101E-05
557.9108,-4.515958E-05
558.0108,-4.515863E-05
558.1108,-4.516146E-05
558.2108,-4.516617E-05
558.3107,-4.515298E-05
558.4107,-4.51398E-05
558.5107,-4.514262E-05
558.6107,-4.515298E-05
558.7106,-4.513227E-05
558.8106,-4.510966E-05
558.9106,-4.51624E-05
559.0106,-4.514545E-05
559.1105,-4.510966E-05
559.2105,-4.510589E-05
559.3105,-4.513227E-05
559.4105,-4.510872E-05
559.5104,-4.510778E-05
559.6104,-4.510213E-05
559.7104,-4.508518E-05
559.8104,-4.509648E-05
559.9103,-4.509931E-05
560.0103,-4.507858E-05
560.1103,-4.506823E-05
560.2103,-4.508047E-05
560.3102,-4.507764E-05
560.4102,-4.505693E-05
560.5102,-4.508047E-05
560.6102,-4.505787E-05
560.7101,-4.50428E-05
560.8101,-4.504751E-05
560.9101,-4.504092E-05
561.0101,-4.50428E-05
561.11,-4.507482E-05
561.21,-4.504563E-05
561.31,-4.502773E-05
561.41,-4.503903E-05
561.5099,-4.502491E-05
561.6099,-4.502491E-05
561.7099,-4.502868E-05
561.8099,-4.499007E-05
561.9099,-4.499195E-05
562.0098,-4.50089E-05
562.1098,-4.498818E-05
562.2098,-4.496181E-05
562.3098,-4.497406E-05
562.4097,-4.498065E-05
562.5097,-4.496181E-05
562.6097,-4.495616E-05
562.7097,-4.494581E-05
562.8096,-4.495522E-05
562.9096,-4.498253E-05
563.0096,-4.495993E-05
563.1096,-4.493921E-05
563.2095,-4.492979E-05
563.3095,-4.492226E-05
563.4095,-4.493356E-05
563.5095,-4.494392E-05
563.6094,-4.492414E-05
563.7094,-4.488742E-05
563.8094,-4.49119E-05
563.9094,-4.493168E-05
564.0093,-4.490908E-05
564.1093,-4.489307E-05
564.2093,-4.488459E-05
564.3093,-4.488082E-05
564.4092,-4.489307E-05
564.5092,-4.489307E-05
564.6092,-4.488082E-05
564.7092,-4.489307E-05
564.8091,-4.487329E-05
564.9091,-4.4878E-05
565.0091,-4.485822E-05
565.1091,-4.486858E-05
565.209,-4.488647E-05
565.309,-4.487517E-05
565.409,-4.484409E-05
565.509,-4.484127E-05
565.6089,-4.488553E-05
565.7089,-4.485069E-05
565.8089,-4.482243E-05
565.9089,-4.484033E-05
566.0089,-4.484786E-05
566.1088,-4.482714E-05
566.2088,-4.485163E-05
566.3088,-4.483186E-05
566.4088,-4.482338E-05
566.5087,-4.481584E-05
566.6087,-4.48262E-05
566.7087,-4.482338E-05
566.8087,-4.480737E-05
566.9086,-4.479889E-05
567.0086,-4.478476E-05
567.1086,-4.479701E-05
567.2086,-4.480454E-05
567.3085,-4.479513E-05
567.4085,-4.477911E-05
567.5085,-4.477158E-05
567.6085,-4.477252E-05
567.7084,-4.479701E-05
567.8084,-4.476499E-05
567.9084,-4.474804E-05
568.0084,-4.478948E-05
568.1083,-4.477723E-05
568.2083,-4.471979E-05
568.3083,-4.475181E-05
568.4083,-4.475369E-05
568.5082,-4.472638E-05
568.6082,-4.474804E-05
568.7082,-4.477158E-05
568.8082,-4.471979E-05
568.9081,-4.473203E-05
569.0081,-4.47179E-05
569.1081,-4.471885E-05
569.2081,-4.473957E-05
569.308,-4.472355E-05
569.408,-4.469342E-05
569.508,-4.471225E-05
569.608,-4.472638E-05
569.7079,-4.47245E-05
569.8079,-4.469154E-05
569.9079,-4.471696E-05
570.0079,-4.469059E-05
570.1078,-4.470284E-05
570.2078,-4.470849E-05
570.3078,-4.468023E-05
570.4078,-4.469342E-05
570.5078,-4.470754E-05
570.6077,-4.4684E-05
570.7077,-4.466234E-05
570.8077,-4.468777E-05
570.9077,-4.467741E-05
571.0076,-4.467741E-05
571.1076,-4.467458E-05
571.2076,-4.468212E-05
571.3076,-4.468306E-05
571.4075,-4.467929E-05
571.5075,-4.465387E-05
571.6075,-4.465387E-05
571.7075,-4.469059E-05
571.8074,-4.465951E-05
571.9074,-4.463127E-05
572.0074,-4.462938E-05
572.1074,-4.463503E-05
572.2073,-4.465293E-05
572.3073,-4.465951E-05
572.4073,-4.462655E-05
572.5073,-4.461243E-05
572.6072,-4.463127E-05
572.7072,-4.46388E-05
572.8072,-4.462938E-05
572.9072,-4.464916E-05
573.0071,-4.460301E-05
573.1071,-4.460961E-05
573.2071,-4.461243E-05
573.3071,-4.461808E-05
573.407,-4.461808E-05
573.507,-4.460584E-05
573.607,-4.461431E-05
573.707,-4.459359E-05
573.8069,-4.460207E-05
573.9069,-4.458135E-05
574.0069,-4.460772E-05
574.1069,-4.459924E-05
574.2068,-4.456346E-05
574.3068,-4.456723E-05
574.4068,-4.458418E-05
574.5068,-4.457099E-05
574.6068,-4.457005E-05
574.7067,-4.457476E-05
574.8067,-4.452108E-05
574.9067,-4.454463E-05
575.0067,-4.457853E-05
575.1066,-4.454463E-05
575.2066,-4.456063E-05
575.3066,-4.455216E-05
575.4066,-4.453898E-05
575.5065,-4.455404E-05
575.6065,-4.457005E-05
575.7065,-4.453898E-05
575.8065,-4.452202E-05
575.9064,-4.455498E-05
576.0064,-4.453521E-05
576.1064,-4.455028E-05
576.2064,-4.455028E-05
576.3063,-4.451826E-05
576.4063,-4.453144E-05
576.5063,-4.45418E-05
576.6063,-4.453615E-05
576.7062,-4.451073E-05
576.8062,-4.452485E-05
576.9062,-4.45192E-05
577.0062,-4.449283E-05
577.1061,-4.451731E-05
577.2061,-4.452861E-05
577.3061,-4.450319E-05
577.4061,-4.451638E-05
577.506,-4.449754E-05
577.606,-4.455593E-05
577.706,-4.45305E-05
577.806,-4.450507E-05
577.9059,-4.449095E-05
578.0059,-4.452296E-05
578.1059,-4.452485E-05
578.2059,-4.449E-05
578.3058,-4.451449E-05
578.4058,-4.448624E-05
578.5058,-4.449283E-05
578.6058,-4.449188E-05
578.7057,-4.449283E-05
578.8057,-4.446835E-05
578.9057,-4.449942E-05
579.0057,-4.449377E-05
579.1057,-4.446364E-05
579.2056,-4.447494E-05
579.3056,-4.445799E-05
579.4056,-4.446081E-05
579.5056,-4.445893E-05
579.6055,-4.447305E-05
579.7055,-4.445045E-05
579.8055,-4.444762E-05
579.9055,-4.445893E-05
580.0054,-4.443632E-05
580.1054,-4.446929E-05
580.2054,-4.445328E-05
580.3054,-4.442691E-05
580.4053,-4.445328E-05
580.5053,-4.444669E-05
580.6053,-4.443068E-05
580.7053,-4.444009E-05
580.8052,-4.444574E-05
580.9052,-4.442785E-05
581.0052,-4.444857E-05
581.1052,-4.440619E-05
581.2051,-4.442503E-05
581.3051,-4.444951E-05
581.4051,-4.445234E-05
581.5051,-4.440525E-05
581.605,-4.443632E-05
581.705,-4.444104E-05
581.805,-4.442409E-05
581.905,-4.443444E-05
582.0049,-4.443821E-05
582.1049,-4.442973E-05
582.2049,-4.443821E-05
582.3049,-4.443915E-05
582.4048,-4.442031E-05
582.5048,-4.441749E-05
582.6048,-4.441278E-05
582.7048,-4.438924E-05
582.8047,-4.439489E-05
582.9047,-4.440901E-05
583.0047,-4.441184E-05
583.1047,-4.438547E-05
583.2047,-4.439678E-05
583.3046,-4.437982E-05
583.4046,-4.438547E-05
583.5046,-4.440996E-05
583.6046,-4.436758E-05
583.7045,-4.4377E-05
583.8045,-4.437229E-05
583.9045,-4.435063E-05
584.0045,-4.436287E-05
584.1044,-4.439018E-05
584.2044,-4.436287E-05
584.3044,-4.43544E-05
584.4044,-4.438265E-05
584.5043,-4.435063E-05
584.6043,-4.436664E-05
584.7043,-4.438076E-05
584.8043,-4.43478E-05
584.9042,-4.434309E-05
585.0042,-4.434874E-05
585.1042,-4.436946E-05
585.2042,-4.433933E-05
585.3041,-4.435346E-05
585.4041,-4.435063E-05
585.5041,-4.43365E-05
585.6041,-4.434404E-05
585.704,-4.434309E-05
585.804,-4.434686E-05
585.904,-4.434215E-05
586.004,-4.430731E-05
586.1039,-4.43252E-05
586.2039,-4.434404E-05
586.3039,-4.435251E-05
586.4039,-4.43365E-05
586.5038,-4.430542E-05
586.6038,-4.433085E-05
586.7038,-4.431296E-05
586.8038,-4.433933E-05
586.9037,-4.431955E-05
587.0037,-4.429601E-05
587.1037,-4.431484E-05
587.2037,-4.432615E-05
587.3036,-4.431107E-05
587.4036,-4.430731E-05
587.5036,-4.429977E-05
587.6036,-4.427999E-05
587.7036,-4.431955E-05
587.8035,-4.430542E-05
587.9035,-4.426964E-05
588.0035,-4.429601E-05
588.1035,-4.427623E-05
588.2034,-4.428659E-05
588.3034,-4.429318E-05
588.4034,-4.43026E-05
588.5034,-4.427717E-05
588.6033,-4.427906E-05
588.7033,-4.428282E-05
588.8033,-4.427717E-05
588.9033,-4.429318E-05
589.0032,-4.426964E-05
589.1032,-4.426116E-05
589.2032,-4.429318E-05
589.3032,-4.431107E-05
589.4031,-4.426116E-05
589.5031,-4.425646E-05
589.6031,-4.428471E-05
589.7031,-4.427811E-05
589.803,-4.429224E-05
589.903,-4.425646E-05
590.003,-4.42574E-05
590.103,-4.428754E-05
590.2029,-4.428188E-05
590.3029,-4.426022E-05
590.4029,-4.425457E-05
590.5029,-4.426305E-05
590.6028,-4.423573E-05
590.7028,-4.427529E-05
590.8028,-4.428565E-05
590.9028,-4.424798E-05
591.0027,-4.426776E-05
591.1027,-4.427246E-05
591.2027,-4.425363E-05
591.3027,-4.423197E-05
591.4026,-4.424892E-05
591.5026,-4.425551E-05
591.6026,-4.424139E-05
591.7026,-4.425457E-05
591.8026,-4.425551E-05
591.9025,-4.424327E-05
592.0025,-4.423291E-05
592.1025,-4.423573E-05
592.2025,-4.425175E-05
592.3024,-4.424892E-05
592.4024,-4.421785E-05
592.5024,-4.42461E-05
592.6024,-4.425457E-05
592.7023,-4.422632E-05
592.8023,-4.420089E-05
592.9023,-4.425269E-05
593.0023,-4.424327E-05
593.1022,-4.421785E-05
593.2022,-4.423856E-05
593.3022,-4.423008E-05
593.4022,-4.425363E-05
593.5021,-4.426587E-05
593.6021,-4.421878E-05
593.7021,-4.42282E-05
593.8021,-4.425551E-05
593.902,-4.423103E-05
594.002,-4.419901E-05
594.102,-4.423668E-05
594.202,-4.422538E-05
594.3019,-4.420278E-05
594.4019,-4.42395E-05
594.5019,-4.42348E-05
594.6019,-4.420842E-05
594.7018,-4.420937E-05
594.8018,-4.421502E-05
594.9018,-4.421125E-05
595.0018,-4.423385E-05
595.1017,-4.425457E-05
595.2017,-4.421125E-05
595.3017,-4.42235E-05
595.4017,-4.42282E-05
595.5016,-4.423291E-05
595.6016,-4.419901E-05
595.7016,-4.421502E-05
595.8016,-4.420748E-05
595.9016,-4.422255E-05
596.0015,-4.419901E-05
596.1015,-4.420089E-05
596.2015,-4.422726E-05
596.3015,-4.422067E-05
596.4014,-4.420748E-05
596.5014,-4.420372E-05
596.6014,-4.423385E-05
596.7014,-4.420466E-05
596.8013,-4.41943E-05
596.9013,-4.420466E-05
597.0013,-4.419712E-05
597.1013,-4.41943E-05
597.2012,-4.421031E-05
597.3012,-4.418677E-05
597.4012,-4.417923E-05
597.5012,-4.419807E-05
597.6011,-4.418112E-05
597.7011,-4.420089E-05
597.8011,-4.418771E-05
597.9011,-4.418959E-05
598.001,-4.4183E-05
598.101,-4.419524E-05
598.201,-4.415663E-05
598.301,-4.419336E-05
598.4009,-4.422161E-05
598.5009,-4.417359E-05
598.6009,-4.420466E-05
598.7009,-4.420089E-05
598.8008,-4.418582E-05
598.9008,-4.416699E-05
599.0008,-4.418959E-05
599.1008,-4.419242E-05
599.2007,-4.415757E-05
599.3007,-4.419242E-05
599.4007,-4.419054E-05
599.5007,-4.41717E-05
599.6006,-4.419619E-05
599.7006,-4.417359E-05
599.8006,-4.418394E-05
599.9006,-4.420372E-05
600.0005,-4.416699E-05
