EXPID. 0793
[电化学]: i-t : @ 0(V) X 600(sec)
起始电位 (V),0
静置时间 (秒),0
运行时间 (秒),600
记录间隔,0.1
电解液 信息:
HNO3,0.4
0.1,-0.001296092
0.2,-0.004435796
0.3,-0.004307577
0.4,-0.003817161
0.5,-0.003410449
0.6,-0.003072622
0.7,-0.00280074
0.8000001,-0.002565525
0.9000001,-0.00236683
1,-0.002203567
1.1,-0.002060735
1.2,-0.001933873
1.3,-0.001825805
1.4,-0.001726518
1.5,-0.001635783
1.6,-0.001556536
1.7,-0.001486967
1.8,-0.001422069
1.9,-0.001366639
2,-0.001315925
2.1,-0.001268829
2.2,-0.001227037
2.3,-0.001189037
2.4,-0.001153148
2.5,-0.001121343
2.6,-0.001091748
2.7,-0.001063925
2.799999,-0.001038728
2.899999,-0.001015032
2.999999,-0.0009925517
3.099999,-0.0009721406
3.199999,-0.0009527117
3.299999,-0.0009344082
3.399999,-0.000917281
3.499999,-0.0009015371
3.599999,-0.0008859421
3.699999,-0.0008718199
3.799999,-0.0008583418
3.899998,-0.0008449052
3.999998,-0.0008326391
4.099998,-0.0008213893
4.199998,-0.0008095864
4.299998,-0.000799235
4.399998,-0.0007892394
4.499998,-0.0007790489
4.599998,-0.0007699754
4.699998,-0.0007612286
4.799998,-0.0007525637
4.899998,-0.0007445759
4.999998,-0.000736559
5.099998,-0.0007288697
5.199997,-0.0007216636
5.299997,-0.0007145385
5.399997,-0.0007075659
5.499997,-0.0007013119
5.599997,-0.0006947122
5.699997,-0.0006885203
5.799997,-0.0006827748
5.899997,-0.0006767779
5.999997,-0.0006711416
6.099997,-0.0006659658
6.199996,-0.0006609173
6.299996,-0.0006553723
6.399996,-0.0006511618
6.499996,-0.0006462027
6.599996,-0.000641154
6.699996,-0.0006369926
6.799996,-0.0006326069
6.899996,-0.000628031
6.999996,-0.0006240352
7.099996,-0.0006199745
7.199996,-0.0006158921
7.299995,-0.0006123512
7.399995,-0.0006085485
7.499995,-0.0006045857
7.599995,-0.0006011013
7.699995,-0.0005975472
7.799995,-0.0005941409
7.899995,-0.0005908072
7.999995,-0.0005874349
8.099995,-0.0005842876
8.199995,-0.0005811799
8.299995,-0.0005781306
8.399996,-0.0005751679
8.499996,-0.0005722052
8.599997,-0.0005693065
8.699997,-0.000566519
8.799997,-0.0005637098
8.899998,-0.0005610146
8.999998,-0.0005583711
9.099998,-0.0005556514
9.199999,-0.0005531691
9.299999,-0.0005507742
9.4,-0.0005481138
9.5,-0.0005460278
9.6,-0.000543844
9.700001,-0.0005411921
9.800001,-0.0005389922
9.900002,-0.0005369675
10,-0.0005344973
10.1,-0.0005324123
10.2,-0.0005304384
10.3,-0.000528167
10.4,-0.0005262854
10.5,-0.0005244651
10.6,-0.0005221069
10.7,-0.0005202611
10.8,-0.0005184361
10.90001,-0.0005162701
11.00001,-0.0005145402
11.10001,-0.0005127339
11.20001,-0.0005107195
11.30001,-0.0005091007
11.40001,-0.0005073613
11.50001,-0.0005055805
11.60001,-0.0005040737
11.70001,-0.0005023457
11.80001,-0.0005006591
11.90001,-0.0004990958
12.00001,-0.0004973583
12.10001,-0.000495811
12.20001,-0.0004944097
12.30001,-0.0004927871
12.40001,-0.0004911946
12.50001,-0.0004898338
12.60001,-0.0004882621
12.70001,-0.0004867007
12.80001,-0.0004853964
12.90001,-0.0004838331
13.00001,-0.0004823659
13.10001,-0.0004810117
13.20001,-0.0004795765
13.30001,-0.0004781394
13.40001,-0.0004769199
13.50002,-0.0004755685
13.60002,-0.0004741785
13.70002,-0.0004730145
13.80002,-0.0004717309
13.90002,-0.000470389
14.00002,-0.0004691308
14.10002,-0.0004679084
14.20002,-0.0004666616
14.30002,-0.0004655089
14.40002,-0.0004643468
14.50002,-0.0004632308
14.60002,-0.000462146
14.70002,-0.0004610912
14.80002,-0.000460029
14.90002,-0.0004587011
15.00002,-0.0004575739
15.10002,-0.0004565464
15.20002,-0.0004553617
15.30002,-0.0004543908
15.40002,-0.0004533172
15.50002,-0.000452189
15.60002,-0.0004511221
15.70002,-0.0004502623
15.80002,-0.0004490955
15.90002,-0.0004480398
16.00002,-0.0004471329
16.10003,-0.0004459868
16.20003,-0.0004449886
16.30003,-0.0004441457
16.40003,-0.0004430185
16.50003,-0.0004421379
16.60003,-0.0004413893
16.70003,-0.0004403279
16.80003,-0.0004393749
16.90003,-0.0004385763
17.00003,-0.0004375555
17.10003,-0.0004366608
17.20003,-0.0004358481
17.30003,-0.0004347953
17.40003,-0.0004339637
17.50003,-0.0004331802
17.60003,-0.0004322187
17.70003,-0.0004313514
17.80003,-0.0004305076
17.90003,-0.0004296384
18.00003,-0.0004288247
18.10003,-0.0004279809
18.20003,-0.0004271164
18.30003,-0.0004262698
18.40003,-0.0004255691
18.50003,-0.0004246415
18.60003,-0.0004238599
18.70004,-0.0004231037
18.80004,-0.0004223192
18.90004,-0.0004215621
19.00004,-0.0004208605
19.10004,-0.0004200007
19.20004,-0.0004192529
19.30004,-0.0004185693
19.40004,-0.0004177057
19.50004,-0.0004170606
19.60004,-0.0004162875
19.70004,-0.000415551
19.80004,-0.0004148824
19.90004,-0.0004142882
20.00004,-0.0004133822
20.10004,-0.0004127588
20.20004,-0.0004122173
20.30004,-0.000411398
20.40004,-0.000410864
20.50004,-0.0004102378
20.60004,-0.0004094796
20.70004,-0.0004089334
20.80004,-0.0004081829
20.90004,-0.0004074163
21.00004,-0.000406775
21.10004,-0.0004061751
21.20004,-0.0004053615
21.30005,-0.0004047493
21.40005,-0.0004041269
21.50005,-0.0004034262
21.60005,-0.0004029751
21.70005,-0.0004024798
21.80005,-0.0004017942
21.90005,-0.0004010775
22.00005,-0.0004004588
22.10005,-0.0003998109
22.20005,-0.0003992252
22.30005,-0.0003987873
22.40005,-0.0003980706
22.50005,-0.0003974283
22.60005,-0.0003968529
22.70005,-0.0003962539
22.80005,-0.0003955834
22.90005,-0.000395041
23.00005,-0.0003944364
23.10005,-0.000393862
23.20005,-0.0003933629
23.30005,-0.0003927724
23.40005,-0.0003921
23.50005,-0.0003916122
23.60005,-0.0003910076
23.70005,-0.0003903691
23.80005,-0.0003898455
23.90005,-0.0003892805
24.00006,-0.0003886382
24.10006,-0.0003882059
24.20006,-0.0003876484
24.30006,-0.0003870533
24.40006,-0.0003864977
24.50006,-0.0003860023
24.60006,-0.0003854128
24.70006,-0.0003850361
24.80006,-0.0003844551
24.90006,-0.0003838994
25.00006,-0.0003834182
25.10006,-0.0003828842
25.20006,-0.000382354
25.30006,-0.0003818558
25.40006,-0.0003814227
25.50006,-0.0003807512
25.60006,-0.0003802606
25.70006,-0.0003797793
25.80006,-0.0003792557
25.90006,-0.000378913
26.00006,-0.0003784364
26.10006,-0.0003779505
26.20006,-0.0003775983
26.30006,-0.0003769975
26.40006,-0.000376552
26.50006,-0.0003760425
26.60007,-0.0003756094
26.70007,-0.0003750509
26.80007,-0.0003745339
26.90007,-0.0003740621
27.00007,-0.0003736797
27.10007,-0.0003731919
27.20007,-0.0003727333
27.30007,-0.0003722445
27.40007,-0.0003718151
27.50007,-0.0003714083
27.60007,-0.0003710127
27.70007,-0.000370427
27.80007,-0.0003700249
27.90007,-0.0003697282
28.00007,-0.0003691604
28.10007,-0.0003687356
28.20007,-0.0003682799
28.30007,-0.000367824
28.40007,-0.0003674699
28.50007,-0.0003670292
28.60007,-0.000366499
28.70007,-0.0003660489
28.80007,-0.0003656279
28.90007,-0.0003652079
29.00007,-0.0003649923
29.10007,-0.0003646137
29.20008,-0.0003641325
29.30008,-0.0003637303
29.40008,-0.0003633
29.50008,-0.000362815
29.60008,-0.0003623771
29.70008,-0.0003619307
29.80008,-0.0003614674
29.90008,-0.0003610766
30.00008,-0.0003607535
30.10008,-0.0003602902
30.20008,-0.0003599456
30.30008,-0.000359517
30.40008,-0.0003590772
30.50008,-0.0003586554
30.60008,-0.0003582683
30.70008,-0.0003578944
30.80008,-0.0003574226
30.90008,-0.0003570487
31.00008,-0.0003566702
31.10008,-0.0003562502
31.20008,-0.0003558754
31.30008,-0.0003555382
31.40008,-0.0003551936
31.50008,-0.0003551314
31.60008,-0.0003545419
31.70008,-0.0003540154
31.80009,-0.0003536887
31.90009,-0.0003533788
32.00008,-0.000352858
32.10008,-0.0003525388
32.20008,-0.0003521687
32.30008,-0.0003516837
32.40008,-0.0003513485
32.50008,-0.0003510584
32.60007,-0.0003506667
32.70007,-0.0003503436
32.80007,-0.0003500037
32.90007,-0.0003495639
33.00007,-0.0003492795
33.10007,-0.0003489555
33.20007,-0.000348496
33.30006,-0.0003482313
33.40006,-0.0003479187
33.50006,-0.000347476
33.60006,-0.0003471606
33.70006,-0.0003468583
33.80006,-0.0003464496
33.90005,-0.0003460823
34.00005,-0.0003457612
34.10005,-0.000345359
34.20005,-0.0003450436
34.30005,-0.0003447544
34.40005,-0.0003443778
34.50005,-0.0003440538
34.60004,-0.0003437345
34.70004,-0.0003434719
34.80004,-0.0003432223
34.90004,-0.0003427985
35.00004,-0.0003424321
35.10004,-0.0003421346
35.20004,-0.0003418012
35.30003,-0.0003414829
35.40003,-0.0003411674
35.50003,-0.0003407794
35.60003,-0.0003404385
35.70003,-0.0003401569
35.80003,-0.0003397916
35.90002,-0.0003394421
36.00002,-0.0003391568
36.10002,-0.0003388649
36.20002,-0.0003384109
36.30002,-0.0003381906
36.40002,-0.0003378921
36.50002,-0.0003375229
36.60001,-0.0003372225
36.70001,-0.0003369503
36.80001,-0.0003366217
36.90001,-0.0003363127
37.00001,-0.0003360039
37.10001,-0.0003356112
37.2,-0.0003353757
37.3,-0.000335097
37.4,-0.0003347702
37.5,-0.0003344218
37.6,-0.0003340922
37.7,-0.0003338539
37.8,-0.0003335074
37.89999,-0.0003332832
37.99999,-0.000332963
38.09999,-0.0003325609
38.19999,-0.0003324008
38.29999,-0.000332043
38.39999,-0.0003316927
38.49998,-0.0003313922
38.59998,-0.0003311464
38.69998,-0.0003308357
38.79998,-0.0003305654
38.89998,-0.000330281
38.99998,-0.0003299307
39.09998,-0.0003296896
39.19997,-0.0003293816
39.29997,-0.0003290445
39.39997,-0.000328827
39.49997,-0.0003284964
39.59997,-0.0003281668
39.69997,-0.0003279455
39.79996,-0.0003276555
39.89996,-0.0003272957
39.99996,-0.0003270207
40.09996,-0.0003267363
40.19996,-0.0003264736
40.29996,-0.0003261684
40.39996,-0.0003259001
40.49995,-0.0003256025
40.59995,-0.0003253868
40.69995,-0.0003251024
40.79995,-0.0003247408
40.89995,-0.0003244319
40.99995,-0.0003241654
41.09995,-0.0003238603
41.19994,-0.0003235957
41.29994,-0.0003232877
41.39994,-0.0003229788
41.49994,-0.0003227707
41.59994,-0.0003225786
41.69994,-0.0003221896
41.79993,-0.0003219363
41.89993,-0.0003216557
41.99993,-0.0003213666
42.09993,-0.0003211104
42.19993,-0.0003208703
42.29993,-0.0003205266
42.39993,-0.0003202949
42.49992,-0.0003200821
42.59992,-0.0003197882
42.69992,-0.0003195565
42.79992,-0.0003193343
42.89992,-0.0003190282
42.99992,-0.0003187759
43.09991,-0.0003185244
43.19991,-0.0003182522
43.29991,-0.0003180479
43.39991,-0.0003177541
43.49991,-0.0003174631
43.59991,-0.0003172164
43.69991,-0.0003169668
43.7999,-0.00031677
43.8999,-0.0003164997
43.9999,-0.0003162172
44.0999,-0.0003160364
44.1999,-0.0003158621
44.2999,-0.0003157388
44.39989,-0.0003154845
44.49989,-0.0003151483
44.59989,-0.000314878
44.69989,-0.0003145692
44.79989,-0.0003143055
44.89989,-0.0003139862
44.99989,-0.0003137131
45.09988,-0.0003135163
45.19988,-0.0003133082
45.29988,-0.0003130803
45.39988,-0.0003127789
45.49988,-0.0003125218
45.59988,-0.0003124097
45.69987,-0.0003120632
45.79987,-0.0003119078
45.89987,-0.0003116526
45.99987,-0.0003113239
46.09987,-0.0003111281
46.19987,-0.0003109426
46.29987,-0.0003106591
46.39986,-0.0003106638
46.49986,-0.000310402
46.59986,-0.0003100328
46.69986,-0.0003097748
46.79986,-0.0003095394
46.89986,-0.0003092512
46.99986,-0.0003090685
47.09985,-0.0003089065
47.19985,-0.0003087314
47.29985,-0.0003086353
47.39985,-0.0003083886
47.49985,-0.0003080053
47.59985,-0.0003076663
47.69984,-0.000307428
47.79984,-0.0003071323
47.89984,-0.0003069619
47.99984,-0.000306685
48.09984,-0.0003064495
48.19984,-0.0003063121
48.29984,-0.0003059777
48.39983,-0.0003057536
48.49983,-0.000305715
48.59983,-0.0003056095
48.69983,-0.0003052667
48.79983,-0.0003050049
48.89983,-0.0003048062
48.99982,-0.0003044964
49.09982,-0.0003043005
49.19982,-0.0003041319
49.29982,-0.0003038032
49.39982,-0.0003036112
49.49982,-0.0003033691
49.59982,-0.0003030989
49.69981,-0.0003029322
49.79981,-0.0003026713
49.89981,-0.0003024114
49.99981,-0.0003022127
50.09981,-0.0003019386
50.19981,-0.0003017465
50.2998,-0.0003015092
50.3998,-0.0003013199
50.4998,-0.0003010835
50.5998,-0.0003008698
50.6998,-0.0003005778
50.7998,-0.0003004234
50.8998,-0.000300154
50.99979,-0.0002999422
51.09979,-0.000299718
51.19979,-0.0002994789
51.29979,-0.0002992632
51.39979,-0.0002990852
51.49979,-0.0002988215
51.59978,-0.0002986623
51.69978,-0.0002984128
51.79978,-0.0002981614
51.89978,-0.0002979815
51.99978,-0.0002978186
52.09978,-0.0002975398
52.19978,-0.0002973562
52.29977,-0.0002971057
52.39977,-0.0002968759
52.49977,-0.0002966499
52.59977,-0.0002965274
52.69977,-0.0002962563
52.79977,-0.0002961602
52.89977,-0.0002959624
52.99976,-0.0002957364
53.09976,-0.0002955198
53.19976,-0.0002952862
53.29976,-0.0002949877
53.39976,-0.0002948276
53.49976,-0.0002946675
53.59975,-0.0002944057
53.69975,-0.0002942494
53.79975,-0.0002940696
53.89975,-0.0002937691
53.99975,-0.0002935826
54.09975,-0.0002934244
54.19975,-0.0002931645
54.29974,-0.0002929705
54.39974,-0.0002928001
54.49974,-0.000292511
54.59974,-0.0002923282
54.69974,-0.0002921917
54.79974,-0.00029193
54.89973,-0.0002917463
54.99973,-0.0002915834
55.09973,-0.0002913131
55.19973,-0.0002911784
55.29973,-0.0002909731
55.39973,-0.0002907235
55.49973,-0.0002905183
55.59972,-0.0002903469
55.69972,-0.0002901896
55.79972,-0.0002900003
55.89972,-0.0002897818
55.99972,-0.0002895454
56.09972,-0.0002894324
56.19971,-0.0002892516
56.29971,-0.0002890115
56.39971,-0.0002888345
56.49971,-0.0002887205
56.59971,-0.0002884823
56.69971,-0.0002882817
56.79971,-0.0002881592
56.8997,-0.0002879502
56.9997,-0.0002877835
57.0997,-0.0002876196
57.1997,-0.0002873889
57.2997,-0.0002872006
57.3997,-0.000286919
57.49969,-0.000286693
57.59969,-0.0002865809
57.69969,-0.0002863596
57.79969,-0.0002861449
57.89969,-0.0002859471
57.99969,-0.0002857277
58.09969,-0.0002855045
58.19968,-0.0002853877
58.29968,-0.0002851965
58.39968,-0.000285011
58.49968,-0.0002848321
58.59968,-0.0002846362
58.69968,-0.0002844592
58.79967,-0.0002843047
58.89967,-0.0002841474
58.99967,-0.0002839648
59.09967,-0.0002837811
59.19967,-0.0002835466
59.29967,-0.000283411
59.39967,-0.0002832283
59.49966,-0.0002830334
59.59966,-0.0002828629
59.69966,-0.0002826765
59.79966,-0.0002824561
59.89966,-0.000282361
59.99966,-0.0002820926
60.09966,-0.0002818628
60.19965,-0.0002817733
60.29965,-0.0002815982
60.39965,-0.0002813722
60.49965,-0.0002811528
60.59965,-0.00028097
60.69965,-0.0002807883
60.79964,-0.0002806273
60.89964,-0.0002804417
60.99964,-0.0002802327
61.09964,-0.0002801018
61.19964,-0.0002799605
61.29964,-0.0002798136
61.39964,-0.0002796695
61.49963,-0.0002794181
61.59963,-0.0002791987
61.69963,-0.0002790442
61.79963,-0.0002788832
61.89963,-0.0002786176
61.99963,-0.000278465
62.09962,-0.0002782438
62.19962,-0.0002780544
62.29962,-0.0002779189
62.39962,-0.0002777654
62.49962,-0.0002775393
62.59962,-0.0002774348
62.69962,-0.0002772625
62.79961,-0.0002770317
62.89961,-0.0002768905
62.99961,-0.0002766617
63.09961,-0.0002765383
63.19961,-0.0002763933
63.29961,-0.0002761616
63.3996,-0.0002760081
63.4996,-0.0002758885
63.5996,-0.0002756493
63.6996,-0.0002754553
63.7996,-0.0002753187
63.8996,-0.0002750889
63.9996,-0.000274975
64.09959,-0.0002748375
64.19959,-0.000274523
64.29959,-0.0002744024
64.39959,-0.0002742772
64.49959,-0.0002740794
64.59959,-0.0002738948
64.69958,-0.000273747
64.79958,-0.0002735002
64.89958,-0.0002733599
64.99958,-0.0002732733
65.09958,-0.0002730548
65.19958,-0.0002729013
65.29958,-0.0002727563
65.39957,-0.0002726706
65.49957,-0.0002725754
65.59957,-0.0002722826
65.69957,-0.0002720538
65.79957,-0.0002719219
65.89957,-0.0002717232
65.99957,-0.0002715056
66.09956,-0.0002713474
66.19956,-0.0002711864
66.29956,-0.0002710206
66.39956,-0.0002708916
66.49956,-0.0002706581
66.59956,-0.0002704829
66.69955,-0.000270369
66.79955,-0.000270158
66.89955,-0.0002699866
66.99955,-0.0002697898
67.09955,-0.0002696448
67.19955,-0.0002695101
67.29955,-0.0002693896
67.39954,-0.0002693585
67.49954,-0.000269091
67.59954,-0.0002688283
67.69954,-0.0002686889
67.79954,-0.0002685646
67.89954,-0.0002683499
67.99953,-0.0002681531
68.09953,-0.000267993
68.19953,-0.0002678781
68.29953,-0.0002676794
68.39953,-0.0002675353
68.49953,-0.0002673639
68.59953,-0.000267218
68.69952,-0.0002670654
68.79952,-0.0002669053
68.89952,-0.0002667226
68.99952,-0.0002665324
69.09952,-0.0002664325
69.19952,-0.0002662517
69.29951,-0.0002660304
69.39951,-0.0002659617
69.49951,-0.0002657356
69.59951,-0.0002656132
69.69951,-0.0002654164
69.79951,-0.0002652799
69.89951,-0.0002650906
69.9995,-0.0002650068
70.0995,-0.0002649295
70.1995,-0.0002646235
70.2995,-0.0002644398
70.3995,-0.000264357
70.4995,-0.0002641526
70.59949,-0.0002640029
70.69949,-0.0002638889
70.79949,-0.0002636865
70.89949,-0.0002635715
70.99949,-0.0002634604
71.09949,-0.0002632561
71.19949,-0.0002631167
71.29948,-0.0002629698
71.39948,-0.0002627476
71.49948,-0.0002626176
71.59948,-0.0002625131
71.69948,-0.0002622833
71.79948,-0.0002621599
71.89948,-0.000262061
71.99947,-0.0002618369
72.09947,-0.0002616881
72.19947,-0.0002615412
72.29947,-0.0002613736
72.39947,-0.0002612314
72.49947,-0.0002610929
72.59946,-0.0002609432
72.69946,-0.0002607596
72.79946,-0.0002606221
72.89946,-0.0002604846
72.99946,-0.0002603687
73.09946,-0.0002602454
73.19946,-0.0002600834
73.29945,-0.0002599176
73.39945,-0.0002597218
73.49945,-0.0002595598
73.59945,-0.0002594129
73.69945,-0.0002592415
73.79945,-0.0002590588
73.89944,-0.0002589373
73.99944,-0.0002588281
74.09944,-0.0002586378
74.19944,-0.0002585371
74.29944,-0.000258281
74.39944,-0.0002581406
74.49944,-0.0002580681
74.59943,-0.0002578685
74.69943,-0.0002577385
74.79943,-0.0002575887
74.89943,-0.0002573834
74.99943,-0.0002572356
75.09943,-0.0002571461
75.19942,-0.0002569606
75.29942,-0.0002567921
75.39942,-0.0002566837
75.49942,-0.0002564699
75.59942,-0.0002563409
75.69942,-0.0002562308
75.79942,-0.0002560151
75.89941,-0.0002558927
75.99941,-0.0002557505
76.09941,-0.0002555829
76.19941,-0.0002554849
76.29941,-0.0002553747
76.39941,-0.000255144
76.4994,-0.0002550828
76.5994,-0.0002549557
76.6994,-0.0002546656
76.7994,-0.0002545695
76.8994,-0.0002544528
76.9994,-0.0002542343
77.0994,-0.0002541147
77.19939,-0.0002540017
77.29939,-0.0002538331
77.39939,-0.000253674
77.49939,-0.0002535534
77.59939,-0.0002533886
77.69939,-0.0002532794
77.79939,-0.0002531786
77.89938,-0.0002529489
77.99938,-0.0002528029
78.09938,-0.0002526993
78.19938,-0.0002525382
78.29938,-0.0002524252
78.39938,-0.0002522039
78.49937,-0.0002521672
78.59937,-0.0002520985
78.69937,-0.0002519742
78.79937,-0.0002517839
78.89937,-0.0002515588
78.99937,-0.0002514553
79.09937,-0.0002513111
79.19936,-0.0002511548
79.29936,-0.0002509684
79.39936,-0.0002508168
79.49936,-0.0002507113
79.59936,-0.000250748
79.69936,-0.0002505239
79.79935,-0.0002503167
79.89935,-0.0002503044
79.99935,-0.0002501312
80.09935,-0.0002498788
80.19935,-0.000249811
80.29935,-0.0002496048
80.39935,-0.0002493919
80.49934,-0.0002492958
80.59934,-0.0002491725
80.69934,-0.0002490171
80.79934,-0.0002490491
80.89934,-0.0002488335
80.99934,-0.0002485914
81.09933,-0.0002485462
81.19933,-0.0002484012
81.29933,-0.0002481159
81.39933,-0.0002480066
81.49933,-0.0002479002
81.59933,-0.0002477232
81.69933,-0.0002476262
81.79932,-0.0002474623
81.89932,-0.00024729
81.99932,-0.0002471713
82.09932,-0.0002470988
82.19932,-0.0002468954
82.29932,-0.0002467833
82.39931,-0.0002466298
82.49931,-0.0002464415
82.59931,-0.0002463011
82.69931,-0.0002461994
82.79931,-0.0002459678
82.89931,-0.0002458548
82.99931,-0.000245722
83.0993,-0.0002455628
83.1993,-0.0002454442
83.2993,-0.0002452973
83.3993,-0.0002451551
83.4993,-0.0002451296
83.5993,-0.0002449818
83.6993,-0.000244752
83.79929,-0.0002446088
83.89929,-0.0002444893
83.99929,-0.0002443546
84.09929,-0.0002442887
84.19929,-0.0002440796
84.29929,-0.0002439101
84.39928,-0.0002437679
84.49928,-0.0002435965
84.59928,-0.0002435786
84.69928,-0.000243637
84.79928,-0.0002432867
84.89928,-0.0002431275
84.99928,-0.0002429523
85.09927,-0.0002428092
85.19927,-0.0002426943
85.29927,-0.000242538
85.39927,-0.0002423741
85.49927,-0.0002422687
85.59927,-0.0002421688
85.69926,-0.0002419805
85.79926,-0.0002418411
85.89926,-0.0002417262
85.99926,-0.0002415982
86.09926,-0.0002414654
86.19926,-0.0002414098
86.29926,-0.0002411913
86.39925,-0.0002410576
86.49925,-0.0002409239
86.59925,-0.0002407901
86.69925,-0.0002406931
86.79925,-0.000240598
86.89925,-0.0002404728
86.99924,-0.0002402929
87.09924,-0.0002401159
87.19924,-0.00024
87.29924,-0.0002398315
87.39924,-0.0002396949
87.49924,-0.0002395621
87.59924,-0.00023945
87.69923,-0.0002393757
87.79923,-0.0002394077
87.89923,-0.0002391732
87.99923,-0.0002389048
88.09923,-0.0002388087
88.19923,-0.0002387004
88.29922,-0.0002384867
88.39922,-0.0002383633
88.49922,-0.0002382371
88.59922,-0.0002380996
88.69922,-0.0002380243
88.79922,-0.0002378943
88.89922,-0.000237674
88.99921,-0.0002375402
89.09921,-0.0002374715
89.19921,-0.0002372803
89.29921,-0.0002372012
89.39921,-0.0002370835
89.49921,-0.0002369827
89.59921,-0.0002368594
89.6992,-0.0002367991
89.7992,-0.0002365203
89.8992,-0.0002364629
89.9992,-0.0002363612
90.0992,-0.0002361521
90.1992,-0.000236024
90.29919,-0.0002359393
90.39919,-0.0002357594
90.49919,-0.0002356888
90.59919,-0.0002355551
90.69919,-0.0002353931
90.79919,-0.000235265
90.89919,-0.000235184
90.99918,-0.000235007
91.09918,-0.0002348817
91.19918,-0.0002348149
91.29918,-0.0002346227
91.39918,-0.000234473
91.49918,-0.0002343817
91.59917,-0.0002342263
91.69917,-0.0002340991
91.79917,-0.0002339965
91.89917,-0.0002339004
91.99917,-0.0002338458
92.09917,-0.0002336688
92.19917,-0.0002335388
92.29916,-0.0002333994
92.39916,-0.0002333411
92.49916,-0.000233164
92.59916,-0.0002330039
92.69916,-0.0002328768
92.79916,-0.0002326762
92.89915,-0.0002325933
92.99915,-0.0002324521
93.09915,-0.0002323315
93.19915,-0.0002321959
93.29915,-0.0002320669
93.39915,-0.000231985
93.49915,-0.0002318512
93.59914,-0.0002317128
93.69914,-0.0002315762
93.79914,-0.0002314764
93.89914,-0.0002313323
93.99914,-0.0002312334
94.09914,-0.0002311025
94.19913,-0.0002309528
94.29913,-0.0002308643
94.39913,-0.0002307127
94.49913,-0.0002305808
94.59913,-0.0002304886
94.69913,-0.0002303586
94.79913,-0.0002302023
94.89912,-0.0002300902
94.99912,-0.0002299979
95.09912,-0.0002298858
95.19912,-0.0002297154
95.29912,-0.000229544
95.39912,-0.0002294969
95.49911,-0.0002293472
95.59911,-0.0002291993
95.69911,-0.0002291353
95.79911,-0.000228977
95.89911,-0.0002288047
95.99911,-0.0002287341
96.09911,-0.0002286192
96.1991,-0.0002284798
96.2991,-0.0002283809
96.3991,-0.000228284
96.4991,-0.0002281078
96.5991,-0.0002280005
96.6991,-0.0002279101
96.7991,-0.0002277566
96.89909,-0.0002276483
96.99909,-0.0002275221
97.09909,-0.000227362
97.19909,-0.0002272885
97.29909,-0.0002271746
97.39909,-0.0002270267
97.49908,-0.0002269297
97.59908,-0.0002268337
97.69908,-0.0002266519
97.79908,-0.0002266246
97.89908,-0.0002264683
97.99908,-0.0002263148
98.09908,-0.0002262545
98.19907,-0.0002262027
98.29907,-0.000226021
98.39907,-0.0002259711
98.49907,-0.0002258006
98.59907,-0.0002256236
98.69907,-0.000225568
98.79906,-0.0002254399
98.89906,-0.0002253043
98.99906,-0.000225213
99.09906,-0.0002250435
99.19906,-0.0002250077
99.29906,-0.0002250726
99.39906,-0.0002248711
99.49905,-0.0002246715
99.59905,-0.0002245377
99.69905,-0.0002244483
99.79905,-0.0002242675
99.89905,-0.0002241309
99.99905,-0.0002239746
100.099,-0.0002238324
100.199,-0.0002237796
100.299,-0.0002236101
100.399,-0.0002234886
100.499,-0.0002234058
100.599,-0.0002232777
100.699,-0.000223192
100.799,-0.000223111
100.899,-0.000222965
100.999,-0.0002228454
101.099,-0.0002227607
101.199,-0.0002226298
101.299,-0.0002225111
101.399,-0.0002223586
101.499,-0.0002222267
101.599,-0.0002222022
101.699,-0.0002220873
101.799,-0.0002219781
101.899,-0.0002218585
101.999,-0.0002217672
102.099,-0.0002215826
102.199,-0.0002214489
102.299,-0.0002213782
102.399,-0.0002212388
102.499,-0.0002211032
102.599,-0.0002209686
102.699,-0.0002208725
102.799,-0.0002207708
102.899,-0.0002206851
102.999,-0.0002205024
103.099,-0.0002204083
103.199,-0.0002203339
103.299,-0.0002202058
103.399,-0.0002200899
103.499,-0.0002199496
103.599,-0.0002198423
103.699,-0.0002197443
103.799,-0.0002196087
103.899,-0.0002194825
103.999,-0.0002193507
104.099,-0.0002192565
104.199,-0.0002191341
104.299,-0.0002190437
104.399,-0.0002189109
104.499,-0.000218764
104.599,-0.0002186971
104.699,-0.0002185314
104.799,-0.0002184353
104.899,-0.0002183901
104.999,-0.0002182696
105.099,-0.0002181594
105.199,-0.000217987
105.299,-0.0002178674
105.399,-0.0002177968
105.499,-0.0002176791
105.599,-0.0002175859
105.699,-0.0002174945
105.799,-0.0002173589
105.899,-0.0002172177
105.999,-0.0002171414
106.099,-0.0002170359
106.199,-0.0002168928
106.299,-0.0002167553
106.3989,-0.000216663
106.4989,-0.0002165255
106.5989,-0.0002164436
106.6989,-0.0002163211
106.7989,-0.0002161893
106.8989,-0.0002161149
106.9989,-0.0002159652
107.0989,-0.0002158324
107.1989,-0.0002157504
107.2989,-0.000215644
107.3989,-0.0002155423
107.4989,-0.0002154133
107.5989,-0.0002152626
107.6989,-0.0002152146
107.7989,-0.0002152137
107.8989,-0.0002150526
107.9989,-0.0002149274
108.0989,-0.0002148398
108.1989,-0.0002147221
108.2989,-0.0002145789
108.3989,-0.0002145168
108.4989,-0.000214367
108.5989,-0.000214238
108.6989,-0.0002141731
108.7989,-0.0002140384
108.8989,-0.0002139159
108.9989,-0.0002138708
109.0989,-0.0002137304
109.1989,-0.0002135882
109.2989,-0.0002135534
109.3989,-0.0002134347
109.4989,-0.0002132614
109.5989,-0.0002131758
109.6989,-0.0002130646
109.7989,-0.000212929
109.8989,-0.0002128801
109.9989,-0.000212735
110.0989,-0.0002126267
110.1989,-0.0002125382
110.2989,-0.0002124195
110.3989,-0.0002123112
110.4989,-0.0002121879
110.5989,-0.0002121257
110.6989,-0.0002119835
110.7989,-0.0002118696
110.8989,-0.0002117914
110.9989,-0.0002117208
111.0989,-0.000211572
111.1989,-0.0002115051
111.2989,-0.0002113902
111.3989,-0.000211232
111.4989,-0.0002111529
111.5989,-0.0002110634
111.6989,-0.0002108798
111.7989,-0.0002107668
111.8989,-0.000210666
111.9989,-0.0002106444
112.0989,-0.0002104645
112.1989,-0.0002104447
112.2989,-0.000210344
112.3989,-0.0002101735
112.4989,-0.0002100991
112.5989,-0.0002099644
112.6989,-0.0002098721
112.7989,-0.0002097705
112.8988,-0.0002096235
112.9988,-0.0002096141
113.0988,-0.0002095105
113.1988,-0.0002093589
113.2988,-0.0002092337
113.3988,-0.0002091423
113.4988,-0.0002090161
113.5988,-0.0002089238
113.6988,-0.0002088014
113.7988,-0.0002087176
113.8988,-0.0002086149
113.9988,-0.0002085057
114.0988,-0.0002083729
114.1988,-0.0002083013
114.2988,-0.0002082025
114.3988,-0.000208097
114.4988,-0.0002079802
114.5988,-0.0002078945
114.6988,-0.0002077721
114.7988,-0.0002077118
114.8988,-0.0002075819
114.9988,-0.0002074867
115.0988,-0.0002073455
115.1988,-0.0002072268
115.2988,-0.0002071355
115.3988,-0.0002070733
115.4988,-0.0002069264
115.5988,-0.0002068115
115.6988,-0.0002067079
115.7988,-0.0002065921
115.8988,-0.0002065139
115.9988,-0.0002064311
116.0988,-0.0002062719
116.1988,-0.0002061853
116.2988,-0.0002061015
116.3988,-0.0002060355
116.4988,-0.0002059188
116.5988,-0.0002058048
116.6988,-0.0002056391
116.7988,-0.0002055628
116.8988,-0.0002055006
116.9988,-0.0002054065
117.0988,-0.0002052426
117.1988,-0.0002051155
117.2988,-0.0002050298
117.3988,-0.0002049648
117.4988,-0.0002048763
117.5988,-0.0002047162
117.6988,-0.0002046173
117.7988,-0.000204526
117.8988,-0.0002044393
117.9988,-0.0002043216
118.0988,-0.0002042095
118.1988,-0.0002041361
118.2988,-0.0002040447
118.3988,-0.000203927
118.4988,-0.0002038206
118.5988,-0.000203766
118.6988,-0.000203636
118.7988,-0.0002035239
118.8988,-0.0002034373
118.9988,-0.0002033281
119.0988,-0.0002033139
119.1988,-0.0002031896
119.2988,-0.0002030333
119.3988,-0.0002029335
119.4987,-0.0002028403
119.5987,-0.0002027159
119.6987,-0.0002026613
119.7987,-0.0002025634
119.8987,-0.0002024004
119.9987,-0.0002023035
120.0987,-0.0002022423
120.1987,-0.0002020925
120.2987,-0.000202037
120.3987,-0.000201939
120.4987,-0.0002017864
120.5987,-0.0002017705
120.6987,-0.0002016904
120.7987,-0.0002015887
120.8987,-0.000201503
120.9987,-0.0002013966
121.0987,-0.0002012515
121.1987,-0.0002011913
121.2987,-0.0002010585
121.3987,-0.0002009709
121.4987,-0.000200889
121.5987,-0.0002008184
121.6987,-0.0002007214
121.7987,-0.0002006234
121.8987,-0.0002004774
121.9987,-0.0002003569
122.0987,-0.0002002787
122.1987,-0.0002001884
122.2987,-0.0002000725
122.3987,-0.0001999633
122.4987,-0.0001998757
122.5987,-0.0001997721
122.6987,-0.0001996515
122.7987,-0.0001995781
122.8987,-0.0001994736
122.9987,-0.0001993897
123.0987,-0.0001992758
123.1987,-0.000199176
123.2987,-0.0001990761
123.3987,-0.000198982
123.4987,-0.0001989132
123.5987,-0.0001987993
123.6987,-0.0001986674
123.7987,-0.0001985827
123.8987,-0.000198496
123.9987,-0.0001984169
124.0987,-0.0001983501
124.1987,-0.0001981928
124.2987,-0.0001981212
124.3987,-0.0001980205
124.4987,-0.0001979244
124.5987,-0.0001978491
124.6987,-0.0001977605
124.7987,-0.0001976325
124.8987,-0.0001976569
124.9987,-0.000197495
125.0987,-0.0001973594
125.1987,-0.0001972652
125.2987,-0.0001971993
125.3987,-0.0001970863
125.4987,-0.0001970213
125.5987,-0.000196912
125.6987,-0.0001968433
125.7987,-0.0001967397
125.8987,-0.0001965824
125.9986,-0.0001965193
126.0986,-0.0001965184
126.1986,-0.0001963065
126.2986,-0.0001961766
126.3986,-0.0001961116
126.4986,-0.000196024
126.5986,-0.0001959364
126.6986,-0.000195894
126.7986,-0.0001957208
126.8986,-0.0001956285
126.9986,-0.0001955635
127.0986,-0.000195475
127.1986,-0.0001953827
127.2986,-0.0001953111
127.3986,-0.0001951708
127.4986,-0.0001950389
127.5986,-0.0001949881
127.6986,-0.0001948553
127.7986,-0.0001947451
127.8986,-0.0001946962
127.9986,-0.000194569
128.0986,-0.0001945172
128.1986,-0.0001944504
128.2986,-0.0001944183
128.3986,-0.0001942639
128.4986,-0.0001940963
128.5986,-0.0001940388
128.6987,-0.0001939371
128.7987,-0.0001937977
128.8987,-0.0001936998
128.9987,-0.0001936094
129.0987,-0.0001935378
129.1987,-0.0001934314
129.2987,-0.0001933636
129.3987,-0.0001932591
129.4987,-0.0001931272
129.5987,-0.0001930849
129.6987,-0.0001929577
129.7987,-0.0001928683
129.8987,-0.0001928014
129.9987,-0.0001926893
130.0987,-0.0001926244
130.1987,-0.0001925405
130.2988,-0.000192356
130.3988,-0.0001922872
130.4988,-0.0001922335
130.5988,-0.0001921167
130.6988,-0.000192016
130.7988,-0.0001919331
130.8988,-0.0001918399
130.9988,-0.0001917598
131.0988,-0.0001916798
131.1988,-0.0001915555
131.2988,-0.0001914688
131.3988,-0.0001913954
131.4988,-0.0001913106
131.5988,-0.0001912155
131.6988,-0.0001910997
131.7988,-0.0001910243
131.8988,-0.0001909123
131.9989,-0.0001909066
132.0989,-0.0001908143
132.1989,-0.0001906929
132.2989,-0.0001905874
132.3989,-0.000190464
132.4989,-0.0001904179
132.5989,-0.0001902992
132.6989,-0.000190222
132.7989,-0.0001901617
132.8989,-0.0001899941
132.9989,-0.0001899037
133.0989,-0.0001898312
133.1989,-0.0001897012
133.2989,-0.0001895995
133.3989,-0.0001895298
133.4989,-0.0001894225
133.599,-0.0001893782
133.699,-0.0001893424
133.799,-0.0001891823
133.899,-0.000189106
133.999,-0.000189043
134.099,-0.0001889026
134.199,-0.0001888066
134.299,-0.0001887284
134.399,-0.0001886013
134.499,-0.0001885344
134.599,-0.0001884619
134.699,-0.0001883818
134.799,-0.000188282
134.899,-0.0001881935
134.999,-0.0001880909
135.099,-0.0001880193
135.1991,-0.0001879731
135.2991,-0.000187862
135.3991,-0.0001877387
135.4991,-0.0001876831
135.5991,-0.0001875851
135.6991,-0.0001875051
135.7991,-0.0001874006
135.8991,-0.0001873064
135.9991,-0.0001871849
136.0991,-0.0001871727
136.1991,-0.0001870427
136.2991,-0.0001869278
136.3991,-0.0001868685
136.4991,-0.0001867913
136.5991,-0.0001866924
136.6991,-0.0001865935
136.7991,-0.0001865342
136.8992,-0.0001865361
136.9992,-0.0001864909
137.0992,-0.000186311
137.1992,-0.0001862008
137.2992,-0.000186214
137.3992,-0.0001861151
137.4992,-0.0001859776
137.5992,-0.000185891
137.6992,-0.0001857638
137.7992,-0.0001857139
137.8992,-0.0001857111
137.9992,-0.000185502
138.0992,-0.0001853824
138.1992,-0.0001853457
138.2992,-0.0001852242
138.3992,-0.0001851432
138.4993,-0.0001850208
138.5993,-0.0001849342
138.6993,-0.0001848843
138.7993,-0.0001847826
138.8993,-0.0001847081
138.9993,-0.0001846404
139.0993,-0.0001845575
139.1993,-0.0001844633
139.2993,-0.0001843541
139.3993,-0.0001842354
139.4993,-0.0001841714
139.5993,-0.0001840904
139.6993,-0.0001840037
139.7993,-0.0001838983
139.8993,-0.0001838342
139.9993,-0.0001836967
140.0993,-0.0001836478
140.1994,-0.0001835705
140.2994,-0.0001834886
140.3994,-0.0001834114
140.4994,-0.0001833492
140.5994,-0.0001831826
140.6994,-0.0001831628
140.7994,-0.0001830856
140.8994,-0.0001829179
140.9994,-0.0001828388
141.0994,-0.0001828002
141.1994,-0.0001826976
141.2994,-0.0001825921
141.3994,-0.0001825111
141.4994,-0.0001824141
141.5994,-0.0001823557
141.6994,-0.0001822578
141.7995,-0.0001821335
141.8995,-0.0001820779
141.9995,-0.0001819913
142.0995,-0.0001819282
142.1995,-0.0001818538
142.2995,-0.0001817276
142.3995,-0.0001816212
142.4995,-0.0001815901
142.5995,-0.0001814771
142.6995,-0.0001813942
142.7995,-0.0001813094
142.8995,-0.0001811795
142.9995,-0.0001811315
143.0995,-0.0001811164
143.1995,-0.0001809949
143.2995,-0.0001808593
143.3996,-0.0001807576
143.4996,-0.0001806399
143.5996,-0.0001805824
143.6996,-0.0001805193
143.7996,-0.0001803753
143.8996,-0.0001802858
143.9996,-0.0001802472
144.0996,-0.0001801615
144.1996,-0.0001800522
144.2996,-0.0001799882
144.3996,-0.0001799082
144.4996,-0.000179813
144.5996,-0.0001797349
144.6996,-0.0001796332
144.7996,-0.0001795588
144.8996,-0.0001795023
144.9996,-0.0001793996
145.0997,-0.0001793243
145.1997,-0.0001792358
145.2997,-0.0001791246
145.3997,-0.0001790493
145.4997,-0.0001789834
145.5997,-0.0001788741
145.6997,-0.0001788044
145.7997,-0.0001787169
145.8997,-0.0001786057
145.9997,-0.0001785229
146.0997,-0.0001784579
146.1997,-0.0001783468
146.2997,-0.0001783025
146.3997,-0.0001782206
146.4997,-0.0001780784
146.5997,-0.0001780115
146.6998,-0.0001779512
146.7998,-0.0001778674
146.8998,-0.0001777695
146.9998,-0.0001776894
147.0998,-0.0001775783
147.1998,-0.000177503
147.2998,-0.0001774408
147.3998,-0.0001773504
147.4998,-0.0001772449
147.5998,-0.000177179
147.6998,-0.0001770783
147.7998,-0.000177002
147.8998,-0.0001769455
147.9998,-0.0001768334
148.0998,-0.000176792
148.1998,-0.0001767119
148.2999,-0.0001766027
148.3999,-0.000176532
148.4999,-0.0001764633
148.5999,-0.0001763823
148.6999,-0.000176307
148.7999,-0.0001762119
148.8999,-0.000176112
148.9999,-0.0001760348
149.0999,-0.0001759717
149.1999,-0.0001758531
149.2999,-0.0001757739
149.3999,-0.0001757287
149.4999,-0.000175628
149.5999,-0.0001755611
149.6999,-0.0001754848
149.7999,-0.0001754151
149.8999,-0.0001754076
150,-0.000175288
150.1,-0.0001751543
150.2,-0.00017511
150.3,-0.0001750366
150.4,-0.0001749273
150.5,-0.0001748322
150.6,-0.0001747465
150.7,-0.0001746316
150.8,-0.0001745695
150.9,-0.0001745148
151,-0.000174416
151.1,-0.0001743764
151.2,-0.0001742813
151.3,-0.0001742531
151.4,-0.0001741626
151.5,-0.0001740619
151.6001,-0.0001739884
151.7001,-0.000173898
151.8001,-0.0001738038
151.9001,-0.0001737379
152.0001,-0.0001736758
152.1001,-0.0001735938
152.2001,-0.0001735185
152.3001,-0.0001734149
152.4001,-0.0001733311
152.5001,-0.0001732426
152.6001,-0.0001731672
152.7001,-0.0001730533
152.8001,-0.0001730005
152.9001,-0.0001729506
153.0001,-0.0001728414
153.1001,-0.0001727623
153.2001,-0.0001726502
153.3002,-0.0001725928
153.4002,-0.0001725476
153.5002,-0.000172443
153.6002,-0.0001723658
153.7002,-0.0001723084
153.8002,-0.0001722274
153.9002,-0.0001720937
154.0002,-0.0001720767
154.1002,-0.0001719995
154.2002,-0.0001718808
154.3002,-0.0001718328
154.4002,-0.0001717405
154.5002,-0.0001716237
154.6002,-0.0001716463
154.7002,-0.000171539
154.8002,-0.0001714062
154.9003,-0.0001713459
155.0003,-0.0001712697
155.1003,-0.0001711981
155.2003,-0.000171183
155.3003,-0.0001710493
155.4003,-0.000170957
155.5003,-0.000170876
155.6003,-0.0001708195
155.7003,-0.0001707536
155.8003,-0.0001706707
155.9003,-0.0001705294
156.0003,-0.000170488
156.1003,-0.0001705163
156.2003,-0.0001703967
156.3003,-0.0001702827
156.4003,-0.0001701697
156.5004,-0.000170068
156.6004,-0.0001699757
156.7004,-0.0001699333
156.8004,-0.0001697874
156.9004,-0.000169697
157.0004,-0.0001696583
157.1004,-0.0001695585
157.2004,-0.0001695048
157.3004,-0.000169405
157.4004,-0.0001692939
157.5004,-0.0001692431
157.6004,-0.0001691875
157.7004,-0.0001690698
157.8004,-0.0001689784
157.9004,-0.00016892
158.0004,-0.0001688315
158.1004,-0.0001687298
158.2005,-0.0001686582
158.3005,-0.0001686008
158.4005,-0.0001685085
158.5005,-0.000168452
158.6005,-0.0001683371
158.7005,-0.0001682618
158.8005,-0.0001681827
158.9005,-0.0001680941
159.0005,-0.0001679839
159.1005,-0.0001679114
159.2005,-0.00016787
159.3005,-0.0001677777
159.4005,-0.0001676581
159.5005,-0.0001676044
159.6005,-0.0001674876
159.7005,-0.0001674255
159.8006,-0.0001673549
159.9006,-0.0001672729
160.0006,-0.0001671656
160.1006,-0.0001671015
160.2006,-0.0001670187
160.3006,-0.0001669066
160.4006,-0.0001668284
160.5006,-0.0001667672
160.6006,-0.0001667088
160.7006,-0.0001665798
160.8006,-0.000166513
160.9006,-0.0001664084
161.0006,-0.0001663171
161.1006,-0.0001662926
161.2006,-0.0001661956
161.3006,-0.0001661146
161.4007,-0.0001660346
161.5007,-0.0001659517
161.6007,-0.0001658735
161.7007,-0.0001658321
161.8007,-0.0001657558
161.9007,-0.0001656296
162.0007,-0.0001655618
162.1007,-0.0001655175
162.2007,-0.0001653942
162.3007,-0.0001653292
162.4007,-0.0001652407
162.5007,-0.0001651936
162.6007,-0.0001651296
162.7007,-0.0001650326
162.8007,-0.0001649422
162.9007,-0.0001648894
163.0007,-0.0001648602
163.1008,-0.0001647576
163.2008,-0.0001646709
163.3008,-0.0001645815
163.4008,-0.0001645438
163.5008,-0.0001644939
163.6008,-0.0001643526
163.7008,-0.0001642876
163.8008,-0.0001642236
163.9008,-0.0001641266
164.0008,-0.0001640569
164.1008,-0.0001640042
164.2008,-0.0001638865
164.3008,-0.0001638281
164.4008,-0.0001637923
164.5008,-0.0001636765
164.6008,-0.0001636124
164.7009,-0.0001635738
164.8009,-0.0001634994
164.9009,-0.000163377
165.0009,-0.0001633035
165.1009,-0.000163247
165.2009,-0.0001631764
165.3009,-0.0001631387
165.4009,-0.0001630389
165.5009,-0.0001629504
165.6009,-0.0001628675
165.7009,-0.000162811
165.8009,-0.0001627329
165.9009,-0.0001626396
166.0009,-0.0001625445
166.1009,-0.000162504
166.2009,-0.000162424
166.3009,-0.0001623628
166.401,-0.0001622837
166.501,-0.0001621876
166.601,-0.0001621123
166.701,-0.0001620388
166.801,-0.0001619851
166.901,-0.0001618806
167.001,-0.0001617855
167.101,-0.0001617309
167.201,-0.0001616555
167.301,-0.0001615783
167.401,-0.0001615105
167.501,-0.000161438
167.601,-0.000161356
167.701,-0.0001612619
167.801,-0.0001612025
167.901,-0.0001611328
168.0011,-0.0001610839
168.1011,-0.0001609812
168.2011,-0.0001609172
168.3011,-0.0001608541
168.4011,-0.000160774
168.5011,-0.0001606987
168.6011,-0.0001606064
168.7011,-0.0001605141
168.8011,-0.0001604812
168.9011,-0.0001603861
169.0011,-0.0001603117
169.1011,-0.0001603022
169.2011,-0.0001602307
169.3011,-0.000160112
169.4011,-0.0001600414
169.5011,-0.00015995
169.6012,-0.0001598888
169.7012,-0.0001598314
169.8012,-0.0001597212
169.9012,-0.0001596704
170.0012,-0.0001595828
170.1012,-0.000159482
170.2012,-0.0001594698
170.3012,-0.0001593869
170.4012,-0.0001592974
170.5012,-0.0001592145
170.6012,-0.0001591279
170.7012,-0.0001590742
170.8012,-0.00015903
170.9012,-0.0001589301
171.0012,-0.0001588218
171.1012,-0.0001587823
171.2012,-0.0001587154
171.3013,-0.000158626
171.4013,-0.0001585497
171.5013,-0.0001584706
171.6013,-0.0001584338
171.7013,-0.0001583613
171.8013,-0.000158286
171.9013,-0.0001582126
172.0013,-0.0001581297
172.1013,-0.0001580779
172.2013,-0.0001580157
172.3013,-0.000157947
172.4013,-0.0001578584
172.5013,-0.0001577916
172.6013,-0.0001577577
172.7013,-0.0001577125
172.8013,-0.0001576089
172.9014,-0.0001575467
173.0014,-0.0001574846
173.1014,-0.0001574394
173.2014,-0.0001573556
173.3014,-0.0001572463
173.4014,-0.0001571719
173.5014,-0.0001571192
173.6014,-0.0001570382
173.7014,-0.0001569582
173.8014,-0.0001568678
173.9014,-0.0001567887
174.0014,-0.000156734
174.1014,-0.0001566521
174.2014,-0.0001565871
174.3014,-0.0001565334
174.4014,-0.0001564713
174.5014,-0.0001563846
174.6015,-0.000156298
174.7015,-0.0001562057
174.8015,-0.0001561803
174.9015,-0.0001561125
175.0015,-0.0001560324
175.1015,-0.0001560032
175.2015,-0.0001559326
175.3015,-0.0001558243
175.4015,-0.0001558121
175.5015,-0.0001557198
175.6015,-0.0001555729
175.7015,-0.0001555295
175.8015,-0.0001554834
175.9015,-0.0001554495
176.0015,-0.0001553346
176.1015,-0.0001552696
176.2016,-0.0001551858
176.3016,-0.0001551274
176.4016,-0.0001550615
176.5016,-0.00015494
176.6016,-0.0001549042
176.7016,-0.0001548487
176.8016,-0.0001547828
176.9016,-0.000154699
177.0016,-0.0001546048
177.1016,-0.000154553
177.2016,-0.0001545285
177.3016,-0.0001544211
177.4016,-0.0001543788
177.5016,-0.0001543543
177.6016,-0.000154246
177.7016,-0.0001541622
177.8017,-0.0001541301
177.9017,-0.000154019
178.0017,-0.0001539531
178.1017,-0.0001539182
178.2017,-0.0001538005
178.3017,-0.0001537591
178.4017,-0.0001537045
178.5017,-0.0001536018
178.6017,-0.000153518
178.7017,-0.0001534898
178.8017,-0.0001534512
178.9017,-0.0001533306
179.0017,-0.0001532929
179.1017,-0.0001531893
179.2017,-0.0001531263
179.3017,-0.0001530876
179.4017,-0.0001530189
179.5018,-0.0001529671
179.6018,-0.0001529652
179.7018,-0.0001528692
179.8018,-0.0001527364
179.9018,-0.0001526752
180.0018,-0.0001526139
180.1018,-0.0001525235
180.2018,-0.0001524934
180.3018,-0.0001524199
180.4018,-0.0001523399
180.5018,-0.0001522891
180.6018,-0.0001521977
180.7018,-0.0001521779
180.8018,-0.0001521205
180.9018,-0.000152048
181.0018,-0.0001519425
181.1019,-0.0001518775
181.2019,-0.000151838
181.3019,-0.0001517231
181.4019,-0.0001516732
181.5019,-0.0001515705
181.6019,-0.0001515206
181.7019,-0.0001514952
181.8019,-0.0001514095
181.9019,-0.0001513228
182.0019,-0.0001512588
182.1019,-0.0001511938
182.2019,-0.0001511166
182.3019,-0.0001510318
182.4019,-0.0001509838
182.5019,-0.000150932
182.6019,-0.0001508774
182.702,-0.0001507682
182.802,-0.0001507013
182.902,-0.0001506325
183.002,-0.0001505591
183.102,-0.0001505403
183.202,-0.0001504668
183.302,-0.0001503849
183.402,-0.000150335
183.502,-0.0001502596
183.602,-0.0001501843
183.702,-0.0001501221
183.802,-0.0001500515
183.902,-0.0001499922
184.002,-0.0001499244
184.102,-0.0001499055
184.202,-0.0001498161
184.302,-0.0001497313
184.4021,-0.0001496588
184.5021,-0.0001496174
184.6021,-0.0001495562
184.7021,-0.0001494799
184.8021,-0.0001493819
184.9021,-0.0001493461
185.0021,-0.000149284
185.1021,-0.0001492181
185.2021,-0.0001491851
185.3021,-0.0001490655
185.4021,-0.0001490316
185.5021,-0.0001489525
185.6021,-0.0001488838
185.7021,-0.0001488065
185.8021,-0.0001487962
185.9021,-0.0001487274
186.0022,-0.0001486521
186.1022,-0.0001485899
186.2022,-0.0001484948
186.3022,-0.000148443
186.4022,-0.0001483837
186.5022,-0.0001483131
186.6022,-0.0001482547
186.7022,-0.0001481963
186.8022,-0.0001481332
186.9022,-0.0001481059
187.0022,-0.0001479787
187.1022,-0.0001479514
187.2022,-0.0001479025
187.3022,-0.0001478874
187.4022,-0.0001478281
187.5022,-0.0001477895
187.6022,-0.0001477009
187.7023,-0.0001475757
187.8023,-0.0001474806
187.9023,-0.0001473911
188.0023,-0.000147377
188.1023,-0.0001473233
188.2023,-0.0001472216
188.3023,-0.0001471538
188.4023,-0.0001471293
188.5023,-0.0001470766
188.6023,-0.0001469984
188.7023,-0.0001469513
188.8023,-0.0001468656
188.9023,-0.0001468063
189.0023,-0.0001467865
189.1023,-0.0001466801
189.2023,-0.0001465954
189.3024,-0.0001465982
189.4024,-0.0001465304
189.5024,-0.0001464531
189.6024,-0.0001463816
189.7024,-0.0001462996
189.8024,-0.0001462516
189.9024,-0.0001462356
190.0024,-0.0001461019
190.1024,-0.000146051
190.2024,-0.0001459983
190.3024,-0.0001459201
190.4024,-0.0001458552
190.5024,-0.0001458194
190.6024,-0.000145712
190.7024,-0.0001456414
190.8024,-0.0001455905
190.9025,-0.0001455237
191.0025,-0.000145486
191.1025,-0.0001454653
191.2025,-0.0001453551
191.3025,-0.0001452581
191.4025,-0.0001452289
191.5025,-0.0001451837
191.6025,-0.0001450923
191.7025,-0.0001450603
191.8025,-0.0001449643
191.9025,-0.0001448917
192.0025,-0.0001448362
192.1025,-0.0001447486
192.2025,-0.0001447043
192.3025,-0.0001446526
192.4025,-0.0001445725
192.5025,-0.0001444896
192.6026,-0.0001445066
192.7026,-0.0001444294
192.8026,-0.0001443474
192.9026,-0.0001442796
193.0026,-0.0001442081
193.1026,-0.0001441384
193.2026,-0.0001441139
193.3026,-0.0001440131
193.4026,-0.000143951
193.5026,-0.0001439095
193.6026,-0.000143821
193.7026,-0.0001437494
193.8026,-0.0001437344
193.9026,-0.0001436581
194.0026,-0.0001435837
194.1026,-0.0001435187
194.2027,-0.0001434349
194.3027,-0.0001433869
194.4027,-0.0001433454
194.5027,-0.0001432823
194.6027,-0.0001431816
194.7027,-0.0001431543
194.8027,-0.0001430761
194.9027,-0.0001430516
195.0027,-0.0001429772
195.1027,-0.0001428962
195.2027,-0.0001428143
195.3027,-0.0001428124
195.4027,-0.0001427164
195.5027,-0.0001426533
195.6027,-0.0001425657
195.7027,-0.0001424894
195.8027,-0.0001424207
195.9028,-0.0001424093
196.0028,-0.0001423086
196.1028,-0.0001422314
196.2028,-0.0001422135
196.3028,-0.0001421287
196.4028,-0.0001420967
196.5028,-0.0001420261
196.6028,-0.0001419432
196.7028,-0.0001418923
196.8028,-0.000141898
196.9028,-0.0001417708
197.0028,-0.0001417134
197.1028,-0.00014172
197.2028,-0.0001416484
197.3028,-0.0001416117
197.4028,-0.000141543
197.5029,-0.0001414591
197.6029,-0.0001413998
197.7029,-0.0001413669
197.8029,-0.0001412755
197.9029,-0.0001411879
198.0029,-0.0001411116
198.1029,-0.0001410354
198.2029,-0.0001409949
198.3029,-0.0001409977
198.4029,-0.0001408828
198.5029,-0.0001408169
198.6029,-0.0001407641
198.7029,-0.0001406926
198.8029,-0.0001406568
198.9029,-0.0001405993
199.0029,-0.0001404882
199.103,-0.0001404628
199.203,-0.0001404289
199.303,-0.0001403413
199.403,-0.0001402547
199.503,-0.0001402076
199.603,-0.0001401464
199.703,-0.0001400936
199.803,-0.0001400381
199.903,-0.0001399599
200.003,-0.0001398893
200.103,-0.0001398544
200.203,-0.0001397979
200.303,-0.0001397433
200.403,-0.0001396689
200.503,-0.0001396049
200.603,-0.0001395418
200.703,-0.0001395013
200.8031,-0.0001394674
200.9031,-0.0001394137
201.0031,-0.0001392837
201.1031,-0.0001392555
201.2031,-0.0001392075
201.3031,-0.0001391444
201.4031,-0.0001390992
201.5031,-0.0001390549
201.6031,-0.0001389796
201.7031,-0.0001389362
201.8031,-0.0001388845
201.9031,-0.0001388317
202.0031,-0.0001387856
202.1031,-0.0001386952
202.2031,-0.0001386971
202.3031,-0.0001386434
202.4032,-0.0001385332
202.5032,-0.0001384305
202.6032,-0.0001383994
202.7032,-0.0001382977
202.8032,-0.0001382441
202.9032,-0.0001382252
203.0032,-0.0001381433
203.1032,-0.000138051
203.2032,-0.0001380661
203.3032,-0.000137986
203.4032,-0.00013789
203.5032,-0.0001378551
203.6032,-0.0001377901
203.7032,-0.0001377384
203.8032,-0.0001376913
203.9032,-0.0001375839
204.0033,-0.0001375604
204.1033,-0.0001376056
204.2033,-0.0001374803
204.3033,-0.0001374106
204.4033,-0.0001373523
204.5033,-0.0001372779
204.6033,-0.0001372072
204.7033,-0.0001371696
204.8033,-0.0001370876
204.9033,-0.0001370076
205.0033,-0.0001369708
205.1033,-0.0001368983
205.2033,-0.0001368578
205.3033,-0.0001368268
205.4033,-0.0001367279
205.5033,-0.000136661
205.6033,-0.0001366441
205.7034,-0.0001365838
205.8034,-0.0001365245
205.9034,-0.0001364896
206.0034,-0.0001364143
206.1034,-0.0001363408
206.2034,-0.0001363305
206.3034,-0.0001362702
206.4034,-0.000136177
206.5034,-0.0001361205
206.6034,-0.0001360649
206.7034,-0.0001359981
206.8034,-0.0001359717
206.9034,-0.0001359029
207.0034,-0.0001358474
207.1034,-0.0001357965
207.2034,-0.0001357184
207.3035,-0.0001356647
207.4035,-0.0001356364
207.5035,-0.0001355931
207.6035,-0.0001355112
207.7035,-0.0001354226
207.8035,-0.0001353577
207.9035,-0.0001353341
208.0035,-0.0001352889
208.1035,-0.0001351891
208.2035,-0.0001351326
208.3035,-0.0001351034
208.4035,-0.0001350318
208.5035,-0.0001349631
208.6035,-0.000134916
208.7035,-0.000134884
208.8035,-0.000134818
208.9035,-0.0001347889
209.0036,-0.0001347427
209.1036,-0.0001346834
209.2036,-0.0001346165
209.3036,-0.0001345676
209.4036,-0.0001344875
209.5036,-0.0001344395
209.6036,-0.0001343933
209.7036,-0.0001343001
209.8036,-0.0001342257
209.9036,-0.0001341899
210.0036,-0.0001341381
210.1036,-0.0001340666
210.2036,-0.0001340242
210.3036,-0.0001339677
210.4036,-0.0001339083
210.5036,-0.0001338631
210.6037,-0.0001338264
210.7037,-0.000133736
210.8037,-0.0001336786
210.9037,-0.0001336371
211.0037,-0.0001335806
211.1037,-0.0001335514
211.2037,-0.0001334544
211.3037,-0.0001334177
211.4037,-0.0001333932
211.5037,-0.000133332
211.6037,-0.0001332793
211.7037,-0.000133203
211.8037,-0.0001331324
211.9037,-0.0001331201
212.0037,-0.0001330966
212.1037,-0.0001330561
212.2038,-0.000132977
212.3038,-0.0001328753
212.4038,-0.0001327971
212.5038,-0.000132734
212.6038,-0.0001327161
212.7038,-0.0001326596
212.8038,-0.0001325975
212.9038,-0.0001325249
213.0038,-0.0001324374
213.1038,-0.0001323761
213.2038,-0.000132362
213.3038,-0.0001323121
213.4038,-0.0001322198
213.5038,-0.0001321878
213.6038,-0.0001321096
213.7038,-0.0001320889
213.8038,-0.0001320503
213.9039,-0.0001319938
214.0039,-0.0001319335
214.1039,-0.0001318676
214.2039,-0.0001318186
214.3039,-0.0001317414
214.4039,-0.0001316538
214.5039,-0.0001316397
214.6039,-0.0001315757
214.7039,-0.0001314928
214.8039,-0.0001314269
214.9039,-0.0001314015
215.0039,-0.0001313534
215.1039,-0.0001313176
215.2039,-0.0001312536
215.3039,-0.0001311924
215.4039,-0.0001311434
215.504,-0.0001310841
215.604,-0.0001310172
215.704,-0.0001309522
215.804,-0.000130876
215.904,-0.0001308477
216.004,-0.0001308063
216.104,-0.0001307601
216.204,-0.0001306857
216.304,-0.0001306095
216.404,-0.0001305887
216.504,-0.0001305219
216.604,-0.0001305087
216.704,-0.0001304089
216.804,-0.0001303392
216.904,-0.0001303156
217.004,-0.0001302497
217.104,-0.0001302007
217.2041,-0.0001301904
217.3041,-0.0001300972
217.4041,-0.0001300604
217.5041,-0.0001300096
217.6041,-0.0001299342
217.7041,-0.0001298504
217.8041,-0.0001297977
217.9041,-0.0001297487
218.0041,-0.0001297346
218.1041,-0.0001296574
218.2041,-0.0001296046
218.3041,-0.0001295255
218.4041,-0.0001294803
218.5041,-0.0001294313
218.6041,-0.0001294003
218.7041,-0.0001293118
218.8042,-0.0001292524
218.9042,-0.0001292279
219.0042,-0.0001291554
219.1042,-0.0001290876
219.2042,-0.000129049
219.3042,-0.0001289925
219.4042,-0.0001289416
219.5042,-0.0001288635
219.6042,-0.0001288211
219.7042,-0.0001288032
219.8042,-0.0001287411
219.9042,-0.0001286365
220.0042,-0.0001285772
220.1042,-0.0001285668
220.2042,-0.0001285245
220.3042,-0.0001284764
220.4043,-0.0001284246
220.5043,-0.0001283663
220.6043,-0.0001282985
220.7043,-0.00012824
220.8043,-0.0001281657
220.9043,-0.0001281242
221.0043,-0.0001280705
221.1043,-0.0001280385
221.2043,-0.0001279858
221.3043,-0.0001279208
221.4043,-0.0001278671
221.5043,-0.0001278257
221.6043,-0.0001277993
221.7043,-0.0001277409
221.8043,-0.0001277023
221.9043,-0.0001276421
222.0043,-0.0001275959
222.1044,-0.0001275667
222.2044,-0.0001275093
222.3044,-0.0001274669
222.4044,-0.0001274123
222.5044,-0.0001273765
222.6044,-0.0001273454
222.7044,-0.0001273011
222.8044,-0.0001272352
222.9044,-0.0001272126
223.0044,-0.0001271608
223.1044,-0.000127109
223.2044,-0.0001270695
223.3044,-0.0001270036
223.4044,-0.0001269424
223.5044,-0.0001269188
223.6044,-0.0001268359
223.7045,-0.0001267888
223.8045,-0.0001267606
223.9045,-0.000126689
224.0045,-0.0001266137
224.1045,-0.0001266014
224.2045,-0.0001265346
224.3045,-0.0001264602
224.4045,-0.00012643
224.5045,-0.0001263623
224.6045,-0.0001263001
224.7045,-0.0001262634
224.8045,-0.0001261984
224.9045,-0.0001261428
225.0045,-0.0001261428
225.1045,-0.0001260505
225.2045,-0.0001259922
225.3046,-0.0001259582
225.4046,-0.0001259017
225.5046,-0.0001258575
225.6046,-0.0001258047
225.7046,-0.0001257322
225.8046,-0.0001256776
225.9046,-0.0001256569
226.0046,-0.000125607
226.1046,-0.0001255429
226.2046,-0.0001255119
226.3046,-0.0001254535
226.4046,-0.00012538
226.5046,-0.0001253838
226.6046,-0.0001253207
226.7046,-0.0001252369
226.8046,-0.0001252246
226.9046,-0.0001251606
227.0047,-0.0001250824
227.1047,-0.0001250608
227.2047,-0.0001250156
227.3047,-0.0001249393
227.4047,-0.0001248988
227.5047,-0.0001248687
227.6047,-0.0001248169
227.7047,-0.0001247283
227.8047,-0.0001247133
227.9047,-0.0001246332
228.0047,-0.0001245871
228.1047,-0.0001245052
228.2047,-0.0001244948
228.3047,-0.0001244543
228.4047,-0.0001243903
228.5047,-0.0001243272
228.6048,-0.0001242904
228.7048,-0.0001242415
228.8048,-0.0001241991
228.9048,-0.00012412
229.0048,-0.0001240654
229.1048,-0.0001240324
229.2048,-0.0001239806
229.3048,-0.0001239354
229.4048,-0.0001238582
229.5048,-0.0001238365
229.6048,-0.0001238007
229.7048,-0.0001237358
229.8048,-0.0001236369
229.9048,-0.0001236162
230.0048,-0.0001235851
230.1048,-0.000123522
230.2048,-0.0001234721
230.3049,-0.0001234476
230.4049,-0.0001233779
230.5049,-0.0001233374
230.6049,-0.00012328
230.7049,-0.0001232018
230.8049,-0.0001231754
230.9049,-0.0001231283
231.0049,-0.0001230615
231.1049,-0.0001230059
231.2049,-0.0001229701
231.3049,-0.000122923
231.4049,-0.0001228938
231.5049,-0.0001228016
231.6049,-0.0001227639
231.7049,-0.0001227545
231.8049,-0.000122666
231.905,-0.0001226038
232.005,-0.0001225878
232.105,-0.0001225379
232.205,-0.0001224861
232.305,-0.0001224362
232.405,-0.0001223637
232.505,-0.0001223043
232.605,-0.0001223062
232.705,-0.000122229
232.805,-0.0001221781
232.905,-0.0001221631
233.005,-0.0001220576
233.105,-0.0001219832
233.205,-0.0001219512
233.305,-0.0001219097
233.405,-0.0001218419
233.5051,-0.0001218033
233.6051,-0.0001217346
233.7051,-0.0001217063
233.8051,-0.0001217054
233.9051,-0.0001216319
234.0051,-0.0001215792
234.1051,-0.0001215076
234.2051,-0.0001214521
234.3051,-0.0001213899
234.4051,-0.0001213645
234.5051,-0.0001213108
234.6051,-0.0001212345
234.7051,-0.0001212081
234.8051,-0.0001211818
234.9051,-0.0001211328
235.0051,-0.0001210594
235.1051,-0.0001209981
235.2052,-0.0001209511
235.3052,-0.0001208814
235.4052,-0.0001208475
235.5052,-0.0001208051
235.6052,-0.0001207458
235.7052,-0.0001207071
235.8052,-0.0001206535
235.9052,-0.0001206356
236.0052,-0.0001205875
236.1052,-0.0001205508
236.2052,-0.0001204924
236.3052,-0.0001204378
236.4052,-0.0001203964
236.5052,-0.0001203531
236.6052,-0.0001203144
236.7052,-0.0001202551
236.8053,-0.0001202118
236.9053,-0.0001201722
237.0053,-0.000120143
237.1053,-0.0001201007
237.2053,-0.0001200753
237.3053,-0.0001200442
237.4053,-0.0001199557
237.5053,-0.000119934
237.6053,-0.0001198652
237.7053,-0.0001198003
237.8053,-0.0001197438
237.9053,-0.0001196882
238.0053,-0.0001196581
238.1053,-0.000119594
238.2053,-0.0001195112
238.3053,-0.0001194754
238.4053,-0.0001194622
238.5054,-0.0001194029
238.6054,-0.0001193398
238.7054,-0.0001192701
238.8054,-0.0001192164
238.9054,-0.0001191957
239.0054,-0.0001191665
239.1054,-0.0001191128
239.2054,-0.0001190591
239.3054,-0.0001189762
239.4054,-0.0001189414
239.5054,-0.0001189056
239.6054,-0.0001188557
239.7054,-0.0001188077
239.8054,-0.0001187455
239.9054,-0.00011869
240.0054,-0.0001186645
240.1055,-0.0001186118
240.2055,-0.0001185675
240.3055,-0.000118512
240.4055,-0.0001184234
240.5055,-0.0001184159
240.6055,-0.0001183726
240.7055,-0.0001183189
240.8055,-0.000118301
240.9055,-0.0001182116
241.0055,-0.000118156
241.1055,-0.0001181485
241.2055,-0.0001180938
241.3055,-0.0001180091
241.4055,-0.0001180129
241.5055,-0.0001179742
241.6055,-0.0001179225
241.7056,-0.0001178744
241.8056,-0.0001177897
241.9056,-0.0001177567
242.0056,-0.0001177652
242.1056,-0.0001176616
242.2056,-0.0001176503
242.3056,-0.0001176569
242.4056,-0.0001175853
242.5056,-0.0001175269
242.6056,-0.0001174911
242.7056,-0.0001174243
242.8056,-0.0001174017
242.9056,-0.0001173734
243.0056,-0.0001172802
243.1056,-0.0001172246
243.2056,-0.0001172387
243.3056,-0.0001171248
243.4057,-0.0001170485
243.5057,-0.0001170787
243.6057,-0.0001170316
243.7057,-0.0001169713
243.8057,-0.0001169562
243.9057,-0.0001168837
244.0057,-0.0001168404
244.1057,-0.0001168018
244.2057,-0.0001167255
244.3057,-0.0001166662
244.4057,-0.0001166502
244.5057,-0.0001165503
244.6057,-0.0001164882
244.7057,-0.0001165108
244.8057,-0.0001164364
244.9057,-0.0001163761
245.0058,-0.000116329
245.1058,-0.0001163046
245.2058,-0.0001162697
245.3058,-0.0001162537
245.4058,-0.0001161586
245.5058,-0.0001160974
245.6058,-0.0001160908
245.7058,-0.000116039
245.8058,-0.0001160051
245.9058,-0.000115926
246.0058,-0.0001158723
246.1058,-0.0001158356
246.2058,-0.000115764
246.3058,-0.0001157254
246.4058,-0.0001156774
246.5058,-0.0001156284
246.6059,-0.0001155954
246.7059,-0.0001155342
246.8059,-0.0001154768
246.9059,-0.0001154796
247.0059,-0.0001154269
247.1059,-0.0001153845
247.2059,-0.0001153487
247.3059,-0.0001153035
247.4059,-0.0001152451
247.5059,-0.0001152338
247.6059,-0.0001151415
247.7059,-0.000115101
247.8059,-0.0001151114
247.9059,-0.0001150153
248.0059,-0.0001150125
248.1059,-0.0001149795
248.2059,-0.0001149334
248.306,-0.0001148788
248.406,-0.0001148204
248.506,-0.0001147563
248.606,-0.0001146904
248.706,-0.0001146707
248.806,-0.0001146273
248.906,-0.0001145821
249.006,-0.0001145567
249.106,-0.0001144814
249.206,-0.0001144267
249.306,-0.0001144286
249.406,-0.0001143778
249.506,-0.0001143213
249.606,-0.0001143034
249.706,-0.0001142299
249.806,-0.0001141555
249.9061,-0.0001141442
250.0061,-0.0001140896
250.1061,-0.0001140595
250.2061,-0.0001140265
250.3061,-0.0001139681
250.4061,-0.000113905
250.5061,-0.00011389
250.6061,-0.0001138325
250.7061,-0.0001137525
250.8061,-0.0001137647
250.9061,-0.000113695
251.0061,-0.0001136234
251.1061,-0.0001135971
251.2061,-0.0001135321
251.3061,-0.0001135349
251.4061,-0.000113518
251.5061,-0.0001134191
251.6062,-0.0001133569
251.7062,-0.000113356
251.8062,-0.0001132938
251.9062,-0.0001132402
252.0062,-0.0001132185
252.1062,-0.0001131347
252.2062,-0.0001131027
252.3062,-0.0001130791
252.4062,-0.0001130236
252.5062,-0.0001129765
252.6062,-0.0001129445
252.7062,-0.0001128832
252.8062,-0.0001128616
252.9062,-0.0001128305
253.0062,-0.0001127778
253.1062,-0.000112709
253.2063,-0.0001126685
253.3063,-0.0001126346
253.4063,-0.0001125584
253.5063,-0.0001125301
253.6063,-0.0001125056
253.7063,-0.0001124529
253.8063,-0.0001124209
253.9063,-0.0001123804
254.0063,-0.0001123201
254.1063,-0.0001122721
254.2063,-0.0001122353
254.3063,-0.0001122043
254.4063,-0.0001121487
254.5063,-0.0001120771
254.6063,-0.0001120621
254.7063,-0.0001120112
254.8064,-0.0001119886
254.9064,-0.0001119462
255.0064,-0.0001118652
255.1064,-0.0001118247
255.2064,-0.0001117927
255.3064,-0.00011174
255.4064,-0.00011174
255.5064,-0.0001116929
255.6064,-0.000111611
255.7064,-0.0001115742
255.8064,-0.0001114933
255.9064,-0.0001114716
256.0064,-0.0001114424
256.1064,-0.0001113473
256.2064,-0.000111336
256.3064,-0.000111368
256.4064,-0.0001112889
256.5064,-0.000111223
256.6064,-0.0001111815
256.7065,-0.0001111137
256.8065,-0.0001111006
256.9065,-0.0001110544
257.0065,-0.0001109631
257.1065,-0.0001109612
257.2065,-0.0001109536
257.3065,-0.0001108698
257.4065,-0.0001108067
257.5065,-0.0001107813
257.6065,-0.0001107493
257.7065,-0.0001107097
257.8065,-0.0001106655
257.9065,-0.0001105882
258.0065,-0.0001105477
258.1065,-0.0001105572
258.2065,-0.0001104668
258.3065,-0.0001104489
258.4066,-0.000110414
258.5066,-0.0001103312
258.6066,-0.0001102991
258.7066,-0.0001102897
258.8066,-0.0001102342
258.9066,-0.0001101842
259.0066,-0.0001101259
259.1066,-0.000110091
259.2066,-0.0001100835
259.3066,-0.0001100477
259.4066,-0.0001099978
259.5066,-0.0001099554
259.6066,-0.0001098951
259.7066,-0.0001098885
259.8066,-0.0001098339
259.9066,-0.0001097802
260.0067,-0.0001097511
260.1067,-0.0001097143
260.2067,-0.0001096748
260.3067,-0.000109622
260.4067,-0.0001095759
260.5067,-0.0001095213
260.6067,-0.0001095034
260.7067,-0.0001094666
260.8067,-0.0001094083
260.9067,-0.0001093668
261.0067,-0.000109316
261.1067,-0.0001092821
261.2067,-0.0001092548
261.3067,-0.0001092105
261.4067,-0.0001091502
261.5067,-0.0001091229
261.6068,-0.0001090852
261.7068,-0.000109024
261.8068,-0.0001089873
261.9068,-0.0001089412
262.0068,-0.0001089025
262.1068,-0.0001088705
262.2068,-0.0001088159
262.3068,-0.000108782
262.4068,-0.0001087566
262.5068,-0.0001086897
262.6068,-0.0001086511
262.7068,-0.0001086502
262.8068,-0.0001086087
262.9068,-0.0001085437
263.0068,-0.0001084948
263.1068,-0.0001084675
263.2068,-0.000108426
263.3069,-0.0001083837
263.4069,-0.0001082933
263.5069,-0.0001082706
263.6069,-0.0001082603
263.7069,-0.0001082085
263.8069,-0.0001081567
263.9069,-0.0001081228
264.0069,-0.000108055
264.1069,-0.0001080503
264.2069,-0.0001080041
264.3069,-0.0001079495
264.4069,-0.0001079024
264.5069,-0.0001078676
264.6069,-0.0001078337
264.7069,-0.0001077744
264.8069,-0.0001077404
264.907,-0.0001076802
265.007,-0.0001076548
265.107,-0.0001076623
265.207,-0.0001075709
265.307,-0.000107522
265.407,-0.0001075286
265.507,-0.0001074542
265.607,-0.0001074287
265.707,-0.0001073704
265.807,-0.0001072978
265.907,-0.0001072828
266.007,-0.0001072602
266.107,-0.0001071886
266.207,-0.0001071349
266.307,-0.0001071585
266.407,-0.0001071057
266.507,-0.0001070605
266.6071,-0.0001070266
266.7071,-0.0001069635
266.8071,-0.0001069202
266.9071,-0.0001069183
267.0071,-0.0001068552
267.1071,-0.0001068176
267.2071,-0.0001067865
267.3071,-0.0001067356
267.4071,-0.0001066829
267.5071,-0.0001066659
267.6071,-0.0001066254
267.7071,-0.0001066047
267.8071,-0.0001065511
267.9071,-0.0001064927
268.0071,-0.0001064644
268.1071,-0.000106406
268.2072,-0.000106358
268.3072,-0.0001063166
268.4072,-0.0001062921
268.5072,-0.0001062676
268.6072,-0.0001062064
268.7072,-0.0001061508
268.8072,-0.0001061141
268.9072,-0.0001060783
269.0072,-0.0001060463
269.1072,-0.0001059945
269.2072,-0.0001059643
269.3072,-0.0001059154
269.4072,-0.0001058899
269.5072,-0.0001058212
269.6072,-0.0001057901
269.7072,-0.0001057882
269.8073,-0.0001057562
269.9073,-0.000105712
270.0073,-0.0001056696
270.1073,-0.0001056611
270.2073,-0.0001055716
270.3073,-0.0001055481
270.4073,-0.0001054925
270.5073,-0.0001054351
270.6073,-0.0001054219
270.7073,-0.0001053588
270.8073,-0.0001053635
270.9073,-0.0001052741
271.0073,-0.0001052543
271.1073,-0.0001052562
271.2073,-0.000105194
271.3073,-0.0001051366
271.4073,-0.0001050819
271.5074,-0.0001050367
271.6074,-0.000105001
271.7074,-0.0001049671
271.8074,-0.0001049162
271.9074,-0.0001048851
272.0074,-0.0001048456
272.1074,-0.0001048183
272.2074,-0.0001047712
272.3074,-0.0001047363
272.4074,-0.0001046827
272.5074,-0.0001046309
272.6074,-0.0001046459
272.7074,-0.0001046064
272.8074,-0.0001045565
272.9074,-0.0001045103
273.0074,-0.0001044839
273.1075,-0.000104466
273.2075,-0.0001044161
273.3075,-0.0001043728
273.4075,-0.000104321
273.5075,-0.0001042834
273.6075,-0.0001042523
273.7075,-0.0001042165
273.8075,-0.0001041835
273.9075,-0.0001041336
274.0075,-0.0001040828
274.1075,-0.0001040423
274.2075,-0.0001040281
274.3075,-0.0001039707
274.4075,-0.0001039321
274.5075,-0.0001038775
274.6075,-0.0001038652
274.7076,-0.0001038115
274.8076,-0.0001037654
274.9076,-0.0001037117
275.0076,-0.0001036816
275.1076,-0.0001036515
275.2076,-0.000103626
275.3076,-0.0001035554
275.4076,-0.0001035337
275.5076,-0.0001034801
275.6076,-0.0001034706
275.7076,-0.0001034386
275.8076,-0.0001033774
275.9076,-0.0001033463
276.0076,-0.0001032945
276.1076,-0.0001032437
276.2076,-0.0001032135
276.3076,-0.00010319
276.4077,-0.0001031486
276.5077,-0.0001030826
276.6077,-0.0001030393
276.7077,-0.0001030271
276.8077,-0.0001029809
276.9077,-0.0001029772
277.0077,-0.0001029131
277.1077,-0.0001028858
277.2077,-0.0001028416
277.3077,-0.000102803
277.4077,-0.000102787
277.5077,-0.0001027012
277.6077,-0.0001026711
277.7077,-0.0001026212
277.8077,-0.0001025807
277.9077,-0.0001025788
278.0078,-0.0001025289
278.1078,-0.0001024715
278.2078,-0.0001024385
278.3078,-0.0001024272
278.4078,-0.0001023811
278.5078,-0.0001023547
278.6078,-0.0001022549
278.7078,-0.000102252
278.8078,-0.0001022389
278.9078,-0.0001021371
279.0078,-0.0001021306
279.1078,-0.0001021183
279.2078,-0.0001020571
279.3078,-0.0001020138
279.4078,-0.0001020063
279.5078,-0.0001019253
279.6078,-0.0001018801
279.7079,-0.0001018791
279.8079,-0.0001018188
279.9079,-0.0001017746
280.0079,-0.0001017605
280.1079,-0.0001017256
280.2079,-0.000101671
280.3079,-0.0001016286
280.4079,-0.0001016183
280.5079,-0.000101557
280.6079,-0.0001015344
280.7079,-0.0001014704
280.8079,-0.0001014431
280.9079,-0.000101428
281.0079,-0.0001013706
281.1079,-0.0001013291
281.2079,-0.0001013141
281.308,-0.0001012858
281.408,-0.0001012331
281.508,-0.0001012143
281.608,-0.0001011672
281.708,-0.0001011436
281.808,-0.0001011125
281.908,-0.0001010429
282.008,-0.0001010306
282.108,-0.0001009995
282.208,-0.0001009063
282.308,-0.0001009186
282.408,-0.0001008847
282.508,-0.0001008385
282.608,-0.0001007782
282.708,-0.0001007453
282.808,-0.0001007283
282.9081,-0.0001007067
283.0081,-0.0001006483
283.1081,-0.0001005814
283.2081,-0.0001005607
283.3081,-0.0001005984
283.4081,-0.0001005437
283.5081,-0.0001004882
283.6081,-0.0001004213
283.7081,-0.0001003949
283.8081,-0.0001003648
283.9081,-0.0001003366
284.0081,-0.0001002697
284.1081,-0.0001002141
284.2081,-0.0001001915
284.3081,-0.0001001492
284.4081,-0.0001001218
284.5081,-0.000100103
284.6082,-0.000100038
284.7082,-9.998905E-05
284.8082,-9.998812E-05
284.9082,-9.993444E-05
285.0082,-9.988734E-05
285.1082,-9.985533E-05
285.2082,-9.980636E-05
285.3082,-9.978094E-05
285.4082,-9.977152E-05
285.5082,-9.968488E-05
285.6082,-9.966888E-05
285.7082,-9.966416E-05
285.8082,-9.961519E-05
285.9082,-9.95634E-05
286.0082,-9.954362E-05
286.1082,-9.9489E-05
286.2083,-9.947016E-05
286.3083,-9.941555E-05
286.4083,-9.931854E-05
286.5083,-9.925263E-05
286.6083,-9.925451E-05
286.7083,-9.921307E-05
286.8083,-9.915751E-05
286.9083,-9.912832E-05
287.0083,-9.908123E-05
287.1083,-9.905203E-05
287.2083,-9.905392E-05
287.3083,-9.899082E-05
287.4083,-9.897293E-05
287.5083,-9.89428E-05
287.6083,-9.886275E-05
287.7083,-9.885144E-05
287.8083,-9.885616E-05
287.9084,-9.877799E-05
288.0084,-9.871302E-05
288.1084,-9.869795E-05
288.2084,-9.866404E-05
288.3084,-9.862731E-05
288.4084,-9.860849E-05
288.5084,-9.855386E-05
288.6084,-9.850866E-05
288.7084,-9.850018E-05
288.8084,-9.843332E-05
288.9084,-9.843426E-05
289.0084,-9.840977E-05
289.1084,-9.835704E-05
289.2084,-9.831937E-05
289.3084,-9.826475E-05
289.4084,-9.822519E-05
289.5085,-9.820825E-05
289.6085,-9.82026E-05
289.7085,-9.813574E-05
289.8085,-9.807546E-05
289.9085,-9.803403E-05
290.0085,-9.803684E-05
290.1085,-9.796528E-05
290.2085,-9.792195E-05
290.3085,-9.788052E-05
290.4085,-9.78598E-05
290.5085,-9.78438E-05
290.6085,-9.783814E-05
290.7085,-9.775715E-05
290.8085,-9.769217E-05
290.9085,-9.767334E-05
291.0085,-9.763096E-05
291.1086,-9.756881E-05
291.2086,-9.753962E-05
291.3086,-9.748688E-05
291.4086,-9.74897E-05
291.5086,-9.745204E-05
291.6086,-9.741813E-05
291.7086,-9.736163E-05
291.8086,-9.73023E-05
291.9086,-9.726745E-05
292.0086,-9.727405E-05
292.1086,-9.723167E-05
292.2086,-9.718834E-05
292.3086,-9.714597E-05
292.4086,-9.709701E-05
292.5086,-9.707911E-05
292.6086,-9.70744E-05
292.7086,-9.6984E-05
292.8087,-9.69727E-05
292.9087,-9.694161E-05
293.0087,-9.686628E-05
293.1087,-9.685686E-05
293.2087,-9.682672E-05
293.3087,-9.678247E-05
293.4087,-9.672502E-05
293.5087,-9.669865E-05
293.6087,-9.665816E-05
293.7087,-9.662707E-05
293.8087,-9.660541E-05
293.9087,-9.65442E-05
294.0087,-9.650089E-05
294.1087,-9.647829E-05
294.2087,-9.64538E-05
294.3087,-9.642367E-05
294.4088,-9.638788E-05
294.5088,-9.631913E-05
294.6088,-9.629464E-05
294.7088,-9.630312E-05
294.8088,-9.624568E-05
294.9088,-9.621083E-05
295.0088,-9.6192E-05
295.1088,-9.612514E-05
295.2088,-9.611101E-05
295.3088,-9.609123E-05
295.4088,-9.600836E-05
295.5088,-9.597351E-05
295.6088,-9.599424E-05
295.7088,-9.593491E-05
295.8088,-9.588123E-05
295.9088,-9.586899E-05
296.0089,-9.580589E-05
296.1089,-9.578046E-05
296.2089,-9.578705E-05
296.3089,-9.568911E-05
296.4089,-9.567969E-05
296.5089,-9.567781E-05
296.6089,-9.562319E-05
296.7089,-9.557893E-05
296.8089,-9.556009E-05
296.9089,-9.550547E-05
297.0089,-9.5497E-05
297.1089,-9.546216E-05
297.2089,-9.540565E-05
297.3089,-9.536045E-05
297.4089,-9.535857E-05
297.5089,-9.532655E-05
297.6089,-9.527569E-05
297.709,-9.523521E-05
297.809,-9.517494E-05
297.909,-9.515326E-05
298.009,-9.51495E-05
298.109,-9.507604E-05
298.209,-9.503932E-05
298.309,-9.506193E-05
298.409,-9.4996E-05
298.509,-9.49574E-05
298.609,-9.492443E-05
298.709,-9.48764E-05
298.809,-9.485285E-05
298.909,-9.483684E-05
299.009,-9.478788E-05
299.109,-9.47455E-05
299.209,-9.47568E-05
299.3091,-9.472855E-05
299.4091,-9.468522E-05
299.5091,-9.46306E-05
299.6091,-9.457128E-05
299.7091,-9.456657E-05
299.8091,-9.454114E-05
299.9091,-9.448276E-05
300.0091,-9.442813E-05
300.1091,-9.443378E-05
300.2091,-9.440082E-05
300.3091,-9.432266E-05
300.4091,-9.430571E-05
300.5091,-9.425768E-05
300.6091,-9.423414E-05
300.7091,-9.422849E-05
300.8091,-9.417387E-05
300.9091,-9.411077E-05
301.0092,-9.40957E-05
301.1092,-9.406086E-05
301.2092,-9.401565E-05
301.3092,-9.402508E-05
301.4092,-9.397893E-05
301.5092,-9.392148E-05
301.6092,-9.390265E-05
301.7092,-9.385461E-05
301.8092,-9.38113E-05
301.9092,-9.380942E-05
302.0092,-9.376515E-05
302.1092,-9.371242E-05
302.2092,-9.369077E-05
302.3092,-9.36578E-05
302.4092,-9.363048E-05
302.5092,-9.360129E-05
302.6093,-9.359094E-05
302.7093,-9.353161E-05
302.8093,-9.350995E-05
302.9093,-9.346851E-05
303.0093,-9.341013E-05
303.1093,-9.341766E-05
303.2093,-9.335457E-05
303.3093,-9.330371E-05
303.4093,-9.327734E-05
303.5093,-9.32585E-05
303.6093,-9.322272E-05
303.7093,-9.316621E-05
303.8093,-9.315021E-05
303.9093,-9.313985E-05
304.0093,-9.310877E-05
304.1093,-9.305791E-05
304.2094,-9.300989E-05
304.3094,-9.299764E-05
304.4094,-9.298069E-05
304.5094,-9.289406E-05
304.6094,-9.290253E-05
304.7094,-9.287428E-05
304.8094,-9.285451E-05
304.9094,-9.281306E-05
305.0094,-9.277069E-05
305.1094,-9.271983E-05
305.2094,-9.270948E-05
305.3094,-9.266239E-05
305.4094,-9.263132E-05
305.5094,-9.259364E-05
305.6094,-9.257386E-05
305.7094,-9.251642E-05
305.8094,-9.245238E-05
305.9095,-9.244768E-05
306.0095,-9.242696E-05
306.1095,-9.23827E-05
306.2095,-9.234691E-05
306.3095,-9.228852E-05
306.4095,-9.227157E-05
306.5095,-9.225367E-05
306.6095,-9.2216E-05
306.7095,-9.216327E-05
306.8095,-9.214444E-05
306.9095,-9.210771E-05
307.0095,-9.206816E-05
307.1095,-9.205591E-05
307.2095,-9.201825E-05
307.3095,-9.195232E-05
307.4095,-9.194668E-05
307.5096,-9.188075E-05
307.6096,-9.185909E-05
307.7096,-9.186003E-05
307.8096,-9.179128E-05
307.9096,-9.173385E-05
308.0096,-9.174137E-05
308.1096,-9.169712E-05
308.2096,-9.166227E-05
308.3096,-9.164061E-05
308.4096,-9.158223E-05
308.5096,-9.154926E-05
308.6096,-9.153232E-05
308.7096,-9.149653E-05
308.8096,-9.146074E-05
308.9096,-9.144944E-05
309.0096,-9.138446E-05
309.1096,-9.133737E-05
309.2097,-9.132513E-05
309.3097,-9.130535E-05
309.4097,-9.126298E-05
309.5097,-9.124603E-05
309.6097,-9.118105E-05
309.7097,-9.11575E-05
309.8097,-9.114997E-05
309.9097,-9.10897E-05
310.0097,-9.106521E-05
310.1097,-9.102754E-05
310.2097,-9.099929E-05
310.3097,-9.098422E-05
310.4097,-9.095691E-05
310.5097,-9.089099E-05
310.6097,-9.085897E-05
310.7097,-9.087592E-05
310.8098,-9.082225E-05
310.9098,-9.081377E-05
311.0098,-9.080153E-05
311.1098,-9.074879E-05
311.2098,-9.071866E-05
311.3098,-9.070547E-05
311.4098,-9.06499E-05
311.5098,-9.059529E-05
311.6098,-9.057928E-05
311.7098,-9.053972E-05
311.8098,-9.052843E-05
311.9098,-9.050394E-05
312.0098,-9.04578E-05
312.1098,-9.040788E-05
312.2098,-9.041259E-05
312.3098,-9.036645E-05
312.4099,-9.03382E-05
312.5099,-9.034856E-05
312.6099,-9.030618E-05
312.7099,-9.024968E-05
312.8099,-9.020918E-05
312.9099,-9.017904E-05
313.0099,-9.014137E-05
313.1099,-9.012537E-05
313.2099,-9.006981E-05
313.3099,-9.003496E-05
313.4099,-9.002083E-05
313.5099,-8.996998E-05
313.6099,-8.993984E-05
313.7099,-8.991536E-05
313.8099,-8.988428E-05
313.9099,-8.986828E-05
314.0099,-8.985509E-05
314.11,-8.977034E-05
314.21,-8.973643E-05
314.31,-8.975715E-05
314.41,-8.969688E-05
314.51,-8.967428E-05
314.61,-8.969593E-05
314.71,-8.965826E-05
314.81,-8.960365E-05
314.91,-8.956315E-05
315.01,-8.95349E-05
315.11,-8.948781E-05
315.21,-8.948876E-05
315.31,-8.943037E-05
315.41,-8.935032E-05
315.51,-8.935314E-05
315.61,-8.9307E-05
315.7101,-8.928534E-05
315.8101,-8.925897E-05
315.9101,-8.91921E-05
316.0101,-8.920812E-05
316.1101,-8.918929E-05
316.2101,-8.913372E-05
316.3101,-8.909606E-05
316.4101,-8.906309E-05
316.5101,-8.902071E-05
316.6101,-8.898869E-05
316.7101,-8.89708E-05
316.8101,-8.890394E-05
316.9101,-8.887286E-05
317.0101,-8.886157E-05
317.1101,-8.883708E-05
317.2101,-8.879376E-05
317.3102,-8.876267E-05
317.4102,-8.870994E-05
317.5102,-8.870994E-05
317.6102,-8.869299E-05
317.7102,-8.86007E-05
317.8102,-8.860258E-05
317.9102,-8.864308E-05
318.0102,-8.858469E-05
318.1102,-8.854608E-05
318.2102,-8.8499E-05
318.3102,-8.846509E-05
318.4102,-8.843684E-05
318.5102,-8.84359E-05
318.6102,-8.836904E-05
318.7102,-8.832289E-05
318.8102,-8.831442E-05
318.9102,-8.825791E-05
319.0103,-8.824567E-05
319.1103,-8.825415E-05
319.2103,-8.818917E-05
319.3103,-8.813926E-05
319.4103,-8.811759E-05
319.5103,-8.80931E-05
319.6103,-8.80771E-05
319.7103,-8.805732E-05
319.8103,-8.800176E-05
319.9103,-8.794902E-05
320.0103,-8.796221E-05
320.1103,-8.793396E-05
320.2103,-8.790099E-05
320.3103,-8.787085E-05
320.4103,-8.780588E-05
320.5103,-8.780023E-05
320.6104,-8.779459E-05
320.7104,-8.775126E-05
320.8104,-8.770701E-05
320.9104,-8.768534E-05
321.0104,-8.765897E-05
321.1104,-8.761659E-05
321.2104,-8.756857E-05
321.3104,-8.754032E-05
321.4104,-8.753466E-05
321.5104,-8.750547E-05
321.6104,-8.745556E-05
321.7104,-8.741883E-05
321.8104,-8.741506E-05
321.9104,-8.737457E-05
322.0104,-8.732654E-05
322.1104,-8.730488E-05
322.2104,-8.730959E-05
322.3105,-8.725026E-05
322.4105,-8.720412E-05
322.5105,-8.721541E-05
322.6105,-8.719281E-05
322.7105,-8.715043E-05
322.8105,-8.711276E-05
322.9105,-8.707133E-05
323.0105,-8.704873E-05
323.1105,-8.702424E-05
323.2105,-8.698281E-05
323.3105,-8.693289E-05
323.4105,-8.694702E-05
323.5105,-8.690276E-05
323.6105,-8.685002E-05
323.7105,-8.683212E-05
323.8105,-8.681989E-05
323.9106,-8.678975E-05
324.0106,-8.676432E-05
324.1106,-8.671064E-05
324.2106,-8.669747E-05
324.3106,-8.666544E-05
324.4106,-8.663625E-05
324.5106,-8.659293E-05
324.6106,-8.659011E-05
324.7106,-8.652418E-05
324.8106,-8.650535E-05
324.9106,-8.651947E-05
325.0106,-8.647804E-05
325.1106,-8.644132E-05
325.2106,-8.640364E-05
325.3106,-8.638103E-05
325.4106,-8.632548E-05
325.5107,-8.634807E-05
325.6107,-8.629722E-05
325.7107,-8.62313E-05
325.8107,-8.62313E-05
325.9107,-8.622095E-05
326.0107,-8.618987E-05
326.1107,-8.615597E-05
326.2107,-8.609475E-05
326.3107,-8.606838E-05
326.4107,-8.607215E-05
326.5107,-8.604766E-05
326.6107,-8.599681E-05
326.7107,-8.597798E-05
326.8107,-8.592995E-05
326.9107,-8.592619E-05
327.0107,-8.590076E-05
327.1107,-8.586214E-05
327.2108,-8.580752E-05
327.3108,-8.580471E-05
327.4108,-8.578586E-05
327.5108,-8.573125E-05
327.6108,-8.573784E-05
327.7108,-8.567568E-05
327.8108,-8.563143E-05
327.9108,-8.564178E-05
328.0108,-8.559092E-05
328.1108,-8.558811E-05
328.2108,-8.556832E-05
328.3108,-8.551182E-05
328.4108,-8.552218E-05
328.5108,-8.547604E-05
328.6108,-8.542518E-05
328.7108,-8.538939E-05
328.8109,-8.537244E-05
328.9109,-8.535173E-05
329.0109,-8.529052E-05
329.1109,-8.529523E-05
329.2109,-8.525755E-05
329.3109,-8.524155E-05
329.4109,-8.520859E-05
329.5109,-8.516056E-05
329.6109,-8.513513E-05
329.7109,-8.512289E-05
329.8109,-8.511347E-05
329.9109,-8.507015E-05
330.0109,-8.503153E-05
330.1109,-8.503436E-05
330.2109,-8.498634E-05
330.3109,-8.496844E-05
330.4109,-8.494301E-05
330.511,-8.490535E-05
330.611,-8.48818E-05
330.711,-8.484131E-05
330.811,-8.479987E-05
330.911,-8.479423E-05
331.011,-8.47575E-05
331.111,-8.473207E-05
331.211,-8.468592E-05
331.311,-8.468216E-05
331.411,-8.46605E-05
331.511,-8.460399E-05
331.611,-8.46087E-05
331.711,-8.457574E-05
331.811,-8.453431E-05
331.911,-8.451829E-05
332.011,-8.448817E-05
332.1111,-8.446367E-05
332.2111,-8.447215E-05
332.3111,-8.442978E-05
332.4111,-8.439022E-05
332.5111,-8.43808E-05
332.6111,-8.433749E-05
332.7111,-8.429134E-05
332.8111,-8.427062E-05
332.9111,-8.423483E-05
333.0111,-8.418586E-05
333.1111,-8.420564E-05
333.2111,-8.418304E-05
333.3111,-8.413312E-05
333.4111,-8.411806E-05
333.5111,-8.409264E-05
333.6111,-8.403519E-05
333.7112,-8.402766E-05
333.8112,-8.401164E-05
333.9112,-8.396361E-05
334.0112,-8.395137E-05
334.1112,-8.389111E-05
334.2112,-8.38798E-05
334.3112,-8.389016E-05
334.4112,-8.38167E-05
334.5112,-8.377715E-05
334.6112,-8.377904E-05
334.7112,-8.374608E-05
334.8112,-8.371405E-05
334.9112,-8.370088E-05
335.0112,-8.364531E-05
335.1112,-8.36406E-05
335.2112,-8.363872E-05
335.3112,-8.359728E-05
335.4113,-8.354737E-05
335.5113,-8.354548E-05
335.6113,-8.352195E-05
335.7113,-8.348898E-05
335.8113,-8.346921E-05
335.9113,-8.342494E-05
336.0113,-8.337975E-05
336.1113,-8.338634E-05
336.2113,-8.332795E-05
336.3113,-8.329404E-05
336.4113,-8.328745E-05
336.5113,-8.326014E-05
336.6113,-8.322907E-05
336.7113,-8.319328E-05
336.8113,-8.316126E-05
336.9113,-8.315373E-05
337.0114,-8.314619E-05
337.1114,-8.309157E-05
337.2114,-8.305767E-05
337.3114,-8.306802E-05
337.4114,-8.304637E-05
337.5114,-8.300681E-05
337.6114,-8.296256E-05
337.7114,-8.293243E-05
337.8114,-8.290982E-05
337.9114,-8.289287E-05
338.0114,-8.287874E-05
338.1114,-8.281565E-05
338.2114,-8.279116E-05
338.3114,-8.277421E-05
338.4114,-8.276103E-05
338.5114,-8.270735E-05
338.6115,-8.269039E-05
338.7115,-8.270075E-05
338.8115,-8.267344E-05
338.9115,-8.262636E-05
339.0115,-8.258963E-05
339.1115,-8.25868E-05
339.2115,-8.255008E-05
339.3115,-8.2519E-05
339.4115,-8.250205E-05
339.5115,-8.247474E-05
339.6115,-8.243613E-05
339.7115,-8.241258E-05
339.8115,-8.23994E-05
339.9115,-8.236456E-05
340.0115,-8.235326E-05
340.1115,-8.23203E-05
340.2115,-8.22864E-05
340.3116,-8.228262E-05
340.4116,-8.225531E-05
340.5116,-8.221859E-05
340.6116,-8.217528E-05
340.7116,-8.217715E-05
340.8116,-8.213666E-05
340.9116,-8.212442E-05
341.0116,-8.207168E-05
341.1116,-8.203966E-05
341.2116,-8.20359E-05
341.3116,-8.201329E-05
341.4116,-8.197374E-05
341.5116,-8.195209E-05
341.6116,-8.191817E-05
341.7116,-8.19144E-05
341.8116,-8.188051E-05
341.9117,-8.184001E-05
342.0117,-8.182588E-05
342.1117,-8.181271E-05
342.2117,-8.177126E-05
342.3117,-8.172135E-05
342.4117,-8.172607E-05
342.5117,-8.1711E-05
342.6117,-8.166673E-05
342.7117,-8.161212E-05
342.8117,-8.160646E-05
342.9117,-8.158103E-05
343.0117,-8.155467E-05
343.1117,-8.153207E-05
343.2117,-8.150288E-05
343.3117,-8.145767E-05
343.4117,-8.142376E-05
343.5117,-8.140776E-05
343.6118,-8.140023E-05
343.7118,-8.136633E-05
343.8118,-8.130982E-05
343.9118,-8.126556E-05
344.0118,-8.127874E-05
344.1118,-8.125237E-05
344.2118,-8.123447E-05
344.3118,-8.119211E-05
344.4118,-8.113183E-05
344.5118,-8.114219E-05
344.6118,-8.113842E-05
344.7118,-8.111676E-05
344.8118,-8.109416E-05
344.9118,-8.105084E-05
345.0118,-8.101976E-05
345.1118,-8.100564E-05
345.2119,-8.096325E-05
345.3119,-8.093595E-05
345.4119,-8.089451E-05
345.5119,-8.088321E-05
345.6119,-8.083142E-05
345.7119,-8.081729E-05
345.8119,-8.081447E-05
345.9119,-8.078057E-05
346.0119,-8.075702E-05
346.1119,-8.07137E-05
346.2119,-8.069957E-05
346.3119,-8.067132E-05
346.4119,-8.06346E-05
346.5119,-8.061482E-05
346.6119,-8.05941E-05
346.7119,-8.054984E-05
346.812,-8.055079E-05
346.912,-8.050369E-05
347.012,-8.050464E-05
347.112,-8.044531E-05
347.212,-8.043872E-05
347.312,-8.043872E-05
347.412,-8.037373E-05
347.512,-8.035584E-05
347.612,-8.034736E-05
347.712,-8.031346E-05
347.812,-8.028709E-05
347.912,-8.028145E-05
348.012,-8.02061E-05
348.112,-8.01901E-05
348.212,-8.021647E-05
348.312,-8.015338E-05
348.412,-8.013736E-05
348.5121,-8.011946E-05
348.6121,-8.005166E-05
348.7121,-8.003565E-05
348.8121,-8.00366E-05
348.9121,-8.00253E-05
349.0121,-7.997538E-05
349.1121,-7.993866E-05
349.2121,-7.990287E-05
349.3121,-7.988403E-05
349.4121,-7.987933E-05
349.5121,-7.983977E-05
349.6121,-7.980116E-05
349.7121,-7.979551E-05
349.8121,-7.977197E-05
349.9121,-7.974183E-05
350.0121,-7.975219E-05
350.1122,-7.970229E-05
350.2122,-7.965143E-05
350.3122,-7.964201E-05
350.4122,-7.963918E-05
350.5122,-7.961847E-05
350.6122,-7.960717E-05
350.7122,-7.955819E-05
350.8122,-7.952523E-05
350.9122,-7.952053E-05
351.0122,-7.948098E-05
351.1122,-7.94499E-05
351.2122,-7.944048E-05
351.3122,-7.942542E-05
351.4122,-7.937362E-05
351.5122,-7.935855E-05
351.6122,-7.931617E-05
351.7122,-7.930111E-05
351.8123,-7.929451E-05
351.9123,-7.925025E-05
352.0123,-7.921823E-05
352.1123,-7.922106E-05
352.2123,-7.917963E-05
352.3123,-7.915325E-05
352.4123,-7.912594E-05
352.5123,-7.910898E-05
352.6123,-7.906191E-05
352.7123,-7.906662E-05
352.8123,-7.901482E-05
352.9123,-7.899598E-05
353.0123,-7.896773E-05
353.1123,-7.894795E-05
353.2123,-7.893665E-05
353.3123,-7.892065E-05
353.4124,-7.888769E-05
353.5124,-7.884436E-05
353.6124,-7.881611E-05
353.7124,-7.879445E-05
353.8124,-7.874077E-05
353.9124,-7.87549E-05
354.0124,-7.869651E-05
354.1124,-7.866733E-05
354.2124,-7.86626E-05
354.3124,-7.864378E-05
354.4124,-7.862682E-05
354.5124,-7.858821E-05
354.6124,-7.857974E-05
354.7124,-7.851758E-05
354.8124,-7.854206E-05
354.9124,-7.84752E-05
355.0125,-7.844414E-05
355.1125,-7.843754E-05
355.2125,-7.843188E-05
355.3125,-7.836785E-05
355.4125,-7.835655E-05
355.5125,-7.834995E-05
355.6125,-7.833018E-05
355.7125,-7.831887E-05
355.8125,-7.827462E-05
355.9125,-7.824071E-05
356.0125,-7.824071E-05
356.1125,-7.820586E-05
356.2125,-7.817009E-05
356.3125,-7.813713E-05
356.4125,-7.810887E-05
356.5125,-7.807403E-05
356.6125,-7.806649E-05
356.7126,-7.803918E-05
356.8126,-7.799681E-05
356.9126,-7.799398E-05
357.0126,-7.796007E-05
357.1126,-7.793371E-05
357.2126,-7.791299E-05
357.3126,-7.787815E-05
357.4126,-7.788945E-05
357.5126,-7.787532E-05
357.6126,-7.783577E-05
357.7126,-7.778586E-05
357.8126,-7.778962E-05
357.9126,-7.774348E-05
358.0126,-7.771523E-05
358.1126,-7.769639E-05
358.2126,-7.766909E-05
358.3127,-7.765496E-05
358.4127,-7.764836E-05
358.5127,-7.760034E-05
358.6127,-7.756172E-05
358.7127,-7.755795E-05
358.8127,-7.755795E-05
358.9127,-7.749298E-05
359.0127,-7.747037E-05
359.1127,-7.745908E-05
359.2127,-7.744307E-05
359.3127,-7.742988E-05
359.4127,-7.737245E-05
359.5127,-7.733477E-05
359.6127,-7.731783E-05
359.7127,-7.731688E-05
359.8127,-7.728957E-05
359.9128,-7.725944E-05
360.0128,-7.723401E-05
360.1128,-7.719916E-05
360.2128,-7.718786E-05
360.3128,-7.71662E-05
360.4128,-7.715019E-05
360.5128,-7.7137E-05
360.6128,-7.71097E-05
360.7128,-7.708333E-05
360.8128,-7.706826E-05
360.9128,-7.701929E-05
361.0128,-7.700893E-05
361.1128,-7.699763E-05
361.2128,-7.698256E-05
361.3128,-7.693453E-05
361.4128,-7.691099E-05
361.5128,-7.690063E-05
361.6129,-7.689311E-05
361.7129,-7.685072E-05
361.8129,-7.683094E-05
361.9129,-7.67961E-05
362.0129,-7.680929E-05
362.1129,-7.679139E-05
362.2129,-7.672076E-05
362.3129,-7.669627E-05
362.4129,-7.669062E-05
362.5129,-7.666708E-05
362.6129,-7.66313E-05
362.7129,-7.659457E-05
362.8129,-7.658232E-05
362.9129,-7.655031E-05
363.0129,-7.655691E-05
363.1129,-7.651358E-05
363.213,-7.649192E-05
363.313,-7.647874E-05
363.413,-7.644012E-05
363.513,-7.641093E-05
363.613,-7.640434E-05
363.713,-7.638927E-05
363.813,-7.636385E-05
363.913,-7.63356E-05
364.013,-7.629698E-05
364.113,-7.62612E-05
364.213,-7.628286E-05
364.313,-7.623388E-05
364.413,-7.618868E-05
364.513,-7.618868E-05
364.613,-7.615383E-05
364.713,-7.615195E-05
364.813,-7.613123E-05
364.9131,-7.609168E-05
365.0131,-7.605779E-05
365.1131,-7.605214E-05
365.2131,-7.602576E-05
365.3131,-7.600034E-05
365.4131,-7.597679E-05
365.5131,-7.593347E-05
365.6131,-7.589957E-05
365.7131,-7.5925E-05
365.8131,-7.589863E-05
365.9131,-7.585436E-05
366.0131,-7.582611E-05
366.1131,-7.579975E-05
366.2131,-7.578091E-05
366.3131,-7.579221E-05
366.4131,-7.574795E-05
366.5132,-7.570934E-05
366.6132,-7.569993E-05
366.7132,-7.565849E-05
366.8132,-7.564436E-05
366.9132,-7.564812E-05
367.0132,-7.562082E-05
367.1132,-7.559068E-05
367.2132,-7.55709E-05
367.3132,-7.553701E-05
367.4132,-7.552382E-05
367.5132,-7.5521E-05
367.6132,-7.546355E-05
367.7132,-7.541458E-05
367.8132,-7.545507E-05
367.9132,-7.54513E-05
368.0132,-7.538633E-05
368.1133,-7.537785E-05
368.2133,-7.533358E-05
368.3133,-7.531287E-05
368.4133,-7.532512E-05
368.5133,-7.528367E-05
368.6133,-7.523376E-05
368.7133,-7.523942E-05
368.8133,-7.519327E-05
368.9133,-7.517726E-05
369.0133,-7.517068E-05
369.1133,-7.513677E-05
369.2133,-7.510099E-05
369.3133,-7.509628E-05
369.4133,-7.508026E-05
369.5133,-7.504166E-05
369.6133,-7.505296E-05
369.7133,-7.498138E-05
369.8134,-7.496537E-05
369.9134,-7.497196E-05
370.0134,-7.495406E-05
370.1134,-7.489946E-05
370.2134,-7.488344E-05
370.3134,-7.486837E-05
370.4134,-7.484954E-05
370.5134,-7.483729E-05
370.6134,-7.480339E-05
370.7134,-7.476667E-05
370.8134,-7.476479E-05
370.9134,-7.47224E-05
371.0134,-7.470357E-05
371.1134,-7.469227E-05
371.2134,-7.465743E-05
371.3134,-7.46207E-05
371.4135,-7.462447E-05
371.5135,-7.460939E-05
371.6135,-7.458303E-05
371.7135,-7.456703E-05
371.8135,-7.452276E-05
371.9135,-7.44898E-05
372.0135,-7.449921E-05
372.1135,-7.449357E-05
372.2135,-7.44559E-05
372.3135,-7.443518E-05
372.4135,-7.439186E-05
372.5135,-7.436549E-05
372.6135,-7.437209E-05
372.7135,-7.433818E-05
372.8135,-7.429392E-05
372.9135,-7.430333E-05
373.0135,-7.427038E-05
373.1136,-7.426943E-05
373.2136,-7.424401E-05
373.3136,-7.421576E-05
373.4136,-7.417432E-05
373.5136,-7.41536E-05
373.6136,-7.413288E-05
373.7136,-7.411405E-05
373.8136,-7.411875E-05
373.9136,-7.407543E-05
374.0136,-7.403118E-05
374.1136,-7.404718E-05
374.2136,-7.401611E-05
374.3136,-7.400857E-05
374.4136,-7.39888E-05
374.5136,-7.394548E-05
374.6136,-7.391534E-05
374.7137,-7.39031E-05
374.8137,-7.389463E-05
374.9137,-7.385224E-05
375.0137,-7.38287E-05
375.1137,-7.378821E-05
375.2137,-7.378727E-05
375.3137,-7.379385E-05
375.4137,-7.375431E-05
375.5137,-7.372794E-05
375.6137,-7.370251E-05
375.7137,-7.367708E-05
375.8137,-7.364883E-05
375.9137,-7.364224E-05
376.0137,-7.364318E-05
376.1137,-7.359704E-05
376.2137,-7.357161E-05
376.3138,-7.353018E-05
376.4138,-7.352735E-05
376.5138,-7.3549E-05
376.6138,-7.349344E-05
376.7138,-7.344166E-05
376.8138,-7.342658E-05
376.9138,-7.340962E-05
377.0138,-7.338516E-05
377.1138,-7.336443E-05
377.2138,-7.332487E-05
377.3138,-7.328626E-05
377.4138,-7.331169E-05
377.5138,-7.328344E-05
377.6138,-7.324578E-05
377.7138,-7.322882E-05
377.8138,-7.320622E-05
377.9138,-7.319021E-05
378.0139,-7.319303E-05
378.1139,-7.313841E-05
378.2139,-7.310735E-05
378.3139,-7.309509E-05
378.4139,-7.308097E-05
378.5139,-7.307249E-05
378.6139,-7.303765E-05
378.7139,-7.301223E-05
378.8139,-7.298397E-05
378.9139,-7.296797E-05
379.0139,-7.296042E-05
379.1139,-7.291899E-05
379.2139,-7.290769E-05
379.3139,-7.288509E-05
379.4139,-7.284647E-05
379.5139,-7.28446E-05
379.614,-7.282105E-05
379.714,-7.27994E-05
379.814,-7.278621E-05
379.914,-7.274665E-05
380.014,-7.270522E-05
380.114,-7.272499E-05
380.214,-7.268639E-05
380.314,-7.267132E-05
380.414,-7.266661E-05
380.514,-7.261858E-05
380.614,-7.259503E-05
380.714,-7.259409E-05
380.814,-7.25536E-05
380.914,-7.25423E-05
381.014,-7.254325E-05
381.114,-7.250369E-05
381.2141,-7.247638E-05
381.3141,-7.245943E-05
381.4141,-7.242552E-05
381.5141,-7.240858E-05
381.6141,-7.239915E-05
381.7141,-7.238879E-05
381.8141,-7.233982E-05
381.9141,-7.230216E-05
382.0141,-7.229462E-05
382.1141,-7.227767E-05
382.2141,-7.228426E-05
382.3141,-7.22513E-05
382.4141,-7.222775E-05
382.5141,-7.220516E-05
382.6141,-7.217313E-05
382.7141,-7.21543E-05
382.8141,-7.216466E-05
382.9142,-7.215619E-05
383.0142,-7.209121E-05
383.1142,-7.210628E-05
383.2142,-7.210157E-05
383.3142,-7.205919E-05
383.4142,-7.204225E-05
383.5142,-7.205636E-05
383.6142,-7.202152E-05
383.7142,-7.199421E-05
383.8142,-7.195466E-05
383.9142,-7.193394E-05
384.0142,-7.193394E-05
384.1142,-7.190758E-05
384.2142,-7.189438E-05
384.3142,-7.186425E-05
384.4142,-7.186613E-05
384.5143,-7.185483E-05
384.6143,-7.181623E-05
384.7143,-7.178515E-05
384.8143,-7.176255E-05
384.9143,-7.173618E-05
385.0143,-7.174089E-05
385.1143,-7.169756E-05
385.2143,-7.166273E-05
385.3143,-7.167685E-05
385.4143,-7.165613E-05
385.5143,-7.162223E-05
385.6143,-7.161374E-05
385.7143,-7.158267E-05
385.8143,-7.155442E-05
385.9143,-7.15516E-05
386.0143,-7.151392E-05
386.1143,-7.149321E-05
386.2144,-7.149886E-05
386.3144,-7.144801E-05
386.4144,-7.141976E-05
386.5144,-7.142352E-05
386.6144,-7.142258E-05
386.7144,-7.140092E-05
386.8144,-7.13802E-05
386.9144,-7.133123E-05
387.0144,-7.132182E-05
387.1144,-7.133594E-05
387.2144,-7.128603E-05
387.3144,-7.125872E-05
387.4144,-7.12672E-05
387.5144,-7.122576E-05
387.6144,-7.11928E-05
387.7144,-7.119751E-05
387.8145,-7.118244E-05
387.9145,-7.114948E-05
388.0145,-7.1141E-05
388.1145,-7.108356E-05
388.2145,-7.109014E-05
388.3145,-7.108638E-05
388.4145,-7.103647E-05
388.5145,-7.101104E-05
388.6145,-7.102612E-05
388.7145,-7.102234E-05
388.8145,-7.098279E-05
388.9145,-7.096113E-05
389.0145,-7.089333E-05
389.1145,-7.089521E-05
389.2145,-7.093005E-05
389.3145,-7.087355E-05
389.4146,-7.082458E-05
389.5146,-7.082082E-05
389.6146,-7.08048E-05
389.7146,-7.07822E-05
389.8146,-7.075584E-05
389.9146,-7.07257E-05
390.0146,-7.069086E-05
390.1146,-7.070498E-05
390.2146,-7.067955E-05
390.3146,-7.065601E-05
390.4146,-7.063058E-05
390.5146,-7.05882E-05
390.6146,-7.058255E-05
390.7146,-7.057691E-05
390.8146,-7.054206E-05
390.9146,-7.052605E-05
391.0146,-7.050062E-05
391.1147,-7.047896E-05
391.2147,-7.044036E-05
391.3147,-7.046673E-05
391.4147,-7.044036E-05
391.5147,-7.041775E-05
391.6147,-7.040174E-05
391.7147,-7.036125E-05
391.8147,-7.036407E-05
391.9147,-7.036314E-05
392.0147,-7.032546E-05
392.1147,-7.029721E-05
392.2147,-7.028685E-05
392.3147,-7.025107E-05
392.4147,-7.024071E-05
392.5147,-7.024071E-05
392.6147,-7.017855E-05
392.7148,-7.015124E-05
392.8148,-7.017385E-05
392.9148,-7.015595E-05
393.0148,-7.012486E-05
393.1148,-7.010604E-05
393.2148,-7.005989E-05
393.3148,-7.005519E-05
393.4148,-7.006648E-05
393.5148,-7.001187E-05
393.6148,-6.999115E-05
393.7148,-7.000057E-05
393.8148,-6.995536E-05
393.9148,-6.992522E-05
394.0148,-6.992334E-05
394.1148,-6.989509E-05
394.2148,-6.98998E-05
394.3148,-6.987154E-05
394.4149,-6.983294E-05
394.5149,-6.982635E-05
394.6149,-6.979809E-05
394.7149,-6.97736E-05
394.8149,-6.971899E-05
394.9149,-6.976137E-05
395.0149,-6.972181E-05
395.1149,-6.965966E-05
395.2149,-6.966719E-05
395.3149,-6.96719E-05
395.4149,-6.963706E-05
395.5149,-6.957773E-05
395.6149,-6.961634E-05
395.7149,-6.960598E-05
395.8149,-6.958055E-05
395.9149,-6.954101E-05
396.015,-6.950993E-05
396.115,-6.950709E-05
396.215,-6.949579E-05
396.315,-6.946754E-05
396.415,-6.94553E-05
396.515,-6.941293E-05
396.615,-6.939787E-05
396.715,-6.938844E-05
396.815,-6.938185E-05
396.915,-6.93423E-05
397.015,-6.931875E-05
397.115,-6.928014E-05
397.215,-6.926884E-05
397.315,-6.925377E-05
397.415,-6.924906E-05
397.515,-6.923683E-05
397.6151,-6.921798E-05
397.7151,-6.918408E-05
397.8151,-6.917467E-05
397.9151,-6.915866E-05
398.0151,-6.915395E-05
398.1151,-6.912005E-05
398.2151,-6.910498E-05
398.3151,-6.90739E-05
398.4151,-6.906637E-05
398.5151,-6.907013E-05
398.6151,-6.902775E-05
398.7151,-6.901269E-05
398.8151,-6.90287E-05
398.9151,-6.899574E-05
399.0151,-6.896465E-05
399.1151,-6.894394E-05
399.2151,-6.894488E-05
399.3152,-6.891381E-05
399.4152,-6.888932E-05
399.5152,-6.887237E-05
399.6152,-6.889309E-05
399.7152,-6.885071E-05
399.8152,-6.883565E-05
399.9152,-6.883658E-05
400.0152,-6.882246E-05
400.1152,-6.879326E-05
400.2152,-6.880174E-05
400.3152,-6.875183E-05
400.4152,-6.874523E-05
400.5152,-6.870663E-05
400.6152,-6.871416E-05
400.7152,-6.86812E-05
400.8152,-6.863222E-05
400.9153,-6.860116E-05
401.0153,-6.861905E-05
401.1153,-6.858514E-05
401.2153,-6.857666E-05
401.3153,-6.855407E-05
401.4153,-6.851169E-05
401.5153,-6.848815E-05
401.6153,-6.851827E-05
401.7153,-6.845895E-05
401.8153,-6.84712E-05
401.9153,-6.847967E-05
402.0153,-6.841092E-05
402.1153,-6.839492E-05
402.2153,-6.838456E-05
402.3153,-6.837137E-05
402.4153,-6.836572E-05
402.5154,-6.835536E-05
402.6154,-6.829602E-05
402.7154,-6.830545E-05
402.8154,-6.832146E-05
402.9154,-6.823482E-05
403.0154,-6.825554E-05
403.1154,-6.828096E-05
403.2154,-6.823482E-05
403.3154,-6.819904E-05
403.4154,-6.818396E-05
403.5154,-6.818396E-05
403.6154,-6.816984E-05
403.7154,-6.814724E-05
403.8154,-6.811522E-05
403.9154,-6.807567E-05
404.0154,-6.809921E-05
404.1154,-6.805118E-05
404.2155,-6.803329E-05
404.3155,-6.802764E-05
404.4155,-6.800597E-05
404.5155,-6.797961E-05
404.6155,-6.798808E-05
404.7155,-6.796455E-05
404.8155,-6.792216E-05
404.9155,-6.79231E-05
405.0155,-6.788544E-05
405.1155,-6.785907E-05
405.2155,-6.786754E-05
405.3155,-6.783082E-05
405.4155,-6.780539E-05
405.5155,-6.778467E-05
405.6155,-6.778278E-05
405.7155,-6.776961E-05
405.8156,-6.773005E-05
405.9156,-6.770086E-05
406.0156,-6.768391E-05
406.1156,-6.768014E-05
406.2156,-6.765942E-05
406.3156,-6.7634E-05
406.4156,-6.761515E-05
406.5156,-6.758502E-05
406.6156,-6.756619E-05
406.7156,-6.758409E-05
406.8156,-6.754736E-05
406.9156,-6.749838E-05
407.0156,-6.749086E-05
407.1156,-6.747861E-05
407.2156,-6.747296E-05
407.3156,-6.746166E-05
407.4156,-6.742587E-05
407.5157,-6.737973E-05
407.6157,-6.740986E-05
407.7157,-6.739856E-05
407.8157,-6.735807E-05
407.9157,-6.733075E-05
408.0157,-6.729027E-05
408.1157,-6.731192E-05
408.2157,-6.730628E-05
408.3157,-6.724506E-05
408.4157,-6.722528E-05
408.5157,-6.726108E-05
408.6157,-6.722811E-05
408.7157,-6.719609E-05
408.8157,-6.716972E-05
408.9157,-6.717254E-05
409.0157,-6.715277E-05
409.1158,-6.714335E-05
409.2158,-6.708309E-05
409.3158,-6.708119E-05
409.4158,-6.707743E-05
409.5158,-6.7052E-05
409.6158,-6.701057E-05
409.7158,-6.70068E-05
409.8158,-6.697384E-05
409.9158,-6.695595E-05
410.0158,-6.69729E-05
410.1158,-6.693523E-05
410.2158,-6.69051E-05
410.3158,-6.689851E-05
410.4158,-6.687402E-05
410.5158,-6.685706E-05
410.6158,-6.683729E-05
410.7159,-6.67789E-05
410.8159,-6.678644E-05
410.9159,-6.680056E-05
411.0159,-6.678172E-05
411.1159,-6.674688E-05
411.2159,-6.673276E-05
411.3159,-6.671863E-05
411.4159,-6.668943E-05
411.5159,-6.668943E-05
411.6159,-6.666683E-05
411.7159,-6.666966E-05
411.8159,-6.663105E-05
411.9159,-6.659621E-05
412.0159,-6.66141E-05
412.1159,-6.661504E-05
412.2159,-6.655853E-05
412.3159,-6.652652E-05
412.416,-6.655006E-05
412.516,-6.653311E-05
412.616,-6.650014E-05
412.716,-6.647567E-05
412.816,-6.645777E-05
412.916,-6.643517E-05
413.016,-6.645212E-05
413.116,-6.641727E-05
413.216,-6.638714E-05
413.316,-6.636643E-05
413.416,-6.636171E-05
413.516,-6.63184E-05
413.616,-6.632593E-05
413.716,-6.630804E-05
413.816,-6.628826E-05
413.916,-6.627884E-05
414.0161,-6.625248E-05
414.1161,-6.624399E-05
414.2161,-6.626001E-05
414.3161,-6.623835E-05
414.4161,-6.620256E-05
414.5161,-6.618561E-05
414.6161,-6.616678E-05
414.7161,-6.612722E-05
414.8161,-6.614606E-05
414.9161,-6.613099E-05
415.0161,-6.610556E-05
415.1161,-6.608391E-05
415.2161,-6.604059E-05
415.3161,-6.604341E-05
415.4161,-6.605942E-05
415.5161,-6.601328E-05
415.6161,-6.601421E-05
415.7162,-6.598032E-05
415.8162,-6.5953E-05
415.9162,-6.592381E-05
416.0162,-6.595207E-05
416.1162,-6.591062E-05
416.2162,-6.587955E-05
416.3162,-6.586919E-05
416.4162,-6.583717E-05
416.5162,-6.584753E-05
416.6162,-6.58447E-05
416.7162,-6.580516E-05
416.8162,-6.578161E-05
416.9162,-6.576184E-05
417.0162,-6.573546E-05
417.1162,-6.570627E-05
417.2162,-6.571662E-05
417.3163,-6.570156E-05
417.4163,-6.566766E-05
417.5163,-6.566202E-05
417.6163,-6.562434E-05
417.7163,-6.562998E-05
417.8163,-6.562622E-05
417.9163,-6.557914E-05
418.0163,-6.555654E-05
418.1163,-6.555842E-05
418.2163,-6.553864E-05
418.3163,-6.551416E-05
418.4163,-6.550662E-05
418.5163,-6.545954E-05
418.6163,-6.545954E-05
418.7163,-6.546613E-05
418.8163,-6.545106E-05
418.9164,-6.540021E-05
419.0164,-6.539173E-05
419.1164,-6.537289E-05
419.2164,-6.536066E-05
419.3164,-6.533429E-05
419.4164,-6.529285E-05
419.5164,-6.531733E-05
419.6164,-6.532958E-05
419.7164,-6.528344E-05
419.8164,-6.524388E-05
419.9164,-6.525235E-05
420.0164,-6.524671E-05
420.1164,-6.521563E-05
420.2164,-6.518549E-05
420.3164,-6.517419E-05
420.4164,-6.515064E-05
420.5164,-6.516007E-05
420.6165,-6.511863E-05
420.7165,-6.509697E-05
420.8165,-6.510262E-05
420.9165,-6.508661E-05
421.0165,-6.504706E-05
421.1165,-6.502916E-05
421.2165,-6.503293E-05
421.3165,-6.501881E-05
421.4165,-6.500186E-05
421.5165,-6.49802E-05
421.6165,-6.492934E-05
421.7165,-6.495006E-05
421.8165,-6.494159E-05
421.9165,-6.491334E-05
422.0165,-6.487378E-05
422.1165,-6.485872E-05
422.2166,-6.485118E-05
422.3166,-6.483329E-05
422.4166,-6.484552E-05
422.5166,-6.480503E-05
422.6166,-6.478337E-05
422.7166,-6.478055E-05
422.8166,-6.475417E-05
422.9166,-6.475512E-05
423.0166,-6.474194E-05
423.1166,-6.470238E-05
423.2166,-6.468355E-05
423.3166,-6.466283E-05
423.4166,-6.465436E-05
423.5166,-6.465342E-05
423.6166,-6.462045E-05
423.7166,-6.458278E-05
423.8167,-6.458373E-05
423.9167,-6.459785E-05
424.0167,-6.455641E-05
424.1167,-6.454982E-05
424.2167,-6.454606E-05
424.3167,-6.451498E-05
424.4167,-6.449426E-05
424.5167,-6.447543E-05
424.6167,-6.445282E-05
424.7167,-6.445E-05
424.8167,-6.444906E-05
424.9167,-6.438314E-05
425.0167,-6.439255E-05
425.1167,-6.43709E-05
425.2167,-6.435772E-05
425.3167,-6.436148E-05
425.4167,-6.431816E-05
425.5168,-6.428991E-05
425.6168,-6.429085E-05
425.7168,-6.426825E-05
425.8168,-6.426072E-05
425.9168,-6.425412E-05
426.0168,-6.42221E-05
426.1168,-6.419291E-05
426.2168,-6.41995E-05
426.3168,-6.418161E-05
426.4168,-6.417972E-05
426.5168,-6.414771E-05
426.6168,-6.41364E-05
426.7168,-6.41025E-05
426.8168,-6.409026E-05
426.9168,-6.409026E-05
427.0168,-6.406767E-05
427.1169,-6.404882E-05
427.2169,-6.401963E-05
427.3169,-6.402904E-05
427.4169,-6.399985E-05
427.5169,-6.399891E-05
427.6169,-6.396972E-05
427.7169,-6.395466E-05
427.8169,-6.393958E-05
427.9169,-6.392452E-05
428.0169,-6.391039E-05
428.1169,-6.389909E-05
428.2169,-6.38859E-05
428.3169,-6.38699E-05
428.4169,-6.386707E-05
428.5169,-6.386707E-05
428.6169,-6.382469E-05
428.7169,-6.382563E-05
428.817,-6.378419E-05
428.917,-6.377949E-05
429.017,-6.37663E-05
429.117,-6.374464E-05
429.217,-6.370791E-05
429.317,-6.372581E-05
429.417,-6.370038E-05
429.517,-6.368249E-05
429.617,-6.366082E-05
429.717,-6.363729E-05
429.817,-6.362034E-05
429.917,-6.361092E-05
430.017,-6.35855E-05
430.117,-6.359397E-05
430.217,-6.35723E-05
430.317,-6.351486E-05
430.4171,-6.355064E-05
430.5171,-6.356854E-05
430.6171,-6.351674E-05
430.7171,-6.349979E-05
430.8171,-6.347532E-05
430.9171,-6.347532E-05
431.0171,-6.343952E-05
431.1171,-6.346118E-05
431.2171,-6.342257E-05
431.3171,-6.339997E-05
431.4171,-6.341033E-05
431.5171,-6.336324E-05
431.6171,-6.335948E-05
431.7171,-6.334911E-05
431.8171,-6.33576E-05
431.9171,-6.332839E-05
432.0172,-6.332463E-05
432.1172,-6.327943E-05
432.2172,-6.32606E-05
432.3172,-6.326342E-05
432.4172,-6.324835E-05
432.5172,-6.321633E-05
432.6172,-6.321162E-05
432.7172,-6.317018E-05
432.8172,-6.317866E-05
432.9172,-6.31862E-05
433.0172,-6.314852E-05
433.1172,-6.312592E-05
433.2172,-6.310709E-05
433.3172,-6.31231E-05
433.4172,-6.309956E-05
433.5172,-6.307413E-05
433.6172,-6.303834E-05
433.7173,-6.305906E-05
433.8173,-6.306283E-05
433.9173,-6.304117E-05
434.0173,-6.300068E-05
434.1173,-6.297432E-05
434.2173,-6.299879E-05
434.3173,-6.297149E-05
434.4173,-6.297149E-05
434.5173,-6.291875E-05
434.6173,-6.289237E-05
434.7173,-6.288485E-05
434.8173,-6.288297E-05
434.9173,-6.286695E-05
435.0173,-6.28387E-05
435.1173,-6.282458E-05
435.2173,-6.280103E-05
435.3174,-6.281609E-05
435.4174,-6.278219E-05
435.5174,-6.275489E-05
435.6174,-6.274736E-05
435.7174,-6.273981E-05
435.8174,-6.272663E-05
435.9174,-6.272287E-05
436.0174,-6.268048E-05
436.1174,-6.263811E-05
436.2174,-6.26626E-05
436.3174,-6.269556E-05
436.4174,-6.26334E-05
436.5174,-6.26334E-05
436.6174,-6.261927E-05
436.7174,-6.261174E-05
436.8174,-6.261174E-05
436.9174,-6.257502E-05
437.0175,-6.25364E-05
437.1175,-6.253923E-05
437.2175,-6.253075E-05
437.3175,-6.248555E-05
437.4175,-6.247896E-05
437.5175,-6.244694E-05
437.6175,-6.24281E-05
437.7175,-6.242528E-05
437.8175,-6.242339E-05
437.9175,-6.239043E-05
438.0175,-6.236312E-05
438.1175,-6.235277E-05
438.2175,-6.232451E-05
438.3175,-6.233016E-05
438.4175,-6.231227E-05
438.5175,-6.227366E-05
438.6176,-6.227742E-05
438.7176,-6.224918E-05
438.8176,-6.222846E-05
438.9176,-6.22341E-05
439.0176,-6.221621E-05
439.1176,-6.218608E-05
439.2176,-6.218043E-05
439.3176,-6.214747E-05
439.4176,-6.212769E-05
439.5176,-6.214841E-05
439.6176,-6.210886E-05
439.7176,-6.208437E-05
439.8176,-6.208532E-05
439.9176,-6.206742E-05
440.0176,-6.205236E-05
440.1176,-6.202598E-05
440.2177,-6.200338E-05
440.3177,-6.19789E-05
440.4177,-6.198549E-05
440.5177,-6.199114E-05
440.6177,-6.194971E-05
440.7177,-6.194405E-05
440.8177,-6.189603E-05
440.9177,-6.19045E-05
441.0177,-6.192333E-05
441.1177,-6.188755E-05
441.2177,-6.185742E-05
441.3177,-6.185742E-05
441.4177,-6.185742E-05
441.5177,-6.182257E-05
441.6177,-6.182069E-05
441.7177,-6.180185E-05
441.8177,-6.177078E-05
441.9178,-6.176795E-05
442.0178,-6.175665E-05
442.1178,-6.173782E-05
442.2178,-6.17058E-05
442.3178,-6.168602E-05
442.4178,-6.167754E-05
442.5178,-6.167943E-05
442.6178,-6.162951E-05
442.7178,-6.160032E-05
442.8178,-6.161915E-05
442.9178,-6.160692E-05
443.0178,-6.154099E-05
443.1178,-6.156454E-05
443.2178,-6.156359E-05
443.3178,-6.152687E-05
443.4178,-6.151933E-05
443.5179,-6.152404E-05
443.6179,-6.151274E-05
443.7179,-6.150144E-05
443.8179,-6.145153E-05
443.9179,-6.144682E-05
444.0179,-6.143458E-05
444.1179,-6.141574E-05
444.2179,-6.138373E-05
444.3179,-6.137525E-05
444.4179,-6.137808E-05
444.5179,-6.131968E-05
444.6179,-6.132722E-05
444.7179,-6.134605E-05
444.8179,-6.135641E-05
444.9179,-6.128767E-05
445.0179,-6.129143E-05
445.118,-6.127825E-05
445.218,-6.125189E-05
445.318,-6.126506E-05
445.418,-6.125376E-05
445.518,-6.124435E-05
445.618,-6.122834E-05
445.718,-6.119255E-05
445.818,-6.117654E-05
445.918,-6.118313E-05
446.018,-6.116618E-05
446.118,-6.114547E-05
446.218,-6.112663E-05
446.318,-6.11078E-05
446.418,-6.108708E-05
446.518,-6.107578E-05
446.618,-6.106165E-05
446.718,-6.103623E-05
446.8181,-6.104282E-05
446.9181,-6.100232E-05
447.0181,-6.099856E-05
447.1181,-6.098725E-05
447.2181,-6.097784E-05
447.3181,-6.097219E-05
447.4181,-6.096277E-05
447.5181,-6.092604E-05
447.6181,-6.090627E-05
447.7181,-6.092133E-05
447.8181,-6.09025E-05
447.9181,-6.088178E-05
448.0181,-6.086012E-05
448.1181,-6.08234E-05
448.2181,-6.082434E-05
448.3181,-6.083846E-05
448.4182,-6.079514E-05
448.5182,-6.079608E-05
448.6182,-6.077536E-05
448.7182,-6.074429E-05
448.8182,-6.073393E-05
448.9182,-6.074147E-05
449.0182,-6.071604E-05
449.1182,-6.070003E-05
449.2182,-6.07085E-05
449.3182,-6.068308E-05
449.4182,-6.064447E-05
449.5182,-6.063881E-05
449.6182,-6.06341E-05
449.7182,-6.059832E-05
449.8182,-6.062563E-05
449.9182,-6.056159E-05
450.0182,-6.053523E-05
450.1183,-6.058419E-05
450.2183,-6.056724E-05
450.3183,-6.05324E-05
450.4183,-6.05211E-05
450.5183,-6.051356E-05
450.6183,-6.050509E-05
450.7183,-6.048249E-05
450.8183,-6.047401E-05
450.9183,-6.045329E-05
451.0183,-6.044576E-05
451.1183,-6.042033E-05
451.2183,-6.042033E-05
451.3183,-6.042222E-05
451.4183,-6.039585E-05
451.5183,-6.036194E-05
451.6183,-6.036477E-05
451.7184,-6.033464E-05
451.8184,-6.031298E-05
451.9184,-6.030544E-05
452.0184,-6.030073E-05
452.1184,-6.027719E-05
452.2184,-6.02593E-05
452.3184,-6.024894E-05
452.4184,-6.023764E-05
452.5184,-6.024611E-05
452.6184,-6.021032E-05
452.7184,-6.017925E-05
452.8184,-6.019054E-05
452.9184,-6.019054E-05
453.0184,-6.012651E-05
453.1184,-6.014252E-05
453.2184,-6.016324E-05
453.3185,-6.012369E-05
453.4185,-6.007754E-05
453.5185,-6.009449E-05
453.6185,-6.008037E-05
453.7185,-6.007943E-05
453.8185,-6.005117E-05
453.9185,-6.002198E-05
454.0185,-6.001068E-05
454.1185,-6.002293E-05
454.2185,-6.00022E-05
454.3185,-6.000503E-05
454.4185,-5.998337E-05
454.5185,-5.998054E-05
454.6185,-5.992781E-05
454.7185,-5.993346E-05
454.8185,-5.991745E-05
454.9185,-5.989673E-05
455.0186,-5.990709E-05
455.1186,-5.986377E-05
455.2186,-5.984117E-05
455.3186,-5.986377E-05
455.4186,-5.982705E-05
455.5186,-5.980538E-05
455.6186,-5.981386E-05
455.7186,-5.977713E-05
455.8186,-5.976112E-05
455.9186,-5.976112E-05
456.0186,-5.972816E-05
456.1186,-5.974323E-05
456.2186,-5.97291E-05
456.3186,-5.968484E-05
456.4186,-5.96613E-05
456.5186,-5.969332E-05
456.6187,-5.96613E-05
456.7187,-5.964058E-05
456.8187,-5.962834E-05
456.9187,-5.961892E-05
457.0187,-5.960102E-05
457.1187,-5.960762E-05
457.2187,-5.958502E-05
457.3187,-5.955205E-05
457.4187,-5.956995E-05
457.5187,-5.955112E-05
457.6187,-5.952946E-05
457.7187,-5.951439E-05
457.8187,-5.949179E-05
457.9187,-5.949649E-05
458.0187,-5.949838E-05
458.1187,-5.946824E-05
458.2188,-5.942775E-05
458.3188,-5.942681E-05
458.4188,-5.942869E-05
458.5188,-5.93995E-05
458.6188,-5.939479E-05
458.7188,-5.937501E-05
458.8188,-5.935618E-05
458.9188,-5.935053E-05
459.0188,-5.931756E-05
459.1188,-5.931286E-05
459.2188,-5.930532E-05
459.3188,-5.928743E-05
459.4188,-5.926106E-05
459.5188,-5.927707E-05
459.6188,-5.926482E-05
459.7188,-5.92394E-05
459.8188,-5.923563E-05
459.9189,-5.921868E-05
460.0189,-5.920267E-05
460.1189,-5.920079E-05
460.2189,-5.917819E-05
460.3189,-5.915559E-05
460.4189,-5.91716E-05
460.5189,-5.914429E-05
460.6189,-5.912074E-05
460.7189,-5.912828E-05
460.8189,-5.911321E-05
460.9189,-5.910473E-05
461.0189,-5.910191E-05
461.1189,-5.907743E-05
461.2189,-5.903222E-05
461.3189,-5.905105E-05
461.4189,-5.905482E-05
461.519,-5.903128E-05
461.619,-5.900114E-05
461.719,-5.898231E-05
461.819,-5.897101E-05
461.919,-5.89889E-05
462.019,-5.895877E-05
462.119,-5.89258E-05
462.219,-5.894464E-05
462.319,-5.891639E-05
462.419,-5.892016E-05
462.519,-5.892957E-05
462.619,-5.889002E-05
462.719,-5.886836E-05
462.819,-5.886836E-05
462.919,-5.885141E-05
463.019,-5.882692E-05
463.119,-5.882128E-05
463.2191,-5.880903E-05
463.3191,-5.880432E-05
463.4191,-5.87949E-05
463.5191,-5.879208E-05
463.6191,-5.876477E-05
463.7191,-5.875535E-05
463.8191,-5.875064E-05
463.9191,-5.872898E-05
464.0191,-5.871768E-05
464.1191,-5.871015E-05
464.2191,-5.869132E-05
464.3191,-5.869414E-05
464.4191,-5.866589E-05
464.5191,-5.865835E-05
464.6191,-5.865929E-05
464.7191,-5.866495E-05
464.8192,-5.857171E-05
464.9192,-5.862163E-05
465.0192,-5.863292E-05
465.1192,-5.863763E-05
465.2192,-5.859902E-05
465.3192,-5.859432E-05
465.4192,-5.85849E-05
465.5192,-5.855947E-05
465.6192,-5.854723E-05
465.7192,-5.852745E-05
465.8192,-5.852368E-05
465.9192,-5.850956E-05
466.0192,-5.84879E-05
466.1192,-5.846247E-05
466.2192,-5.847377E-05
466.3192,-5.845588E-05
466.4193,-5.845494E-05
466.5193,-5.84248E-05
466.6193,-5.838902E-05
466.7193,-5.840597E-05
466.8193,-5.840691E-05
466.9193,-5.837018E-05
467.0193,-5.835135E-05
467.1193,-5.837489E-05
467.2193,-5.839278E-05
467.3193,-5.835982E-05
467.4193,-5.833534E-05
467.5193,-5.832404E-05
467.6193,-5.831839E-05
467.7193,-5.832498E-05
467.8193,-5.830332E-05
467.9193,-5.828354E-05
468.0193,-5.827695E-05
468.1194,-5.82487E-05
468.2194,-5.824587E-05
468.3194,-5.823175E-05
468.4194,-5.823081E-05
468.5194,-5.821103E-05
468.6194,-5.821197E-05
468.7194,-5.819596E-05
468.8194,-5.818937E-05
468.9194,-5.820161E-05
469.0194,-5.818089E-05
469.1194,-5.814699E-05
469.2194,-5.815358E-05
469.3194,-5.812721E-05
469.4194,-5.813286E-05
469.5194,-5.812533E-05
469.6194,-5.807919E-05
469.7195,-5.807071E-05
469.8195,-5.810273E-05
469.9195,-5.811874E-05
470.0195,-5.807071E-05
470.1195,-5.805094E-05
470.2195,-5.804058E-05
470.3195,-5.803681E-05
470.4195,-5.802363E-05
470.5195,-5.79869E-05
470.6195,-5.797183E-05
470.7195,-5.79756E-05
470.8195,-5.79643E-05
470.9195,-5.795488E-05
471.0195,-5.792098E-05
471.1195,-5.791156E-05
471.2195,-5.788519E-05
471.3195,-5.791532E-05
471.4196,-5.790874E-05
471.5196,-5.786541E-05
471.6196,-5.785411E-05
471.7196,-5.78381E-05
471.8196,-5.782304E-05
471.9196,-5.78447E-05
472.0196,-5.780515E-05
472.1196,-5.778254E-05
472.2196,-5.77703E-05
472.3196,-5.777218E-05
472.4196,-5.772604E-05
472.5196,-5.775523E-05
472.6196,-5.771286E-05
472.7196,-5.770343E-05
472.8196,-5.768084E-05
472.9196,-5.769402E-05
473.0197,-5.76799E-05
473.1197,-5.768366E-05
473.2197,-5.764882E-05
473.3197,-5.763375E-05
473.4197,-5.760644E-05
473.5197,-5.762339E-05
473.6197,-5.761398E-05
473.7197,-5.761115E-05
473.8197,-5.758101E-05
473.9197,-5.754522E-05
474.0197,-5.75763E-05
474.1197,-5.755464E-05
474.2197,-5.753487E-05
474.3197,-5.753487E-05
474.4197,-5.749155E-05
474.5197,-5.747271E-05
474.6198,-5.748872E-05
474.7198,-5.747177E-05
474.8198,-5.745105E-05
474.9198,-5.745765E-05
475.0198,-5.742092E-05
475.1198,-5.739832E-05
475.2198,-5.741527E-05
475.3198,-5.738419E-05
475.4198,-5.737571E-05
475.5198,-5.737948E-05
475.6198,-5.735029E-05
475.7198,-5.733522E-05
475.8198,-5.73371E-05
475.9198,-5.732203E-05
476.0198,-5.730509E-05
476.1198,-5.730132E-05
476.2198,-5.726741E-05
476.3199,-5.728625E-05
476.4199,-5.727307E-05
476.5199,-5.724199E-05
476.6199,-5.722127E-05
476.7199,-5.725141E-05
476.8199,-5.721844E-05
476.9199,-5.718831E-05
477.0199,-5.71789E-05
477.1199,-5.71723E-05
477.2199,-5.713181E-05
477.3199,-5.716288E-05
477.4199,-5.713557E-05
477.5199,-5.710544E-05
477.6199,-5.712615E-05
477.7199,-5.710449E-05
477.8199,-5.707436E-05
477.92,-5.710921E-05
478.02,-5.707907E-05
478.12,-5.704517E-05
478.22,-5.704422E-05
478.32,-5.703198E-05
478.42,-5.700562E-05
478.52,-5.70301E-05
478.62,-5.698019E-05
478.72,-5.696041E-05
478.82,-5.698207E-05
478.92,-5.698866E-05
479.02,-5.694911E-05
479.12,-5.693875E-05
479.22,-5.690768E-05
479.32,-5.690673E-05
479.42,-5.689732E-05
479.5201,-5.688319E-05
479.6201,-5.686436E-05
479.7201,-5.686247E-05
479.8201,-5.686153E-05
479.9201,-5.682009E-05
480.0201,-5.682574E-05
480.1201,-5.684458E-05
480.2201,-5.679749E-05
480.3201,-5.678901E-05
480.4201,-5.676924E-05
480.5201,-5.676265E-05
480.6201,-5.674852E-05
480.7201,-5.672027E-05
480.8201,-5.670709E-05
480.9201,-5.67165E-05
481.0201,-5.671839E-05
481.1201,-5.66713E-05
481.2202,-5.668166E-05
481.3202,-5.669672E-05
481.4202,-5.665435E-05
481.5202,-5.664399E-05
481.6202,-5.663457E-05
481.7202,-5.662421E-05
481.8202,-5.662892E-05
481.9202,-5.662233E-05
482.0202,-5.658277E-05
482.1202,-5.658843E-05
482.2202,-5.65696E-05
482.3202,-5.655923E-05
482.4202,-5.655264E-05
482.5202,-5.655735E-05
482.6202,-5.651591E-05
482.7202,-5.652345E-05
482.8203,-5.649991E-05
482.9203,-5.64773E-05
483.0203,-5.649143E-05
483.1203,-5.64886E-05
483.2203,-5.645376E-05
483.3203,-5.644434E-05
483.4203,-5.642645E-05
483.5203,-5.640385E-05
483.6203,-5.641609E-05
483.7203,-5.641138E-05
483.8203,-5.636806E-05
483.9203,-5.635582E-05
484.0203,-5.636806E-05
484.1203,-5.634263E-05
484.2203,-5.635205E-05
484.3203,-5.634829E-05
484.4203,-5.630026E-05
484.5204,-5.629178E-05
484.6204,-5.629367E-05
484.7204,-5.628613E-05
484.8204,-5.62899E-05
484.9204,-5.625694E-05
485.0204,-5.623716E-05
485.1204,-5.622492E-05
485.2204,-5.622586E-05
485.3204,-5.621833E-05
485.4204,-5.620703E-05
485.5204,-5.620703E-05
485.6204,-5.614111E-05
485.7204,-5.616747E-05
485.8204,-5.616653E-05
485.9204,-5.614487E-05
486.0204,-5.615711E-05
486.1205,-5.611568E-05
486.2205,-5.610249E-05
486.3205,-5.611568E-05
486.4205,-5.611568E-05
486.5205,-5.606765E-05
486.6205,-5.605446E-05
486.7205,-5.605446E-05
486.8205,-5.606953E-05
486.9205,-5.607048E-05
487.0205,-5.604599E-05
487.1205,-5.600926E-05
487.2205,-5.603186E-05
487.3205,-5.602433E-05
487.4205,-5.599796E-05
487.5205,-5.600079E-05
487.6205,-5.597724E-05
487.7206,-5.594146E-05
487.8206,-5.595841E-05
487.9206,-5.59537E-05
488.0206,-5.593016E-05
488.1206,-5.59198E-05
488.2206,-5.589626E-05
488.3206,-5.58793E-05
488.4206,-5.587553E-05
488.5206,-5.589155E-05
488.6206,-5.585859E-05
488.7206,-5.585859E-05
488.8206,-5.582939E-05
488.9206,-5.58115E-05
489.0206,-5.582563E-05
489.1206,-5.581527E-05
489.2206,-5.580114E-05
489.3206,-5.577948E-05
489.4207,-5.57823E-05
489.5207,-5.57597E-05
489.6207,-5.578607E-05
489.7207,-5.575217E-05
489.8207,-5.572015E-05
489.9207,-5.572674E-05
490.0207,-5.57145E-05
490.1207,-5.572674E-05
490.2207,-5.570132E-05
490.3207,-5.567589E-05
490.4207,-5.565329E-05
490.5207,-5.565894E-05
490.6207,-5.565988E-05
490.7207,-5.563351E-05
490.8207,-5.563351E-05
490.9207,-5.558077E-05
491.0208,-5.560997E-05
491.1208,-5.563163E-05
491.2208,-5.55949E-05
491.3208,-5.556759E-05
491.4208,-5.555252E-05
491.5208,-5.556571E-05
491.6208,-5.555441E-05
491.7208,-5.555158E-05
491.8208,-5.554028E-05
491.9208,-5.550638E-05
492.0208,-5.551297E-05
492.1208,-5.54866E-05
492.2208,-5.548283E-05
492.3208,-5.549884E-05
492.4208,-5.546588E-05
492.5208,-5.543951E-05
492.6208,-5.54414E-05
492.7209,-5.542915E-05
492.8209,-5.542256E-05
492.9209,-5.540938E-05
493.0209,-5.539808E-05
493.1209,-5.537265E-05
493.2209,-5.537359E-05
493.3209,-5.536512E-05
493.4209,-5.537171E-05
493.5209,-5.535852E-05
493.6209,-5.53444E-05
493.7209,-5.531426E-05
493.8209,-5.532556E-05
493.9209,-5.530296E-05
494.0209,-5.527377E-05
494.1209,-5.530202E-05
494.2209,-5.527283E-05
494.321,-5.525588E-05
494.421,-5.524929E-05
494.521,-5.524364E-05
494.621,-5.52248E-05
494.721,-5.522669E-05
494.821,-5.520031E-05
494.921,-5.517771E-05
495.021,-5.518337E-05
495.121,-5.520408E-05
495.221,-5.51617E-05
495.321,-5.514852E-05
495.421,-5.512968E-05
495.521,-5.511838E-05
495.621,-5.515229E-05
495.721,-5.512121E-05
495.821,-5.508072E-05
495.9211,-5.509296E-05
496.0211,-5.508731E-05
496.1211,-5.506094E-05
496.2211,-5.505906E-05
496.3211,-5.505999E-05
496.4211,-5.507036E-05
496.5211,-5.504399E-05
496.6211,-5.503363E-05
496.7211,-5.499219E-05
496.8211,-5.501385E-05
496.9211,-5.500161E-05
497.0211,-5.499031E-05
497.1211,-5.497148E-05
497.2211,-5.496582E-05
497.3211,-5.49291E-05
497.4211,-5.494793E-05
497.5211,-5.493663E-05
497.6212,-5.492627E-05
497.7212,-5.490932E-05
497.8212,-5.49291E-05
497.9212,-5.485753E-05
498.0212,-5.491309E-05
498.1212,-5.490744E-05
498.2212,-5.487448E-05
498.3212,-5.4866E-05
498.4212,-5.487542E-05
498.5212,-5.484246E-05
498.6212,-5.484528E-05
498.7212,-5.48321E-05
498.8212,-5.480291E-05
498.9212,-5.481703E-05
499.0212,-5.481044E-05
499.1212,-5.477842E-05
499.2213,-5.476429E-05
499.3213,-5.476335E-05
499.4213,-5.473604E-05
499.5213,-5.473887E-05
499.6213,-5.472474E-05
499.7213,-5.468519E-05
499.8213,-5.470308E-05
499.9213,-5.471156E-05
500.0213,-5.469649E-05
500.1213,-5.467106E-05
500.2213,-5.464093E-05
500.3213,-5.463151E-05
500.4213,-5.464093E-05
500.5213,-5.464093E-05
500.6213,-5.461362E-05
500.7213,-5.461362E-05
500.8214,-5.45929E-05
500.9214,-5.456559E-05
501.0214,-5.4575E-05
501.1214,-5.456559E-05
501.2214,-5.455334E-05
501.3214,-5.454204E-05
501.4214,-5.45185E-05
501.5214,-5.45072E-05
501.6214,-5.454111E-05
501.7214,-5.452133E-05
501.8214,-5.447989E-05
501.9214,-5.448366E-05
502.0214,-5.448742E-05
502.1214,-5.449402E-05
502.2214,-5.446294E-05
502.3214,-5.443563E-05
502.4214,-5.443375E-05
502.5215,-5.444882E-05
502.6215,-5.442433E-05
502.7215,-5.438101E-05
502.8215,-5.440361E-05
502.9215,-5.439137E-05
503.0215,-5.437724E-05
503.1215,-5.437724E-05
503.2215,-5.435746E-05
503.3215,-5.435088E-05
503.4215,-5.43358E-05
503.5215,-5.433675E-05
503.6215,-5.431509E-05
503.7215,-5.429814E-05
503.8215,-5.431415E-05
503.9215,-5.429908E-05
504.0215,-5.429814E-05
504.1216,-5.426329E-05
504.2216,-5.425293E-05
504.3216,-5.425482E-05
504.4216,-5.425576E-05
504.5216,-5.423692E-05
504.6216,-5.420867E-05
504.7216,-5.421715E-05
504.8216,-5.41936E-05
504.9216,-5.422185E-05
505.0216,-5.418795E-05
505.1216,-5.414652E-05
505.2216,-5.417006E-05
505.3216,-5.416817E-05
505.4216,-5.413239E-05
505.5216,-5.412297E-05
505.6216,-5.411826E-05
505.7216,-5.410508E-05
505.8217,-5.410979E-05
505.9217,-5.411826E-05
506.0217,-5.406647E-05
506.1217,-5.409001E-05
506.2217,-5.405988E-05
506.3217,-5.404293E-05
506.4217,-5.406741E-05
506.5217,-5.405517E-05
506.6217,-5.403351E-05
506.7217,-5.403257E-05
506.8217,-5.403445E-05
506.9217,-5.400526E-05
507.0217,-5.400996E-05
507.1217,-5.40175E-05
507.2217,-5.398737E-05
507.3217,-5.398454E-05
507.4218,-5.395535E-05
507.5218,-5.397607E-05
507.6218,-5.399302E-05
507.7218,-5.397512E-05
507.8218,-5.39205E-05
507.9218,-5.394687E-05
508.0218,-5.395158E-05
508.1218,-5.392615E-05
508.2218,-5.392427E-05
508.3218,-5.389507E-05
508.4218,-5.385552E-05
508.5218,-5.389225E-05
508.6218,-5.389696E-05
508.7218,-5.385081E-05
508.8218,-5.382915E-05
508.9218,-5.383293E-05
509.0219,-5.382445E-05
509.1219,-5.382633E-05
509.2219,-5.381503E-05
509.3219,-5.377924E-05
509.4219,-5.378772E-05
509.5219,-5.376888E-05
509.6219,-5.37783E-05
509.7219,-5.37783E-05
509.8219,-5.375193E-05
509.9219,-5.371144E-05
510.0219,-5.372745E-05
510.1219,-5.37218E-05
510.2219,-5.37152E-05
510.3219,-5.372557E-05
510.4219,-5.369449E-05
510.5219,-5.367094E-05
510.6219,-5.367377E-05
510.722,-5.368695E-05
510.822,-5.366153E-05
510.922,-5.364928E-05
511.022,-5.364363E-05
511.122,-5.362292E-05
511.222,-5.364928E-05
511.322,-5.365117E-05
511.422,-5.358901E-05
511.522,-5.359561E-05
511.622,-5.357677E-05
511.722,-5.35796E-05
511.822,-5.359843E-05
511.922,-5.357583E-05
512.022,-5.353439E-05
512.122,-5.35617E-05
512.222,-5.352686E-05
512.322,-5.352968E-05
512.4219,-5.353439E-05
512.5219,-5.349861E-05
512.6219,-5.347977E-05
512.7219,-5.348165E-05
512.8218,-5.34826E-05
512.9218,-5.345999E-05
513.0218,-5.34713E-05
513.1218,-5.347883E-05
513.2217,-5.344964E-05
513.3217,-5.344681E-05
513.4217,-5.34308E-05
513.5217,-5.341385E-05
513.6216,-5.339785E-05
513.7216,-5.340443E-05
513.8216,-5.336488E-05
513.9216,-5.338654E-05
514.0215,-5.336676E-05
514.1215,-5.335829E-05
514.2215,-5.336488E-05
514.3215,-5.33451E-05
514.4214,-5.332438E-05
514.5214,-5.331121E-05
514.6214,-5.330932E-05
514.7214,-5.330178E-05
514.8214,-5.329425E-05
514.9213,-5.329896E-05
515.0213,-5.325375E-05
515.1213,-5.323398E-05
515.2213,-5.326035E-05
515.3212,-5.324999E-05
515.4212,-5.32368E-05
515.5212,-5.321043E-05
515.6212,-5.320102E-05
515.7211,-5.320479E-05
515.8211,-5.32142E-05
515.9211,-5.318689E-05
516.0211,-5.316523E-05
516.121,-5.316711E-05
516.221,-5.314169E-05
516.321,-5.315581E-05
516.421,-5.315016E-05
516.5209,-5.312474E-05
516.6209,-5.312662E-05
516.7209,-5.312945E-05
516.8209,-5.308801E-05
516.9208,-5.308048E-05
517.0208,-5.307765E-05
517.1208,-5.308424E-05
517.2208,-5.30899E-05
517.3207,-5.307389E-05
517.4207,-5.302021E-05
517.5207,-5.302586E-05
517.6207,-5.305882E-05
517.7206,-5.300608E-05
517.8206,-5.298913E-05
517.9206,-5.299572E-05
518.0206,-5.29929E-05
518.1205,-5.299855E-05
518.2205,-5.298442E-05
518.3205,-5.296747E-05
518.4205,-5.292886E-05
518.5204,-5.295899E-05
518.6204,-5.29411E-05
518.7204,-5.292132E-05
518.8204,-5.293263E-05
518.9203,-5.291379E-05
519.0203,-5.291567E-05
519.1203,-5.292697E-05
519.2203,-5.289684E-05
519.3203,-5.287047E-05
519.4202,-5.287141E-05
519.5202,-5.287141E-05
519.6202,-5.286105E-05
519.7202,-5.284128E-05
519.8201,-5.281773E-05
519.9201,-5.277912E-05
520.0201,-5.282621E-05
520.1201,-5.28102E-05
520.22,-5.278195E-05
520.32,-5.277536E-05
520.42,-5.273486E-05
520.52,-5.277065E-05
520.6199,-5.278101E-05
520.7199,-5.273581E-05
520.8199,-5.271697E-05
520.9199,-5.275746E-05
521.0198,-5.273769E-05
521.1198,-5.27198E-05
521.2198,-5.270661E-05
521.3198,-5.270755E-05
521.4197,-5.268119E-05
521.5197,-5.269154E-05
521.6197,-5.267836E-05
521.7197,-5.266894E-05
521.8196,-5.265764E-05
521.9196,-5.262091E-05
522.0196,-5.260396E-05
522.1196,-5.26115E-05
522.2195,-5.261055E-05
522.3195,-5.259831E-05
522.4195,-5.260773E-05
522.5195,-5.259548E-05
522.6194,-5.256253E-05
522.7194,-5.258042E-05
522.8194,-5.256818E-05
522.9194,-5.25484E-05
523.0193,-5.254652E-05
523.1193,-5.249378E-05
523.2193,-5.251827E-05
523.3193,-5.254934E-05
523.4193,-5.250414E-05
523.5192,-5.249096E-05
523.6192,-5.250884E-05
523.7192,-5.251921E-05
523.8192,-5.247777E-05
523.9191,-5.246176E-05
524.0191,-5.247965E-05
524.1191,-5.244105E-05
524.2191,-5.243539E-05
524.319,-5.240902E-05
524.419,-5.239584E-05
524.519,-5.243539E-05
524.619,-5.238454E-05
524.7189,-5.23723E-05
524.8189,-5.236288E-05
524.9189,-5.237983E-05
525.0189,-5.235911E-05
525.1188,-5.234969E-05
525.2188,-5.231391E-05
525.3188,-5.230826E-05
525.4188,-5.235346E-05
525.5187,-5.233275E-05
525.6187,-5.227059E-05
525.7187,-5.227247E-05
525.8187,-5.227153E-05
525.9186,-5.226306E-05
526.0186,-5.22687E-05
526.1186,-5.224328E-05
526.2186,-5.221786E-05
526.3185,-5.222633E-05
526.4185,-5.22235E-05
526.5185,-5.22235E-05
526.6185,-5.220561E-05
526.7184,-5.219808E-05
526.8184,-5.218018E-05
526.9184,-5.218677E-05
527.0184,-5.217265E-05
527.1183,-5.214345E-05
527.2183,-5.217077E-05
527.3183,-5.214911E-05
527.4183,-5.21218E-05
527.5182,-5.212086E-05
527.6182,-5.212933E-05
527.7182,-5.209166E-05
527.8182,-5.210673E-05
527.9182,-5.209354E-05
528.0181,-5.208319E-05
528.1181,-5.208413E-05
528.2181,-5.204928E-05
528.3181,-5.205776E-05
528.418,-5.205588E-05
528.518,-5.205211E-05
528.618,-5.200408E-05
528.718,-5.200785E-05
528.8179,-5.203139E-05
528.9179,-5.201255E-05
529.0179,-5.200973E-05
529.1179,-5.198712E-05
529.2178,-5.198336E-05
529.3178,-5.197959E-05
529.4178,-5.198147E-05
529.5178,-5.196264E-05
529.6177,-5.19504E-05
529.7177,-5.193816E-05
529.8177,-5.191555E-05
529.9177,-5.192968E-05
530.0176,-5.192686E-05
530.1176,-5.189955E-05
530.2176,-5.188636E-05
530.3176,-5.188542E-05
530.4175,-5.188071E-05
530.5175,-5.187977E-05
530.6175,-5.187129E-05
530.7175,-5.185246E-05
530.8174,-5.183833E-05
530.9174,-5.185717E-05
531.0174,-5.183645E-05
531.1174,-5.181667E-05
531.2173,-5.180631E-05
531.3173,-5.181856E-05
531.4173,-5.180349E-05
531.5173,-5.181385E-05
531.6172,-5.177241E-05
531.7172,-5.175358E-05
531.8172,-5.177524E-05
531.9172,-5.176017E-05
532.0172,-5.173286E-05
532.1171,-5.173192E-05
532.2171,-5.171685E-05
532.3171,-5.172156E-05
532.4171,-5.170272E-05
532.517,-5.169896E-05
532.617,-5.168201E-05
532.717,-5.171026E-05
532.817,-5.167542E-05
532.9169,-5.16773E-05
533.0169,-5.166694E-05
533.1169,-5.163963E-05
533.2169,-5.16481E-05
533.3168,-5.164528E-05
533.4168,-5.161703E-05
533.5168,-5.159348E-05
533.6168,-5.159442E-05
533.7167,-5.158689E-05
533.8167,-5.158124E-05
533.9167,-5.159066E-05
534.0167,-5.156052E-05
534.1166,-5.155299E-05
534.2166,-5.155958E-05
534.3166,-5.155016E-05
534.4166,-5.153604E-05
534.5165,-5.153886E-05
534.6165,-5.153228E-05
534.7165,-5.152662E-05
534.8165,-5.156147E-05
534.9164,-5.155299E-05
535.0164,-5.153792E-05
535.1164,-5.155958E-05
535.2164,-5.156711E-05
535.3163,-5.153698E-05
535.4163,-5.158972E-05
535.5163,-5.160479E-05
535.6163,-5.15803E-05
535.7162,-5.163492E-05
535.8162,-5.165093E-05
535.9162,-5.163021E-05
536.0162,-5.165093E-05
536.1161,-5.16481E-05
536.2161,-5.161891E-05
536.3161,-5.162362E-05
536.4161,-5.163115E-05
536.5161,-5.160196E-05
536.616,-5.158689E-05
536.716,-5.158877E-05
536.816,-5.157371E-05
536.916,-5.155204E-05
537.0159,-5.153604E-05
537.1159,-5.150873E-05
537.2159,-5.149743E-05
537.3159,-5.14899E-05
537.4158,-5.146635E-05
537.5158,-5.1472E-05
537.6158,-5.146729E-05
537.7158,-5.144375E-05
537.8157,-5.143904E-05
537.9157,-5.143904E-05
538.0157,-5.143621E-05
538.1157,-5.142586E-05
538.2156,-5.142868E-05
538.3156,-5.143904E-05
538.4156,-5.142962E-05
538.5156,-5.144092E-05
538.6155,-5.139572E-05
538.7155,-5.14268E-05
538.8155,-5.144186E-05
538.9155,-5.141173E-05
539.0154,-5.140325E-05
539.1154,-5.140325E-05
539.2154,-5.138724E-05
539.3154,-5.139666E-05
539.4153,-5.139572E-05
539.5153,-5.136653E-05
539.6153,-5.136276E-05
539.7153,-5.137312E-05
539.8152,-5.139666E-05
539.9152,-5.139384E-05
540.0152,-5.137971E-05
540.1152,-5.13477E-05
540.2151,-5.136653E-05
540.3151,-5.136653E-05
540.4151,-5.135523E-05
540.5151,-5.134863E-05
540.6151,-5.134392E-05
540.715,-5.131473E-05
540.815,-5.133639E-05
540.915,-5.13524E-05
541.015,-5.132415E-05
541.1149,-5.134204E-05
541.2149,-5.136276E-05
541.3149,-5.133733E-05
541.4149,-5.133168E-05
541.5148,-5.132132E-05
541.6148,-5.132886E-05
541.7148,-5.131661E-05
541.8148,-5.13477E-05
541.9147,-5.132038E-05
542.0147,-5.132038E-05
542.1147,-5.131473E-05
542.2147,-5.129401E-05
542.3146,-5.132132E-05
542.4146,-5.131661E-05
542.5146,-5.128083E-05
542.6146,-5.129307E-05
542.7145,-5.129401E-05
542.8145,-5.129213E-05
542.9145,-5.129401E-05
543.0145,-5.129025E-05
543.1144,-5.128742E-05
543.2144,-5.128177E-05
543.3144,-5.127235E-05
543.4144,-5.125446E-05
543.5143,-5.128648E-05
543.6143,-5.127329E-05
543.7143,-5.124693E-05
543.8143,-5.128648E-05
543.9142,-5.127612E-05
544.0142,-5.124033E-05
544.1142,-5.120737E-05
544.2142,-5.124504E-05
544.3141,-5.122621E-05
544.4141,-5.123845E-05
544.5141,-5.124693E-05
544.6141,-5.119984E-05
544.7141,-5.122056E-05
544.814,-5.119419E-05
544.914,-5.117724E-05
545.014,-5.118101E-05
545.114,-5.119231E-05
545.2139,-5.119042E-05
545.3139,-5.115558E-05
545.4139,-5.120078E-05
545.5139,-5.117818E-05
545.6138,-5.115558E-05
545.7138,-5.116406E-05
545.8138,-5.116594E-05
545.9138,-5.114616E-05
546.0137,-5.113769E-05
546.1137,-5.108966E-05
546.2137,-5.112073E-05
546.3137,-5.11358E-05
546.4136,-5.112639E-05
546.5136,-5.109343E-05
546.6136,-5.108401E-05
546.7136,-5.107647E-05
546.8135,-5.108024E-05
546.9135,-5.108589E-05
547.0135,-5.108495E-05
547.1135,-5.106235E-05
547.2134,-5.105293E-05
547.3134,-5.104634E-05
547.4134,-5.104916E-05
547.5134,-5.106705E-05
547.6133,-5.104916E-05
547.7133,-5.101903E-05
547.8133,-5.102279E-05
547.9133,-5.103316E-05
548.0132,-5.103504E-05
548.1132,-5.102751E-05
548.2132,-5.098513E-05
548.3132,-5.098607E-05
548.4131,-5.100584E-05
548.5131,-5.099831E-05
548.6131,-5.096629E-05
548.7131,-5.097288E-05
548.813,-5.093615E-05
548.913,-5.094181E-05
549.013,-5.096629E-05
549.113,-5.090696E-05
549.213,-5.091355E-05
549.3129,-5.0971E-05
549.4129,-5.094557E-05
549.5129,-5.09305E-05
549.6129,-5.091167E-05
549.7128,-5.092015E-05
549.8128,-5.092674E-05
549.9128,-5.089472E-05
550.0128,-5.089566E-05
550.1127,-5.086646E-05
550.2127,-5.0874E-05
550.3127,-5.086552E-05
550.4127,-5.0874E-05
550.5126,-5.088248E-05
550.6126,-5.086364E-05
550.7126,-5.082692E-05
550.8126,-5.084386E-05
550.9125,-5.083445E-05
551.0125,-5.083351E-05
551.1125,-5.082315E-05
551.2125,-5.078642E-05
551.3124,-5.080337E-05
551.4124,-5.084293E-05
551.5124,-5.081373E-05
551.6124,-5.077982E-05
551.7123,-5.079395E-05
551.8123,-5.081279E-05
551.9123,-5.076759E-05
552.0123,-5.077794E-05
552.1122,-5.078454E-05
552.2122,-5.074122E-05
552.3122,-5.076099E-05
552.4122,-5.076382E-05
552.5121,-5.073274E-05
552.6121,-5.073745E-05
552.7121,-5.071768E-05
552.8121,-5.070355E-05
552.912,-5.071673E-05
553.012,-5.069601E-05
553.112,-5.068848E-05
553.212,-5.066682E-05
553.312,-5.066682E-05
553.4119,-5.064987E-05
553.5119,-5.067906E-05
553.6119,-5.065081E-05
553.7119,-5.062915E-05
553.8118,-5.063292E-05
553.9118,-5.064516E-05
554.0118,-5.061785E-05
554.1118,-5.06235E-05
554.2117,-5.060467E-05
554.3117,-5.058583E-05
554.4117,-5.060184E-05
554.5117,-5.060655E-05
554.6116,-5.057736E-05
554.7116,-5.056888E-05
554.8116,-5.053498E-05
554.9116,-5.055287E-05
555.0115,-5.056888E-05
555.1115,-5.054534E-05
555.2115,-5.051991E-05
555.3115,-5.055099E-05
555.4114,-5.052932E-05
555.5114,-5.051614E-05
555.6114,-5.050767E-05
555.7114,-5.051238E-05
555.8113,-5.051049E-05
555.9113,-5.048601E-05
556.0113,-5.047094E-05
556.1113,-5.045399E-05
556.2112,-5.049354E-05
556.3112,-5.047282E-05
556.4112,-5.043516E-05
556.5112,-5.044457E-05
556.6111,-5.044175E-05
556.7111,-5.044646E-05
556.8111,-5.044646E-05
556.9111,-5.03909E-05
557.011,-5.042009E-05
557.111,-5.044363E-05
557.211,-5.039372E-05
557.311,-5.037959E-05
557.4109,-5.038524E-05
557.5109,-5.040125E-05
557.6109,-5.037206E-05
557.7109,-5.035605E-05
557.8109,-5.03504E-05
557.9108,-5.036076E-05
558.0108,-5.036264E-05
558.1108,-5.034004E-05
558.2108,-5.032591E-05
558.3107,-5.032498E-05
558.4107,-5.031273E-05
558.5107,-5.030237E-05
558.6107,-5.033251E-05
558.7106,-5.029955E-05
558.8106,-5.026564E-05
558.9106,-5.03052E-05
559.0106,-5.030048E-05
559.1105,-5.027035E-05
559.2105,-5.024681E-05
559.3105,-5.026564E-05
559.4105,-5.025152E-05
559.5104,-5.025246E-05
559.6104,-5.023456E-05
559.7104,-5.021385E-05
559.8104,-5.019878E-05
559.9103,-5.020631E-05
560.0103,-5.020254E-05
560.1103,-5.02195E-05
560.2103,-5.018277E-05
560.3102,-5.018183E-05
560.4102,-5.016017E-05
560.5102,-5.016205E-05
560.6102,-5.014228E-05
560.7101,-5.014698E-05
560.8101,-5.013097E-05
560.9101,-5.010084E-05
561.0101,-5.011779E-05
561.11,-5.012062E-05
561.21,-5.009614E-05
561.31,-5.010837E-05
561.41,-5.007541E-05
561.5099,-5.006035E-05
561.6099,-5.006317E-05
561.7099,-5.006599E-05
561.8099,-5.00434E-05
561.9099,-5.004528E-05
562.0098,-5.003398E-05
562.1098,-5.000384E-05
562.2098,-5.002079E-05
562.3098,-5.004057E-05
562.4097,-4.99916E-05
562.5097,-5.000667E-05
562.6097,-4.999442E-05
562.7097,-4.997559E-05
562.8096,-4.996711E-05
562.9096,-4.997088E-05
563.0096,-4.996241E-05
563.1096,-4.994734E-05
563.2095,-4.993698E-05
563.3095,-4.991343E-05
563.4095,-4.992851E-05
563.5095,-4.992191E-05
563.6094,-4.989648E-05
563.7094,-4.990873E-05
563.8094,-4.990308E-05
563.9094,-4.988707E-05
564.0093,-4.987859E-05
564.1093,-4.989272E-05
564.2093,-4.987012E-05
564.3093,-4.985034E-05
564.4092,-4.983998E-05
564.5092,-4.982397E-05
564.6092,-4.983339E-05
564.7092,-4.983809E-05
564.8091,-4.978913E-05
564.9091,-4.977877E-05
565.0091,-4.97863E-05
565.1091,-4.979572E-05
565.209,-4.979195E-05
565.309,-4.976841E-05
565.409,-4.975334E-05
565.509,-4.973451E-05
565.6089,-4.977123E-05
565.7089,-4.975522E-05
565.8089,-4.974016E-05
565.9089,-4.973827E-05
566.0089,-4.969966E-05
566.1088,-4.969401E-05
566.2088,-4.971285E-05
566.3088,-4.969025E-05
566.4088,-4.969966E-05
566.5087,-4.968648E-05
566.6087,-4.965634E-05
566.7087,-4.967235E-05
566.8087,-4.968177E-05
566.9086,-4.965069E-05
567.0086,-4.961208E-05
567.1086,-4.964033E-05
567.2086,-4.963468E-05
567.3085,-4.962432E-05
567.4085,-4.964221E-05
567.5085,-4.958477E-05
567.6085,-4.959702E-05
567.7084,-4.960643E-05
567.8084,-4.959231E-05
567.9084,-4.958383E-05
568.0084,-4.959231E-05
568.1083,-4.954804E-05
568.2083,-4.955087E-05
568.3083,-4.955934E-05
568.4083,-4.956311E-05
568.5082,-4.954051E-05
568.6082,-4.955746E-05
568.7082,-4.950849E-05
568.8082,-4.951132E-05
568.9081,-4.953392E-05
569.0081,-4.94906E-05
569.1081,-4.947459E-05
569.2081,-4.949342E-05
569.308,-4.949531E-05
569.408,-4.948495E-05
569.508,-4.948401E-05
569.608,-4.9468E-05
569.7079,-4.945199E-05
569.8079,-4.947836E-05
569.9079,-4.946705E-05
570.0079,-4.946329E-05
570.1078,-4.944916E-05
570.2078,-4.942939E-05
570.3078,-4.943127E-05
570.4078,-4.943504E-05
570.5078,-4.943504E-05
570.6077,-4.940208E-05
570.7077,-4.939831E-05
570.8077,-4.938889E-05
570.9077,-4.936629E-05
571.0076,-4.939266E-05
571.1076,-4.935593E-05
571.2076,-4.934275E-05
571.3076,-4.93418E-05
571.4075,-4.933145E-05
571.5075,-4.932297E-05
571.6075,-4.934557E-05
571.7075,-4.93079E-05
571.8074,-4.931261E-05
571.9074,-4.931073E-05
572.0074,-4.927965E-05
572.1074,-4.927682E-05
572.2073,-4.928248E-05
572.3073,-4.925517E-05
572.4073,-4.92222E-05
572.5073,-4.924951E-05
572.6072,-4.924857E-05
572.7072,-4.924763E-05
572.8072,-4.923916E-05
572.9072,-4.922408E-05
573.0071,-4.919772E-05
573.1071,-4.921938E-05
573.2071,-4.91996E-05
573.3071,-4.917417E-05
573.407,-4.918077E-05
573.507,-4.916194E-05
573.607,-4.916947E-05
573.707,-4.917041E-05
573.8069,-4.915251E-05
573.9069,-4.915063E-05
574.0069,-4.915534E-05
574.1069,-4.912615E-05
574.2068,-4.911485E-05
574.3068,-4.915911E-05
574.4068,-4.914027E-05
574.5068,-4.910072E-05
574.6068,-4.912521E-05
574.7067,-4.911861E-05
574.8067,-4.908754E-05
574.9067,-4.90913E-05
575.0067,-4.908E-05
575.1066,-4.908754E-05
575.2066,-4.908754E-05
575.3066,-4.906682E-05
575.4066,-4.903198E-05
575.5065,-4.905646E-05
575.6065,-4.904233E-05
575.7065,-4.904422E-05
575.8065,-4.903386E-05
575.9064,-4.898677E-05
576.0064,-4.901032E-05
576.1064,-4.90348E-05
576.2064,-4.902538E-05
576.3063,-4.897736E-05
576.4063,-4.899054E-05
576.5063,-4.900655E-05
576.6063,-4.896323E-05
576.7062,-4.898394E-05
576.8062,-4.895758E-05
576.9062,-4.893968E-05
577.0062,-4.897264E-05
577.1061,-4.895287E-05
577.2061,-4.891614E-05
577.3061,-4.891709E-05
577.4061,-4.892462E-05
577.506,-4.891425E-05
577.606,-4.893215E-05
577.706,-4.890767E-05
577.806,-4.888694E-05
577.9059,-4.889166E-05
578.0059,-4.887941E-05
578.1059,-4.885587E-05
578.2059,-4.887188E-05
578.3058,-4.885493E-05
578.4058,-4.885399E-05
578.5058,-4.885399E-05
578.6058,-4.883515E-05
578.7057,-4.883139E-05
578.8057,-4.885022E-05
578.9057,-4.882197E-05
579.0057,-4.880596E-05
579.1057,-4.880313E-05
579.2056,-4.880784E-05
579.3056,-4.880031E-05
579.4056,-4.877959E-05
579.5056,-4.877111E-05
579.6055,-4.875699E-05
579.7055,-4.879372E-05
579.8055,-4.875981E-05
579.9055,-4.873062E-05
580.0054,-4.874474E-05
580.1054,-4.873721E-05
580.2054,-4.874192E-05
580.3054,-4.874474E-05
580.4053,-4.870802E-05
580.5053,-4.870331E-05
580.6053,-4.872309E-05
580.7053,-4.871838E-05
580.8052,-4.86873E-05
580.9052,-4.869201E-05
581.0052,-4.867883E-05
581.1052,-4.868636E-05
581.2051,-4.867317E-05
581.3051,-4.86421E-05
581.4051,-4.864116E-05
581.5051,-4.866375E-05
581.605,-4.865434E-05
581.705,-4.864398E-05
581.805,-4.864398E-05
581.905,-4.861291E-05
582.0049,-4.863079E-05
582.1049,-4.861856E-05
582.2049,-4.859124E-05
582.3049,-4.858559E-05
582.4048,-4.861196E-05
582.5048,-4.861291E-05
582.6048,-4.859124E-05
582.7048,-4.859218E-05
582.8047,-4.858465E-05
582.9047,-4.856299E-05
583.0047,-4.858842E-05
583.1047,-4.859124E-05
583.2047,-4.856676E-05
583.3046,-4.856017E-05
583.4046,-4.856393E-05
583.5046,-4.854133E-05
583.6046,-4.857053E-05
583.7045,-4.853851E-05
583.8045,-4.850555E-05
583.9045,-4.853003E-05
584.0045,-4.851214E-05
584.1044,-4.850084E-05
584.2044,-4.849613E-05
584.3044,-4.848201E-05
584.4044,-4.848954E-05
584.5043,-4.850084E-05
584.6043,-4.847729E-05
584.7043,-4.846317E-05
584.8043,-4.844528E-05
584.9042,-4.844716E-05
585.0042,-4.844716E-05
585.1042,-4.843115E-05
585.2042,-4.842361E-05
585.3041,-4.843868E-05
585.4041,-4.842833E-05
585.5041,-4.840195E-05
585.6041,-4.839819E-05
585.704,-4.841703E-05
585.804,-4.840478E-05
585.904,-4.836617E-05
586.004,-4.839066E-05
586.1039,-4.842267E-05
586.2039,-4.839442E-05
586.3039,-4.838689E-05
586.4039,-4.837747E-05
586.5038,-4.835204E-05
586.6038,-4.8369E-05
586.7038,-4.838877E-05
586.8038,-4.835016E-05
586.9037,-4.834263E-05
587.0037,-4.835864E-05
587.1037,-4.834169E-05
587.2037,-4.832003E-05
587.3036,-4.832944E-05
587.4036,-4.833133E-05
587.5036,-4.831814E-05
587.6036,-4.831532E-05
587.7036,-4.830684E-05
587.8035,-4.829366E-05
587.9035,-4.828047E-05
588.0035,-4.827765E-05
588.1035,-4.82833E-05
588.2034,-4.829271E-05
588.3034,-4.826352E-05
588.4034,-4.823809E-05
588.5034,-4.826823E-05
588.6033,-4.827859E-05
588.7033,-4.826258E-05
588.8033,-4.82541E-05
588.9033,-4.824563E-05
589.0032,-4.822397E-05
589.1032,-4.823998E-05
589.2032,-4.823433E-05
589.3032,-4.820984E-05
589.4031,-4.821738E-05
589.5031,-4.819478E-05
589.6031,-4.818818E-05
589.7031,-4.822585E-05
589.803,-4.820702E-05
589.903,-4.817029E-05
590.003,-4.815805E-05
590.103,-4.818253E-05
590.2029,-4.816652E-05
590.3029,-4.819007E-05
590.4029,-4.813921E-05
590.5029,-4.811944E-05
590.6028,-4.814486E-05
590.7028,-4.814957E-05
590.8028,-4.81185E-05
590.9028,-4.810814E-05
591.0027,-4.811096E-05
591.1027,-4.808177E-05
591.2027,-4.812509E-05
591.3027,-4.81119E-05
591.4026,-4.807612E-05
591.5026,-4.807518E-05
591.6026,-4.807047E-05
591.7026,-4.807329E-05
591.8026,-4.809495E-05
591.9025,-4.806387E-05
592.0025,-4.804693E-05
592.1025,-4.805352E-05
592.2025,-4.804316E-05
592.3024,-4.804221E-05
592.4024,-4.805822E-05
592.5024,-4.803939E-05
592.6024,-4.801302E-05
592.7023,-4.802715E-05
592.8023,-4.80102E-05
592.9023,-4.800643E-05
593.0023,-4.79989E-05
593.1022,-4.801396E-05
593.2022,-4.80215E-05
593.3022,-4.798477E-05
593.4022,-4.798853E-05
593.5021,-4.796499E-05
593.6021,-4.7981E-05
593.7021,-4.797252E-05
593.8021,-4.794521E-05
593.902,-4.79697E-05
594.002,-4.794992E-05
594.102,-4.794616E-05
594.202,-4.795746E-05
594.3019,-4.794145E-05
594.4019,-4.792167E-05
594.5019,-4.793768E-05
594.6019,-4.792826E-05
594.7018,-4.789248E-05
594.8018,-4.791132E-05
594.9018,-4.79245E-05
595.0018,-4.78953E-05
595.1017,-4.789436E-05
595.2017,-4.78727E-05
595.3017,-4.791226E-05
595.4017,-4.793486E-05
595.5016,-4.791226E-05
595.6016,-4.78614E-05
595.7016,-4.788118E-05
595.8016,-4.787647E-05
595.9016,-4.787553E-05
596.0015,-4.786328E-05
596.1015,-4.7868E-05
596.2015,-4.783692E-05
596.3015,-4.784163E-05
596.4014,-4.786046E-05
596.5014,-4.782844E-05
596.6014,-4.784351E-05
596.7014,-4.783692E-05
596.8013,-4.782185E-05
596.9013,-4.781902E-05
597.0013,-4.780867E-05
597.1013,-4.779831E-05
597.2012,-4.780772E-05
597.3012,-4.779454E-05
597.4012,-4.778889E-05
597.5012,-4.78275E-05
597.6011,-4.78162E-05
597.7011,-4.776818E-05
597.8011,-4.778324E-05
597.9011,-4.778512E-05
598.001,-4.776629E-05
598.101,-4.775593E-05
598.201,-4.775875E-05
598.301,-4.77484E-05
598.4009,-4.775311E-05
598.5009,-4.775311E-05
598.6009,-4.772485E-05
598.7009,-4.772956E-05
598.8008,-4.772673E-05
598.9008,-4.77258E-05
599.0008,-4.771826E-05
599.1008,-4.772673E-05
599.2007,-4.769283E-05
599.3007,-4.769566E-05
599.4007,-4.76966E-05
599.5007,-4.770696E-05
599.6006,-4.773709E-05
599.7006,-4.768342E-05
599.8006,-4.767023E-05
599.9006,-4.767682E-05
600.0005,-4.768907E-05
