EXPID. 0855
[电化学]: i-t : @ 0(V) X 600(sec)
起始电位 (V),0
静置时间 (秒),0
运行时间 (秒),600
记录间隔,0.1
电解液 信息:
HNO3,0.4
0.1,-0.01005814
0.2,-0.01005814
0.3,-0.01005814
0.4,-0.01005814
0.5,-0.01005814
0.6,-0.01005814
0.7,-0.01005814
0.8000001,-0.01005814
0.9000001,-0.01005814
1,-0.01005814
1.1,-0.01005814
1.2,-0.01005814
1.3,-0.01005814
1.4,-0.01005814
1.5,-0.01005814
1.6,-0.01005814
1.7,-0.01005814
1.8,-0.01005814
1.9,-0.01005814
2,-0.01005814
2.1,-0.01005814
2.2,-0.01005814
2.3,-0.01005814
2.4,-0.01005814
2.5,-0.01005814
2.6,-0.01005814
2.7,-0.01005814
2.799999,-0.01005814
2.899999,-0.01005814
2.999999,-0.01005814
3.099999,-0.01005814
3.199999,-0.01005814
3.299999,-0.01005814
3.399999,-0.01005814
3.499999,-0.01005814
3.599999,-0.01005814
3.699999,-0.01005814
3.799999,-0.01005814
3.899998,-0.01005814
3.999998,-0.01005814
4.099998,-0.01005814
4.199998,-0.01005814
4.299998,-0.01005814
4.399998,-0.01005814
4.499998,-0.01005814
4.599998,-0.01005814
4.699998,-0.01005814
4.799998,-0.01005814
4.899998,-0.01005814
4.999998,-0.01005814
5.099998,-0.01005814
5.199997,-0.01005814
5.299997,-0.01005814
5.399997,-0.01005814
5.499997,-0.01005814
5.599997,-0.01005814
5.699997,-0.01005814
5.799997,-0.01005814
5.899997,-0.01005814
5.999997,-0.01005814
6.099997,-0.01005814
6.199996,-0.01005814
6.299996,-0.01005814
6.399996,-0.01005814
6.499996,-0.01005814
6.599996,-0.01005814
6.699996,-0.01005814
6.799996,-0.01005814
6.899996,-0.01005814
6.999996,-0.01005814
7.099996,-0.01005814
7.199996,-0.01005814
7.299995,-0.01005814
7.399995,-0.01005814
7.499995,-0.01005814
7.599995,-0.01005814
7.699995,-0.01005814
7.799995,-0.01005814
7.899995,-0.01005814
7.999995,-0.01005814
8.099995,-0.01005814
8.199995,-0.01005814
8.299995,-0.01005814
8.399996,-0.01005814
8.499996,-0.01005814
8.599997,-0.01005814
8.699997,-0.01005814
8.799997,-0.01005814
8.899998,-0.01005814
8.999998,-0.01005814
9.099998,-0.01005814
9.199999,-0.01005814
9.299999,-0.01005814
9.4,-0.01005814
9.5,-0.01005814
9.6,-0.01005814
9.700001,-0.01005814
9.800001,-0.01005814
9.900002,-0.01005814
10,-0.01005814
10.1,-0.01005814
10.2,-0.01005814
10.3,-0.01005814
10.4,-0.01005814
10.5,-0.01005814
10.6,-0.01005814
10.7,-0.01005814
10.8,-0.01005814
10.90001,-0.01005814
11.00001,-0.01005814
11.10001,-0.01005814
11.20001,-0.01005814
11.30001,-0.01005814
11.40001,-0.01005814
11.50001,-0.01005814
11.60001,-0.01005814
11.70001,-0.01005814
11.80001,-0.01005814
11.90001,-0.01005814
12.00001,-0.01005814
12.10001,-0.01005814
12.20001,-0.01005814
12.30001,-0.01005814
12.40001,-0.01005814
12.50001,-0.01005814
12.60001,-0.01005814
12.70001,-0.01005814
12.80001,-0.01005814
12.90001,-0.01005814
13.00001,-0.01005814
13.10001,-0.01005814
13.20001,-0.01005814
13.30001,-0.01005814
13.40001,-0.01005814
13.50002,-0.01005814
13.60002,-0.01005814
13.70002,-0.01005814
13.80002,-0.01005814
13.90002,-0.01005814
14.00002,-0.01005814
14.10002,-0.01005814
14.20002,-0.01005814
14.30002,-0.01005814
14.40002,-0.01005814
14.50002,-0.01005814
14.60002,-0.01005814
14.70002,-0.01005814
14.80002,-0.01005814
14.90002,-0.01005814
15.00002,-0.01005814
15.10002,-0.01005814
15.20002,-0.01005814
15.30002,-0.01005814
15.40002,-0.01005814
15.50002,-0.01005814
15.60002,-0.01005814
15.70002,-0.01005814
15.80002,-0.01005814
15.90002,-0.01005814
16.00002,-0.01000806
16.10003,-0.009922581
16.20003,-0.009843685
16.30003,-0.009766409
16.40003,-0.009687851
16.50003,-0.009615089
16.60003,-0.009545419
16.70003,-0.009469671
16.80003,-0.009400539
16.90003,-0.009332369
17.00003,-0.009267976
17.10003,-0.009198982
17.20003,-0.009141086
17.30003,-0.009075152
17.40003,-0.009012944
17.50003,-0.008957821
17.60003,-0.008894294
17.70003,-0.008840658
17.80003,-0.008783407
17.90003,-0.008725239
18.00003,-0.008673958
18.10003,-0.008621155
18.20003,-0.008563923
18.30003,-0.008517615
18.40003,-0.008471257
18.50003,-0.008416831
18.60003,-0.008370006
18.70004,-0.008320856
18.80004,-0.008267321
18.90004,-0.008223003
19.00004,-0.008179422
19.10004,-0.008130642
19.20004,-0.008088205
19.30004,-0.008048431
19.40004,-0.007999871
19.50004,-0.00795316
19.60004,-0.007911456
19.70004,-0.007865839
19.80004,-0.007821509
19.90004,-0.007781416
20.00004,-0.007733284
20.10004,-0.007693268
20.20004,-0.007654274
20.30004,-0.007608803
20.40004,-0.007569687
20.50004,-0.007530174
20.60004,-0.007487429
20.70004,-0.007446154
20.80004,-0.007410116
20.90004,-0.007367938
21.00004,-0.007325746
21.10004,-0.00728836
21.20004,-0.00724405
21.30005,-0.007205794
21.40005,-0.007167181
21.50005,-0.007127114
21.60005,-0.007084943
21.70005,-0.007046702
21.80005,-0.007007029
21.90005,-0.006967302
22.00005,-0.006929387
22.10005,-0.006889382
22.20005,-0.006849317
22.30005,-0.006812325
22.40005,-0.006771622
22.50005,-0.006731933
22.60005,-0.006693942
22.70005,-0.006653646
22.80005,-0.006614
22.90005,-0.006575815
23.00005,-0.006534724
23.10005,-0.00649563
23.20005,-0.006457259
23.30005,-0.00641648
23.40005,-0.00637772
23.50005,-0.006338927
23.60005,-0.006298697
23.70005,-0.006260957
23.80005,-0.006222733
23.90005,-0.006185545
24.00006,-0.006149468
24.10006,-0.00611364
24.20006,-0.006075714
24.30006,-0.006041753
24.40006,-0.006006901
24.50006,-0.005971732
24.60006,-0.005938231
24.70006,-0.00590425
24.80006,-0.005870429
24.90006,-0.005838818
25.00006,-0.005806008
25.10006,-0.005773093
25.20006,-0.005742298
25.30006,-0.005710904
25.40006,-0.005678442
25.50006,-0.005647735
25.60006,-0.005616785
25.70006,-0.005584774
25.80006,-0.005554579
25.90006,-0.005523653
26.00006,-0.005492259
26.10006,-0.005461537
26.20006,-0.005431815
26.30006,-0.005401116
26.40006,-0.005371273
26.50006,-0.005342891
26.60007,-0.005312367
26.70007,-0.00528481
26.80007,-0.005256528
26.90007,-0.005228482
27.00007,-0.005201315
27.10007,-0.00517397
27.20007,-0.005147062
27.30007,-0.005121171
27.40007,-0.005094948
27.50007,-0.005069132
27.60007,-0.005044027
27.70007,-0.005019406
27.80007,-0.004993919
27.90007,-0.004970203
28.00007,-0.004945938
28.10007,-0.004921765
28.20007,-0.004898772
28.30007,-0.004875584
28.40007,-0.00485196
28.50007,-0.004829898
28.60007,-0.004807125
28.70007,-0.00478482
28.80007,-0.004762762
28.90007,-0.004740828
29.00007,-0.004719301
29.10007,-0.004698459
29.20008,-0.004676683
29.30008,-0.004655299
29.40008,-0.004634599
29.50008,-0.004613782
29.60008,-0.004592523
29.70008,-0.004572352
29.80008,-0.004551984
29.90008,-0.004531523
30.00008,-0.004511803
30.10008,-0.00449254
30.20008,-0.004472455
30.30008,-0.004452808
30.40008,-0.004433994
30.50008,-0.004414361
30.60008,-0.004395363
30.70008,-0.00437705
30.80008,-0.004358049
30.90008,-0.004339224
31.00008,-0.004320849
31.10008,-0.004302809
31.20008,-0.004284963
31.30008,-0.004267469
31.40008,-0.004248909
31.50008,-0.004231698
31.60008,-0.004213655
31.70008,-0.004195869
31.80009,-0.004178856
31.90009,-0.004161505
32.00008,-0.004143676
32.10008,-0.004126839
32.20008,-0.004109743
32.30008,-0.004092418
32.40008,-0.004075705
32.50008,-0.004059527
32.60007,-0.004042688
32.70007,-0.004026208
32.80007,-0.004010021
32.90007,-0.003993428
33.00007,-0.003977392
33.10007,-0.00396179
33.20007,-0.003945586
33.30006,-0.003929706
33.40006,-0.003914184
33.50006,-0.003898392
33.60006,-0.003882742
33.70006,-0.003867752
33.80006,-0.003852022
33.90005,-0.00383652
34.00005,-0.003821661
34.10005,-0.00380648
34.20005,-0.003791271
34.30005,-0.003776762
34.40005,-0.003761833
34.50005,-0.00374693
34.60004,-0.003732221
34.70004,-0.00371803
34.80004,-0.003703135
34.90004,-0.003689091
35.00004,-0.00367479
35.10004,-0.00366039
35.20004,-0.003646151
35.30003,-0.00363211
35.40003,-0.003617983
35.50003,-0.00360428
35.60003,-0.003590393
35.70003,-0.003576475
35.80003,-0.003563076
35.90002,-0.003549616
36.00002,-0.003535425
36.10002,-0.003522713
36.20002,-0.003509017
36.30002,-0.00349522
36.40002,-0.003482322
36.50002,-0.003468932
36.60001,-0.003455357
36.70001,-0.003442676
36.80001,-0.003429753
36.90001,-0.003416482
37.00001,-0.003404117
37.10001,-0.003391301
37.2,-0.003377897
37.3,-0.003365857
37.4,-0.003353099
37.5,-0.003340622
37.6,-0.003328121
37.7,-0.003315465
37.8,-0.003302771
37.89999,-0.0032907
37.99999,-0.003278208
38.09999,-0.003265971
38.19999,-0.003254102
38.29999,-0.00324195
38.39999,-0.003230218
38.49998,-0.003218529
38.59998,-0.00320627
38.69998,-0.003194343
38.79998,-0.003182749
38.89998,-0.003170889
38.99998,-0.00315913
39.09998,-0.003147676
39.19997,-0.003136103
39.29997,-0.003124479
39.39997,-0.003113542
39.49997,-0.003102109
39.59997,-0.003090525
39.69997,-0.003079848
39.79996,-0.003068367
39.89996,-0.003057073
39.99996,-0.003046323
40.09996,-0.003035035
40.19996,-0.003024026
40.29996,-0.003013507
40.39996,-0.003002469
40.49995,-0.00299131
40.59995,-0.002980785
40.69995,-0.002970144
40.79995,-0.002959311
40.89995,-0.002949049
40.99995,-0.002938413
41.09995,-0.00292787
41.19994,-0.002917794
41.29994,-0.002907282
41.39994,-0.002896792
41.49994,-0.002886507
41.59994,-0.002876319
41.69994,-0.002866114
41.79993,-0.002856453
41.89993,-0.002846148
41.99993,-0.002835739
42.09993,-0.002826158
42.19993,-0.002816015
42.29993,-0.002805961
42.39993,-0.002796461
42.49992,-0.002786367
42.59992,-0.002776817
42.69992,-0.002767637
42.79992,-0.002757707
42.89992,-0.002747688
42.99992,-0.002738449
43.09991,-0.002728653
43.19991,-0.002719043
43.29991,-0.002709875
43.39991,-0.002700502
43.49991,-0.002690937
43.59991,-0.002681745
43.69991,-0.002672375
43.7999,-0.002662901
43.8999,-0.00265389
43.9999,-0.002644821
44.0999,-0.002635721
44.1999,-0.002626669
44.2999,-0.002617678
44.39989,-0.002608543
44.49989,-0.002599441
44.59989,-0.002590461
44.69989,-0.002581661
44.79989,-0.002572855
44.89989,-0.002564121
44.99989,-0.002555167
45.09988,-0.002546465
45.19988,-0.002537949
45.29988,-0.002529397
45.39988,-0.002520664
45.49988,-0.002512095
45.59988,-0.002503733
45.69987,-0.002494987
45.79987,-0.002486923
45.89987,-0.002478742
45.99987,-0.002470324
46.09987,-0.002462252
46.19987,-0.002453892
46.29987,-0.002445642
46.39986,-0.002437468
46.49986,-0.002429052
46.59986,-0.00242085
46.69986,-0.002412783
46.79986,-0.002404666
46.89986,-0.002396482
46.99986,-0.00238866
47.09985,-0.002380726
47.19985,-0.002372578
47.29985,-0.002364741
47.39985,-0.002356937
47.49985,-0.002348893
47.59985,-0.002341109
47.69984,-0.002333508
47.79984,-0.002325651
47.89984,-0.002318039
47.99984,-0.002310636
48.09984,-0.002302855
48.19984,-0.002295249
48.29984,-0.002287789
48.39983,-0.002280156
48.49983,-0.002272641
48.59983,-0.002265462
48.69983,-0.002257807
48.79983,-0.00225042
48.89983,-0.002243222
48.99982,-0.002235871
49.09982,-0.002228649
49.19982,-0.002221447
49.29982,-0.002214167
49.39982,-0.00220695
49.49982,-0.002199945
49.59982,-0.002192782
49.69981,-0.002185639
49.79981,-0.00217859
49.89981,-0.002171651
49.99981,-0.002164624
50.09981,-0.002157857
50.19981,-0.002150954
50.2998,-0.002143748
50.3998,-0.002137313
50.4998,-0.002130309
50.5998,-0.002123345
50.6998,-0.0021167
50.7998,-0.00210979
50.8998,-0.002103028
50.99979,-0.002096318
51.09979,-0.002089648
51.19979,-0.002082976
51.29979,-0.002076586
51.39979,-0.002069953
51.49979,-0.002063332
51.59978,-0.002056884
51.69978,-0.002050302
51.79978,-0.002043835
51.89978,-0.002037542
51.99978,-0.002031125
52.09978,-0.002024724
52.19978,-0.002018475
52.29977,-0.002011948
52.39977,-0.002005592
52.49977,-0.001999421
52.59977,-0.001993238
52.69977,-0.001987133
52.79977,-0.00198119
52.89977,-0.001974734
52.99976,-0.001968375
53.09976,-0.001962362
53.19976,-0.001956046
53.29976,-0.001950048
53.39976,-0.001944078
53.49976,-0.001938044
53.59975,-0.001931969
53.69975,-0.001926044
53.79975,-0.001920143
53.89975,-0.001914068
53.99975,-0.00190833
54.09975,-0.001902353
54.19975,-0.001896396
54.29974,-0.001890569
54.39974,-0.001884674
54.49974,-0.001878828
54.59974,-0.001873271
54.69974,-0.001867435
54.79974,-0.001861645
54.89973,-0.001856149
54.99973,-0.001850476
55.09973,-0.001844721
55.19973,-0.00183922
55.29973,-0.001833654
55.39973,-0.001827915
55.49973,-0.001822414
55.59972,-0.001816887
55.69972,-0.001811229
55.79972,-0.001805784
55.89972,-0.001800352
55.99972,-0.00179506
56.09972,-0.001789855
56.19971,-0.001784342
56.29971,-0.001778872
56.39971,-0.001773624
56.49971,-0.001768066
56.59971,-0.001762742
56.69971,-0.001757436
56.79971,-0.001752165
56.8997,-0.00174695
56.9997,-0.001741558
57.0997,-0.001736603
57.1997,-0.001731226
57.2997,-0.001725989
57.3997,-0.001721012
57.49969,-0.001715793
57.59969,-0.001710712
57.69969,-0.001705747
57.79969,-0.001700661
57.89969,-0.001695746
57.99969,-0.001690793
58.09969,-0.0016858
58.19968,-0.001680721
58.29968,-0.001675878
58.39968,-0.001670946
58.49968,-0.001665941
58.59968,-0.001661157
58.69968,-0.001656186
58.79967,-0.001651219
58.89967,-0.001646359
58.99967,-0.001641502
59.09967,-0.001636584
59.19967,-0.001631852
59.29967,-0.001627127
59.39967,-0.001622304
59.49966,-0.00161763
59.59966,-0.001612881
59.69966,-0.001608118
59.79966,-0.001603538
59.89966,-0.001598821
59.99966,-0.001594148
60.09966,-0.001589589
60.19965,-0.001585007
60.29965,-0.001580315
60.39965,-0.001575762
60.49965,-0.001571354
60.59965,-0.001566693
60.69965,-0.001562163
60.79964,-0.001557823
60.89964,-0.001553249
60.99964,-0.001548812
61.09964,-0.001544537
61.19964,-0.001540141
61.29964,-0.001535746
61.39964,-0.001531496
61.49963,-0.0015271
61.59963,-0.00152271
61.69963,-0.001518461
61.79963,-0.001514115
61.89963,-0.001509822
61.99963,-0.001505671
62.09962,-0.001501382
62.19962,-0.001497223
62.29962,-0.00149288
62.39962,-0.00148889
62.49962,-0.001484647
62.59962,-0.001480563
62.69962,-0.001476314
62.79961,-0.001472171
62.89961,-0.001468016
62.99961,-0.001463834
63.09961,-0.001459657
63.19961,-0.001455539
63.29961,-0.001451454
63.3996,-0.001447296
63.4996,-0.001443265
63.5996,-0.001439295
63.6996,-0.001435212
63.7996,-0.001431208
63.8996,-0.0014272
63.9996,-0.001423113
64.09959,-0.001419122
64.19959,-0.00141523
64.29959,-0.001411293
64.39959,-0.001407392
64.49959,-0.001403504
64.59959,-0.0013998
64.69958,-0.001396054
64.79958,-0.001392175
64.89958,-0.001388249
64.99958,-0.001384536
65.09958,-0.001380741
65.19958,-0.001376942
65.29958,-0.001373182
65.39957,-0.0013695
65.49957,-0.001365626
65.59957,-0.001361994
65.69957,-0.001358291
65.79957,-0.001354386
65.89957,-0.001350725
65.99957,-0.001347178
66.09956,-0.001343316
66.19956,-0.001339644
66.29956,-0.001336179
66.39956,-0.001332427
66.49956,-0.00132878
66.59956,-0.001325292
66.69955,-0.001321686
66.79955,-0.001317985
66.89955,-0.001314538
66.99955,-0.001310973
67.09955,-0.00130737
67.19955,-0.001303891
67.29955,-0.001300437
67.39954,-0.00129689
67.49954,-0.001293531
67.59954,-0.001290127
67.69954,-0.001286603
67.79954,-0.001283255
67.89954,-0.001279788
67.99953,-0.001276407
68.09953,-0.001273002
68.19953,-0.001269604
68.29953,-0.00126607
68.39953,-0.001262726
68.49953,-0.001259417
68.59953,-0.001255976
68.69952,-0.001252637
68.79952,-0.001249424
68.89952,-0.001246007
68.99952,-0.001242861
69.09952,-0.001239606
69.19952,-0.001236218
69.29951,-0.001232954
69.39951,-0.001229735
69.49951,-0.001226537
69.59951,-0.001223451
69.69951,-0.001220321
69.79951,-0.001217045
69.89951,-0.001213787
69.9995,-0.001210752
70.0995,-0.001207438
70.1995,-0.001204291
70.2995,-0.001201323
70.3995,-0.001197957
70.4995,-0.001195056
70.59949,-0.001191993
70.69949,-0.001188749
70.79949,-0.001185697
70.89949,-0.001182596
70.99949,-0.001179436
71.09949,-0.001176414
71.19949,-0.001173338
71.29948,-0.001170305
71.39948,-0.001167362
71.49948,-0.001164325
71.59948,-0.001161233
71.69948,-0.001158457
71.79948,-0.001155413
71.89948,-0.001152303
71.99947,-0.001149569
72.09947,-0.001146724
72.19947,-0.001143745
72.29947,-0.001140722
72.39947,-0.001137852
72.49947,-0.001134866
72.59946,-0.001132015
72.69946,-0.001129054
72.79946,-0.001126185
72.89946,-0.001123378
72.99946,-0.001120458
73.09946,-0.001117589
73.19946,-0.00111489
73.29945,-0.001111984
73.39945,-0.001109214
73.49945,-0.001106414
73.59945,-0.001103505
73.69945,-0.001100808
73.79945,-0.001098027
73.89944,-0.0010952
73.99944,-0.001092439
74.09944,-0.001089782
74.19944,-0.001086978
74.29944,-0.00108419
74.39944,-0.001081509
74.49944,-0.001078781
74.59943,-0.001075957
74.69943,-0.001073365
74.79943,-0.001070682
74.89943,-0.001068044
74.99943,-0.001065416
75.09943,-0.001062769
75.19942,-0.00106007
75.29942,-0.001057485
75.39942,-0.001054886
75.49942,-0.001052136
75.59942,-0.001049584
75.69942,-0.001047125
75.79942,-0.001044402
75.89941,-0.001041823
75.99941,-0.001039271
76.09941,-0.001036666
76.19941,-0.001034119
76.29941,-0.001031586
76.39941,-0.001028896
76.4994,-0.001026348
76.5994,-0.001023985
76.6994,-0.001021337
76.7994,-0.001019025
76.8994,-0.001016581
76.9994,-0.001013922
77.0994,-0.001011537
77.19939,-0.001009107
77.29939,-0.001006557
77.39939,-0.001004226
77.49939,-0.001001799
77.59939,-0.000999285
77.69939,-0.0009968884
77.79939,-0.0009945557
77.89938,-0.0009920949
77.99938,-0.0009895966
78.09938,-0.0009874796
78.19938,-0.0009849594
78.29938,-0.0009826344
78.39938,-0.0009803534
78.49937,-0.0009778268
78.59937,-0.0009755393
78.69937,-0.0009732104
78.79937,-0.0009708099
78.89937,-0.0009685234
78.99937,-0.0009662812
79.09937,-0.0009638656
79.19936,-0.0009616149
79.29936,-0.0009594311
79.39936,-0.0009569985
79.49936,-0.0009547233
79.59936,-0.0009525385
79.69936,-0.0009501229
79.79935,-0.0009479607
79.89935,-0.0009456535
79.99935,-0.0009433924
80.09935,-0.000941248
80.19935,-0.00093905
80.29935,-0.0009367409
80.39935,-0.0009345665
80.49934,-0.0009325775
80.59934,-0.0009302015
80.69934,-0.0009282022
80.79934,-0.000925993
80.89934,-0.0009238072
80.99934,-0.0009217024
81.09933,-0.0009195779
81.19933,-0.0009173516
81.29933,-0.0009152365
81.39933,-0.0009131392
81.49933,-0.0009111023
81.59933,-0.0009090465
81.69933,-0.0009068108
81.79932,-0.0009046194
81.89932,-0.0009026154
81.99932,-0.0009005059
82.09932,-0.0008983578
82.19932,-0.0008963416
82.29932,-0.0008942189
82.39931,-0.0008921255
82.49931,-0.0008901488
82.59931,-0.0008881061
82.69931,-0.000885991
82.79931,-0.0008840454
82.89931,-0.0008820103
82.99931,-0.0008798942
83.0993,-0.0008779835
83.1993,-0.0008758976
83.2993,-0.0008738238
83.3993,-0.0008719376
83.4993,-0.0008699148
83.5993,-0.0008678429
83.6993,-0.0008659453
83.79929,-0.0008639583
83.89929,-0.0008620145
83.99929,-0.0008602215
84.09929,-0.0008581657
84.19929,-0.000856174
84.29929,-0.0008543602
84.39928,-0.0008524898
84.49928,-0.0008504359
84.59928,-0.0008485751
84.69928,-0.0008466342
84.79928,-0.000844746
84.89928,-0.0008428767
84.99928,-0.0008410271
85.09927,-0.0008389769
85.19927,-0.0008371745
85.29927,-0.0008353258
85.39927,-0.0008333614
85.49927,-0.000831542
85.59927,-0.0008297056
85.69926,-0.0008277581
85.79926,-0.0008259679
85.89926,-0.0008241701
85.99926,-0.0008222998
86.09926,-0.0008206321
86.19926,-0.0008187251
86.29926,-0.0008168208
86.39925,-0.000815073
86.49925,-0.000813342
86.59925,-0.0008114323
86.69925,-0.0008097503
86.79925,-0.0008079262
86.89925,-0.0008061331
86.99924,-0.0008043298
87.09924,-0.0008026977
87.19924,-0.0008007418
87.29924,-0.0007990372
87.39924,-0.0007973468
87.49924,-0.0007955481
87.59924,-0.000793724
87.69923,-0.0007920543
87.79923,-0.0007902857
87.89923,-0.0007885049
87.99923,-0.0007868361
88.09923,-0.00078511
88.19923,-0.0007833253
88.29922,-0.0007816905
88.39922,-0.000779986
88.49922,-0.0007782466
88.59922,-0.0007765722
88.69922,-0.000774879
88.79922,-0.0007732695
88.89922,-0.0007716233
88.99921,-0.0007699019
89.09921,-0.0007682604
89.19921,-0.0007666162
89.29921,-0.0007649597
89.39921,-0.0007632647
89.49921,-0.000761708
89.59921,-0.0007600429
89.6992,-0.0007583789
89.7992,-0.0007569079
89.8992,-0.0007553343
89.9992,-0.0007538764
90.0992,-0.0007522558
90.1992,-0.0007506275
90.29919,-0.0007490444
90.39919,-0.0007474463
90.49919,-0.0007457521
90.59919,-0.0007442153
90.69919,-0.0007426774
90.79919,-0.0007409945
90.89919,-0.0007394435
90.99918,-0.0007379132
91.09918,-0.0007363471
91.19918,-0.0007347856
91.29918,-0.0007332648
91.39918,-0.0007316704
91.49918,-0.0007301561
91.59917,-0.0007286814
91.69917,-0.0007270795
91.79917,-0.0007255275
91.89917,-0.0007240481
91.99917,-0.0007224791
92.09917,-0.000720963
92.19917,-0.0007195052
92.29916,-0.0007179974
92.39916,-0.0007163823
92.49916,-0.0007149359
92.59916,-0.0007133792
92.69916,-0.000711961
92.79916,-0.0007106002
92.89915,-0.0007091028
92.99915,-0.0007076883
93.09915,-0.0007061599
93.19915,-0.0007047416
93.29915,-0.0007032179
93.39915,-0.0007019052
93.49915,-0.0007004096
93.59914,-0.0006989311
93.69914,-0.0006975995
93.79914,-0.0006961511
93.89914,-0.0006946716
93.99914,-0.0006933033
94.09914,-0.0006918493
94.19913,-0.0006904179
94.29913,-0.0006890204
94.39913,-0.0006876342
94.49913,-0.0006861942
94.59913,-0.0006847967
94.69913,-0.0006833483
94.79913,-0.0006819904
94.89912,-0.000680719
94.99912,-0.0006792499
95.09912,-0.0006778279
95.19912,-0.0006765132
95.29912,-0.0006750733
95.39912,-0.00067372
95.49911,-0.000672379
95.59911,-0.0006709552
95.69911,-0.0006697262
95.79911,-0.0006684727
95.89911,-0.000666998
95.99911,-0.0006656644
96.09911,-0.0006644129
96.1991,-0.0006630013
96.2991,-0.0006616641
96.3991,-0.0006603503
96.4991,-0.0006590093
96.5991,-0.0006576513
96.6991,-0.000656412
96.7991,-0.0006550569
96.89909,-0.0006537318
96.99909,-0.0006525508
97.09909,-0.0006511929
97.19909,-0.0006499027
97.29909,-0.0006486484
97.39909,-0.0006472998
97.49908,-0.0006460416
97.59908,-0.0006448023
97.69908,-0.000643434
97.79908,-0.0006421381
97.89908,-0.0006409383
97.99908,-0.0006396491
98.09908,-0.0006382959
98.19907,-0.000637082
98.29907,-0.000635855
98.39907,-0.0006344885
98.49907,-0.0006333461
98.59907,-0.0006320777
98.69907,-0.0006308223
98.79906,-0.0006296103
98.89906,-0.0006283493
98.99906,-0.000627062
99.09906,-0.0006258679
99.19906,-0.0006246784
99.29906,-0.0006233676
99.39906,-0.0006222149
99.49905,-0.0006210076
99.59905,-0.000619805
99.69905,-0.0006186485
99.79905,-0.0006174431
99.89905,-0.0006161925
99.99905,-0.0006150512
100.099,-0.0006138862
100.199,-0.0006127213
100.299,-0.000611514
100.399,-0.0006102869
100.499,-0.000609091
100.599,-0.0006079778
100.699,-0.0006067987
100.799,-0.0006055811
100.899,-0.0006044406
100.999,-0.0006033407
101.099,-0.0006021211
101.199,-0.00060096
101.299,-0.0005998394
101.399,-0.0005986519
101.499,-0.0005975707
101.599,-0.0005964529
101.699,-0.0005952842
101.799,-0.0005941758
101.899,-0.0005930786
101.999,-0.0005919118
102.099,-0.0005907582
102.199,-0.0005897195
102.299,-0.0005885678
102.399,-0.0005874998
102.499,-0.0005863943
102.599,-0.0005852915
102.699,-0.0005841868
102.799,-0.000583166
102.899,-0.0005819945
102.999,-0.000580936
103.099,-0.0005799028
103.199,-0.0005788133
103.299,-0.0005776907
103.399,-0.0005767349
103.499,-0.0005756688
103.599,-0.0005745378
103.699,-0.0005735076
103.799,-0.000572434
103.899,-0.0005713557
103.999,-0.0005703038
104.099,-0.0005692651
104.199,-0.0005681444
104.299,-0.0005671424
104.399,-0.0005661132
104.499,-0.0005650546
104.599,-0.0005640337
104.699,-0.0005629602
104.799,-0.0005618631
104.899,-0.0005608846
104.999,-0.0005598026
105.099,-0.0005587224
105.199,-0.0005577713
105.299,-0.0005567363
105.399,-0.0005556599
105.499,-0.0005546598
105.599,-0.0005537218
105.699,-0.0005526764
105.799,-0.0005516924
105.899,-0.0005506819
105.999,-0.0005496488
106.099,-0.0005486902
106.199,-0.0005477032
106.299,-0.0005467041
106.3989,-0.0005457331
106.4989,-0.0005447885
106.5989,-0.0005437263
106.6989,-0.0005427987
106.7989,-0.0005418466
106.8989,-0.0005408408
106.9989,-0.0005399961
107.0989,-0.0005390676
107.1989,-0.0005379648
107.2989,-0.0005370475
107.3989,-0.0005361086
107.4989,-0.0005350671
107.5989,-0.0005342063
107.6989,-0.0005332128
107.7989,-0.0005322108
107.8989,-0.0005312992
107.9989,-0.0005303961
108.0989,-0.0005293931
108.1989,-0.0005284721
108.2989,-0.0005275502
108.3989,-0.0005265727
108.4989,-0.0005257034
108.5989,-0.0005247758
108.6989,-0.0005237559
108.7989,-0.0005228961
108.8989,-0.0005220165
108.9989,-0.0005210532
109.0989,-0.0005201227
109.1989,-0.0005192262
109.2989,-0.0005183024
109.3989,-0.0005174096
109.4989,-0.0005165272
109.5989,-0.0005155713
109.6989,-0.0005147822
109.7989,-0.0005138744
109.8989,-0.000512943
109.9989,-0.0005120869
110.0989,-0.0005111819
110.1989,-0.0005102694
110.2989,-0.000509468
110.3989,-0.0005085573
110.4989,-0.0005076241
110.5989,-0.0005067454
110.6989,-0.0005059064
110.7989,-0.0005049844
110.8989,-0.0005041265
110.9989,-0.0005032601
111.0989,-0.0005023823
111.1989,-0.0005015348
111.2989,-0.000500692
111.3989,-0.0004998689
111.4989,-0.0004990656
111.5989,-0.0004982124
111.6989,-0.0004973432
111.7989,-0.0004965654
111.8989,-0.0004956933
111.9989,-0.0004947883
112.0989,-0.0004939407
112.1989,-0.0004931195
112.2989,-0.0004922795
112.3989,-0.0004913933
112.4989,-0.0004906041
112.5989,-0.0004897481
112.6989,-0.0004889157
112.7989,-0.0004880766
112.8988,-0.0004872535
112.9988,-0.000486438
113.0988,-0.0004856582
113.1988,-0.0004848012
113.2988,-0.0004839358
113.3988,-0.0004831023
113.4988,-0.0004823536
113.5988,-0.0004814712
113.6988,-0.0004806444
113.7988,-0.0004798204
113.8988,-0.0004789964
113.9988,-0.0004781903
114.0988,-0.0004774067
114.1988,-0.0004766223
114.2988,-0.0004758275
114.3988,-0.0004750477
114.4988,-0.0004742105
114.5988,-0.0004734609
114.6988,-0.0004726859
114.7988,-0.0004718618
114.8988,-0.0004711151
114.9988,-0.0004702797
115.0988,-0.0004695527
115.1988,-0.0004687984
115.2988,-0.0004680243
115.3988,-0.0004672803
115.4988,-0.0004664309
115.5988,-0.0004657585
115.6988,-0.0004649617
115.7988,-0.000464134
115.8988,-0.0004634164
115.9988,-0.0004626206
116.0988,-0.000461903
116.1988,-0.0004612306
116.2988,-0.0004604424
116.3988,-0.0004596758
116.4988,-0.000458914
116.5988,-0.0004582077
116.6988,-0.0004574514
116.7988,-0.0004567197
116.8988,-0.0004559748
116.9988,-0.0004551583
117.0988,-0.0004544991
117.1988,-0.0004537203
117.2988,-0.0004530799
117.3988,-0.0004523397
117.4988,-0.0004515402
117.5988,-0.0004508245
117.6988,-0.0004500975
117.7988,-0.0004493902
117.8988,-0.0004486105
117.9988,-0.0004479437
118.0988,-0.0004471979
118.1988,-0.0004464389
118.2988,-0.0004457646
118.3988,-0.0004449895
118.4988,-0.0004442663
118.5988,-0.0004435694
118.6988,-0.0004428584
118.7988,-0.00044217
118.8988,-0.0004415682
118.9988,-0.0004409363
119.0988,-0.0004402159
119.1988,-0.0004395313
119.2988,-0.0004388353
119.3988,-0.0004380744
119.4987,-0.0004375018
119.5987,-0.0004367795
119.6987,-0.0004360977
119.7987,-0.0004354206
119.8987,-0.0004347294
119.9987,-0.0004340608
120.0987,-0.0004333328
120.1987,-0.0004326509
120.2987,-0.0004319446
120.3987,-0.0004313024
120.4987,-0.0004306573
120.5987,-0.0004299557
120.6987,-0.0004292165
120.7987,-0.0004286749
120.8987,-0.0004279978
120.9987,-0.0004273123
121.0987,-0.0004266295
121.1987,-0.0004259807
121.2987,-0.0004252584
121.3987,-0.0004246105
121.4987,-0.0004239409
121.5987,-0.0004233156
121.6987,-0.0004226328
121.7987,-0.0004219538
121.8987,-0.0004213304
121.9987,-0.0004206091
122.0987,-0.0004200628
122.1987,-0.0004194093
122.2987,-0.0004187133
122.3987,-0.0004181041
122.4987,-0.0004175013
122.5987,-0.0004167856
122.6987,-0.0004161245
122.7987,-0.0004155473
122.8987,-0.0004148795
122.9987,-0.0004142062
123.0987,-0.0004136289
123.1987,-0.0004129773
123.2987,-0.0004123143
123.3987,-0.0004117304
123.4987,-0.0004111314
123.5987,-0.0004104214
123.6987,-0.000409846
123.7987,-0.0004093036
123.8987,-0.0004085878
123.9987,-0.0004079494
124.0987,-0.0004073871
124.1987,-0.0004067053
124.2987,-0.0004061158
124.3987,-0.0004054763
124.4987,-0.0004048284
124.5987,-0.000404206
124.6987,-0.000403673
124.7987,-0.0004029911
124.8987,-0.0004023658
124.9987,-0.0004017622
125.0987,-0.0004011067
125.1987,-0.0004005153
125.2987,-0.0003999832
125.3987,-0.0003992939
125.4987,-0.0003987675
125.5987,-0.0003982552
125.6987,-0.0003975865
125.7987,-0.0003970008
125.8987,-0.0003964273
125.9986,-0.000395833
126.0986,-0.0003952576
126.1986,-0.0003946766
126.2986,-0.000394072
126.3986,-0.0003935719
126.4986,-0.0003929947
126.5986,-0.000392311
126.6986,-0.0003918589
126.7986,-0.0003913137
126.8986,-0.0003905942
126.9986,-0.0003900367
127.0986,-0.0003894895
127.1986,-0.0003888115
127.2986,-0.0003883274
127.3986,-0.0003877614
127.4986,-0.0003871249
127.5986,-0.000386589
127.6986,-0.000386072
127.7986,-0.0003853874
127.8986,-0.0003848892
127.9986,-0.0003843599
128.0986,-0.0003837186
128.1986,-0.0003831667
128.2986,-0.0003827109
128.3986,-0.0003820602
128.4986,-0.0003814952
128.5986,-0.0003809386
128.6987,-0.0003804169
128.7987,-0.0003799084
128.8987,-0.0003794648
128.9987,-0.0003787783
129.0987,-0.0003781925
129.1987,-0.0003777066
129.2987,-0.0003771199
129.3987,-0.0003765746
129.4987,-0.0003760331
129.5987,-0.0003754907
129.6987,-0.0003750556
129.7987,-0.0003745659
129.8987,-0.0003738897
129.9987,-0.0003733727
130.0987,-0.0003729179
130.1987,-0.000372317
130.2988,-0.0003718038
130.3988,-0.0003713085
130.4988,-0.0003707255
130.5988,-0.0003701822
130.6988,-0.0003697075
130.7988,-0.0003691679
130.8988,-0.0003686104
130.9988,-0.0003681819
131.0988,-0.0003675557
131.1988,-0.0003669887
131.2988,-0.0003665207
131.3988,-0.0003659528
131.4988,-0.0003654349
131.5988,-0.0003649216
131.6988,-0.0003644197
131.7988,-0.0003638716
131.8988,-0.0003634252
131.9989,-0.000362879
132.0989,-0.0003623686
132.1989,-0.0003618808
132.2989,-0.0003613477
132.3989,-0.0003608534
132.4989,-0.0003603646
132.5989,-0.0003598608
132.6989,-0.0003593212
132.7989,-0.0003588249
132.8989,-0.0003583399
132.9989,-0.0003578031
133.0989,-0.0003573501
133.1989,-0.0003568642
133.2989,-0.0003563171
133.3989,-0.0003558452
133.4989,-0.0003553084
133.599,-0.0003548611
133.699,-0.0003543752
133.799,-0.000353878
133.899,-0.0003533873
133.999,-0.0003528778
134.099,-0.0003524201
134.199,-0.0003518937
134.299,-0.0003514144
134.399,-0.000350936
134.499,-0.0003504783
134.599,-0.0003500847
134.699,-0.0003495403
134.799,-0.0003490827
134.899,-0.0003485666
134.999,-0.0003480957
135.099,-0.0003476597
135.1991,-0.0003471709
135.2991,-0.0003466615
135.3991,-0.0003462085
135.4991,-0.0003457339
135.5991,-0.0003452347
135.6991,-0.0003447987
135.7991,-0.0003443401
135.8991,-0.0003438448
135.9991,-0.0003434248
136.0991,-0.0003429463
136.1991,-0.0003424594
136.2991,-0.0003420037
136.3991,-0.0003415808
136.4991,-0.0003411034
136.5991,-0.0003406702
136.6991,-0.0003402181
136.7991,-0.0003397077
136.8992,-0.0003393113
136.9992,-0.0003388695
137.0992,-0.0003383196
137.1992,-0.000337926
137.2992,-0.0003374974
137.3992,-0.0003369918
137.4992,-0.0003365567
137.5992,-0.000336164
137.6992,-0.0003356903
137.7992,-0.0003351949
137.8992,-0.0003348635
137.9992,-0.0003343803
138.0992,-0.0003338822
138.1992,-0.000333497
138.2992,-0.0003330393
138.3992,-0.0003325572
138.4993,-0.0003321465
138.5993,-0.0003316927
138.6993,-0.0003312189
138.7993,-0.0003307952
138.8993,-0.0003303874
138.9993,-0.0003299486
139.0993,-0.0003294918
139.1993,-0.0003290897
139.2993,-0.0003286621
139.3993,-0.0003282402
139.4993,-0.0003277685
139.5993,-0.0003273974
139.6993,-0.000326984
139.7993,-0.0003265404
139.8993,-0.0003261496
139.9993,-0.000325723
140.0993,-0.0003252446
140.1994,-0.0003248764
140.2994,-0.0003243791
140.3994,-0.0003238735
140.4994,-0.0003234826
140.5994,-0.0003230852
140.6994,-0.0003226247
140.7994,-0.0003221868
140.8994,-0.0003218035
140.9994,-0.0003213618
141.0994,-0.0003209362
141.1994,-0.0003205331
141.2994,-0.0003201028
141.3994,-0.0003196875
141.4994,-0.0003192825
141.5994,-0.0003188681
141.6994,-0.0003184717
141.7995,-0.0003180648
141.8995,-0.0003176712
141.9995,-0.0003172955
142.0995,-0.000316835
142.1995,-0.0003163782
142.2995,-0.0003160458
142.3995,-0.000315638
142.4995,-0.0003152048
142.5995,-0.000314797
142.6995,-0.0003144053
142.7995,-0.0003139815
142.8995,-0.0003135803
142.9995,-0.0003131952
143.0995,-0.0003127789
143.1995,-0.0003123777
143.2995,-0.0003120095
143.3996,-0.0003116017
143.4996,-0.0003112109
143.5996,-0.0003108173
143.6996,-0.0003104284
143.7996,-0.000310014
143.8996,-0.000309626
143.9996,-0.0003092747
144.0996,-0.0003088566
144.1996,-0.0003085289
144.2996,-0.0003081305
144.3996,-0.0003077011
144.4996,-0.000307315
144.5996,-0.00030691
144.6996,-0.0003065757
144.7996,-0.0003061557
144.8996,-0.0003058007
144.9996,-0.0003053939
145.0997,-0.0003049983
145.1997,-0.0003046565
145.2997,-0.0003042948
145.3997,-0.0003039257
145.4997,-0.0003035584
145.5997,-0.0003031921
145.6997,-0.0003028352
145.7997,-0.0003024189
145.8997,-0.0003020724
145.9997,-0.0003016938
146.0997,-0.0003013406
146.1997,-0.0003009395
146.2997,-0.0003005628
146.3997,-0.0003001785
146.4997,-0.0002998009
146.5997,-0.000299476
146.6998,-0.0002990993
146.7998,-0.0002987537
146.8998,-0.0002984015
146.9998,-0.0002980154
147.0998,-0.0002976604
147.1998,-0.0002972696
147.2998,-0.0002968778
147.3998,-0.0002965397
147.4998,-0.0002962082
147.5998,-0.0002958598
147.6998,-0.0002954784
147.7998,-0.0002951836
147.8998,-0.0002948041
147.9998,-0.0002944199
148.0998,-0.0002940761
148.1998,-0.0002936853
148.2999,-0.000293334
148.3999,-0.0002929753
148.4999,-0.0002926277
148.5999,-0.0002922831
148.6999,-0.0002919318
148.7999,-0.0002915137
148.8999,-0.0002911709
148.9999,-0.0002908771
149.0999,-0.0002905315
149.1999,-0.0002901623
149.2999,-0.0002898063
149.3999,-0.0002894494
149.4999,-0.000289149
149.5999,-0.0002887911
149.6999,-0.0002884361
149.7999,-0.0002880801
149.8999,-0.0002876903
150,-0.0002873945
150.1,-0.0002870263
150.2,-0.0002866713
150.3,-0.0002862993
150.4,-0.0002859923
150.5,-0.000285658
150.6,-0.0002852879
150.7,-0.0002849752
150.8,-0.000284623
150.9,-0.0002843226
151,-0.0002840316
151.1,-0.0002836841
151.2,-0.0002833545
151.3,-0.000282992
151.4,-0.000282684
151.5,-0.0002823704
151.6001,-0.0002820389
151.7001,-0.0002816716
151.8001,-0.0002813618
151.9001,-0.0002810491
152.0001,-0.0002807158
152.1001,-0.000280389
152.2001,-0.0002800528
152.3001,-0.0002798014
152.4001,-0.0002794623
152.5001,-0.0002791271
152.6001,-0.0002787843
152.7001,-0.0002784566
152.8001,-0.0002781223
152.9001,-0.0002777625
153.0001,-0.0002774649
153.1001,-0.000277157
153.2001,-0.0002768029
153.3002,-0.0002765006
153.4002,-0.0002761446
153.5002,-0.0002758659
153.6002,-0.0002755673
153.7002,-0.0002752471
153.8002,-0.0002748573
153.9002,-0.000274619
154.0002,-0.0002743299
154.1002,-0.0002739551
154.2002,-0.0002736208
154.3002,-0.0002733298
154.4002,-0.0002730312
154.5002,-0.0002727224
154.6002,-0.0002724351
154.7002,-0.0002721027
154.8002,-0.0002718089
154.9003,-0.0002715038
155.0003,-0.0002711572
155.1003,-0.0002708662
155.2003,-0.0002706054
155.3003,-0.000270207
155.4003,-0.0002699668
155.5003,-0.0002696316
155.6003,-0.0002692803
155.7003,-0.0002690138
155.8003,-0.0002687464
155.9003,-0.0002683904
156.0003,-0.0002680872
156.1003,-0.0002677773
156.2003,-0.0002674779
156.3003,-0.0002672302
156.4003,-0.000266877
156.5004,-0.0002665785
156.6004,-0.0002663101
156.7004,-0.0002660087
156.8004,-0.0002656735
156.9004,-0.0002654136
157.0004,-0.0002650821
157.1004,-0.0002647742
157.2004,-0.000264519
157.3004,-0.0002642393
157.4004,-0.0002638739
157.5004,-0.0002636865
157.6004,-0.0002633738
157.7004,-0.0002630141
157.8004,-0.0002627786
157.9004,-0.0002624829
158.0004,-0.0002621448
158.1004,-0.0002618482
158.2005,-0.0002616024
158.3005,-0.0002612549
158.4005,-0.0002610063
158.5005,-0.0002607511
158.6005,-0.0002603904
158.7005,-0.0002601088
158.8005,-0.0002598678
158.9005,-0.0002595287
159.0005,-0.0002592537
159.1005,-0.0002589806
159.2005,-0.0002586529
159.3005,-0.0002583685
159.4005,-0.0002581585
159.5005,-0.0002578063
159.6005,-0.0002575209
159.7005,-0.0002572563
159.8006,-0.0002569795
159.9006,-0.0002567177
160.0006,-0.0002564031
160.1006,-0.0002561046
160.2006,-0.000255871
160.3006,-0.0002555857
160.4006,-0.0002552702
160.5006,-0.0002549924
160.6006,-0.0002547786
160.7006,-0.0002544415
160.8006,-0.0002541966
160.9006,-0.0002538915
161.0006,-0.0002535779
161.1006,-0.0002533453
161.2006,-0.0002530901
161.3006,-0.0002528038
161.4007,-0.0002525684
161.5007,-0.0002522717
161.6007,-0.0002520551
161.7007,-0.0002518489
161.8007,-0.0002515061
161.9007,-0.0002512085
162.0007,-0.0002509637
162.1007,-0.0002506783
162.2007,-0.0002503628
162.3007,-0.0002501274
162.4007,-0.0002498308
162.5007,-0.0002495285
162.6007,-0.0002492346
162.7007,-0.000249051
162.8007,-0.0002486969
162.9007,-0.0002484568
163.0007,-0.0002482053
163.1008,-0.0002478597
163.2008,-0.0002476657
163.3008,-0.0002473917
163.4008,-0.0002471233
163.5008,-0.0002468681
163.6008,-0.0002465705
163.7008,-0.000246287
163.8008,-0.0002460262
163.9008,-0.0002457512
164.0008,-0.0002454583
164.1008,-0.0002451862
164.2008,-0.0002449592
164.3008,-0.0002446899
164.4008,-0.0002444478
164.5008,-0.0002441719
164.6008,-0.0002438894
164.7009,-0.0002436615
164.8009,-0.0002433959
164.9009,-0.0002431087
165.0009,-0.000242861
165.1009,-0.000242618
165.2009,-0.0002423459
165.3009,-0.0002421105
165.4009,-0.0002418957
165.5009,-0.0002416198
165.6009,-0.0002413721
165.7009,-0.0002411207
165.8009,-0.0002408419
165.9009,-0.000240615
166.0009,-0.0002403513
166.1009,-0.0002400499
166.2009,-0.0002398192
166.3009,-0.0002396309
166.401,-0.0002393455
166.501,-0.0002391638
166.601,-0.0002388944
166.701,-0.000238546
166.801,-0.0002383388
166.901,-0.0002381599
167.001,-0.0002378416
167.101,-0.0002376278
167.201,-0.0002373622
167.301,-0.000237092
167.401,-0.0002368612
167.501,-0.0002366672
167.601,-0.0002363753
167.701,-0.0002361276
167.801,-0.0002359082
167.901,-0.0002356238
168.0011,-0.0002354044
168.1011,-0.0002351982
168.2011,-0.0002349279
168.3011,-0.0002346774
168.4011,-0.00023449
168.5011,-0.0002342112
168.6011,-0.000233972
168.7011,-0.0002338081
168.8011,-0.00023352
168.9011,-0.0002332487
169.0011,-0.0002330519
169.1011,-0.0002327788
169.2011,-0.0002325415
169.3011,-0.0002323277
169.4011,-0.0002320716
169.5011,-0.0002318239
169.6012,-0.0002315932
169.7012,-0.0002313653
169.8012,-0.0002311365
169.9012,-0.0002309217
170.0012,-0.0002306665
170.1012,-0.0002304499
170.2012,-0.0002302145
170.3012,-0.0002299659
170.4012,-0.0002297154
170.5012,-0.0002295365
170.6012,-0.0002292304
170.7012,-0.0002290656
170.8012,-0.0002288358
170.9012,-0.0002285825
171.0012,-0.0002283649
171.1012,-0.0002281982
171.2012,-0.0002279496
171.3013,-0.0002277396
171.4013,-0.0002274646
171.5013,-0.0002272396
171.6013,-0.000227039
171.7013,-0.0002268563
171.8013,-0.0002266029
171.9013,-0.0002263562
172.0013,-0.0002261575
172.1013,-0.0002258948
172.2013,-0.0002257055
172.3013,-0.0002254833
172.4013,-0.0002252883
172.5013,-0.000225034
172.6013,-0.000224824
172.7013,-0.0002245867
172.8013,-0.0002243343
172.9014,-0.0002241083
173.0014,-0.0002239115
173.1014,-0.0002236469
173.2014,-0.0002234369
173.3014,-0.0002232212
173.4014,-0.0002230065
173.5014,-0.0002227833
173.6014,-0.0002225629
173.7014,-0.0002223473
173.8014,-0.0002220977
173.9014,-0.0002219178
174.0014,-0.0002217257
174.1014,-0.0002214865
174.2014,-0.0002212407
174.3014,-0.0002210364
174.4014,-0.0002208292
174.5014,-0.0002206079
174.6015,-0.0002204422
174.7015,-0.0002201851
174.8015,-0.0002199948
174.9015,-0.0002197924
175.0015,-0.0002195409
175.1015,-0.00021933
175.2015,-0.0002191303
175.3015,-0.000218909
175.4015,-0.0002187
175.5015,-0.0002184946
175.6015,-0.0002183025
175.7015,-0.000218053
175.8015,-0.0002178938
175.9015,-0.0002176697
176.0015,-0.0002174324
176.1015,-0.0002172497
176.2016,-0.0002170406
176.3016,-0.0002168353
176.4016,-0.0002166093
176.5016,-0.0002163824
176.6016,-0.0002161657
176.7016,-0.0002159755
176.8016,-0.0002157928
176.9016,-0.0002155508
177.0016,-0.000215353
177.1016,-0.0002151355
177.2016,-0.0002149509
177.3016,-0.0002147739
177.4016,-0.0002145874
177.5016,-0.0002143143
177.6016,-0.000214222
177.7016,-0.0002140374
177.8017,-0.0002138189
177.9017,-0.0002135948
178.0017,-0.0002134498
178.1017,-0.0002131673
178.2017,-0.0002129799
178.3017,-0.0002127765
178.4017,-0.0002125815
178.5017,-0.0002123546
178.6017,-0.0002121493
178.7017,-0.0002119553
178.8017,-0.000211733
178.9017,-0.0002115692
179.0017,-0.000211329
179.1017,-0.0002111312
179.2017,-0.0002109363
179.3017,-0.0002107649
179.4017,-0.0002105559
179.5018,-0.0002103308
179.6018,-0.0002100822
179.7018,-0.0002099494
179.8018,-0.0002097281
179.9018,-0.000209535
180.0018,-0.0002093033
180.1018,-0.0002091291
180.2018,-0.0002089097
180.3018,-0.0002087214
180.4018,-0.0002085179
180.5018,-0.0002083362
180.6018,-0.0002081215
180.7018,-0.0002079322
180.8018,-0.0002077636
180.9018,-0.0002075527
181.0018,-0.000207338
181.1019,-0.0002071656
181.2019,-0.0002069914
181.3019,-0.0002067993
181.4019,-0.0002066392
181.5019,-0.0002064169
181.6019,-0.0002062116
181.7019,-0.0002060412
181.8019,-0.0002058726
181.9019,-0.0002056259
182.0019,-0.0002054602
182.1019,-0.0002052784
182.2019,-0.0002050825
182.3019,-0.0002049149
182.4019,-0.0002046813
182.5019,-0.0002044977
182.6019,-0.0002043244
182.702,-0.0002041445
182.802,-0.0002039298
182.902,-0.0002037782
183.002,-0.0002035927
183.102,-0.000203394
183.202,-0.0002032339
183.302,-0.000203055
183.402,-0.0002028167
183.502,-0.0002026868
183.602,-0.0002025125
183.702,-0.0002022743
183.802,-0.0002021227
183.902,-0.0002019456
184.002,-0.0002017412
184.102,-0.0002015925
184.202,-0.000201405
184.302,-0.0002012186
184.4021,-0.0002010585
184.5021,-0.0002008927
184.6021,-0.0002006893
184.7021,-0.0002005829
184.8021,-0.0002004125
184.9021,-0.0002001799
185.0021,-0.0002000386
185.1021,-0.0001998239
185.2021,-0.0001995998
185.3021,-0.0001994528
185.4021,-0.0001992692
185.5021,-0.0001990639
185.6021,-0.0001989132
185.7021,-0.0001987729
185.8021,-0.0001985243
185.9021,-0.0001983868
186.0022,-0.0001982163
186.1022,-0.0001980129
186.2022,-0.0001978425
186.3022,-0.0001976767
186.4022,-0.0001974724
186.5022,-0.0001973584
186.6022,-0.000197172
186.7022,-0.0001969704
186.8022,-0.000196815
186.9022,-0.0001966229
187.0022,-0.0001964647
187.1022,-0.0001963197
187.2022,-0.0001961163
187.3022,-0.0001959722
187.4022,-0.000195782
187.5022,-0.0001956511
187.6022,-0.000195426
187.7023,-0.0001952537
187.8023,-0.0001950615
187.9023,-0.0001949193
188.0023,-0.0001947658
188.1023,-0.0001945521
188.2023,-0.0001943863
188.3023,-0.0001942479
188.4023,-0.0001940643
188.5023,-0.0001938646
188.6023,-0.0001937215
188.7023,-0.0001935425
188.8023,-0.0001933956
188.9023,-0.0001932468
189.0023,-0.0001930114
189.1023,-0.0001928532
189.2023,-0.0001927449
189.3024,-0.0001925471
189.4024,-0.0001923465
189.5024,-0.0001922043
189.6024,-0.0001920188
189.7024,-0.0001918173
189.8024,-0.0001916967
189.9024,-0.000191579
190.0024,-0.0001913323
190.1024,-0.0001912146
190.2024,-0.0001910517
190.3024,-0.0001908473
190.4024,-0.0001906947
190.5024,-0.0001905516
190.6024,-0.0001903548
190.7024,-0.0001902003
190.8024,-0.0001900619
190.9025,-0.0001898396
191.0025,-0.0001897153
191.1025,-0.0001895609
191.2025,-0.0001893547
191.3025,-0.0001892021
191.4025,-0.0001890665
191.5025,-0.0001888904
191.6025,-0.0001887717
191.7025,-0.0001885523
191.8025,-0.0001884092
191.9025,-0.0001882811
192.0025,-0.0001880993
192.1025,-0.0001879091
192.2025,-0.0001877848
192.3025,-0.0001876614
192.4025,-0.0001874552
192.5025,-0.0001873177
192.6026,-0.0001871586
192.7026,-0.0001870079
192.8026,-0.0001868873
192.9026,-0.0001867715
193.0026,-0.0001865059
193.1026,-0.0001863637
193.2026,-0.0001862413
193.3026,-0.0001860718
193.4026,-0.0001859023
193.5026,-0.0001857601
193.6026,-0.0001855981
193.7026,-0.0001855143
193.8026,-0.0001853156
193.9026,-0.0001851093
194.0026,-0.0001849728
194.1026,-0.000184873
194.2027,-0.0001846667
194.3027,-0.0001845236
194.4027,-0.0001843437
194.5027,-0.000184145
194.6027,-0.000184031
194.7027,-0.0001839651
194.8027,-0.0001837137
194.9027,-0.0001835724
195.0027,-0.0001834368
195.1027,-0.0001832541
195.2027,-0.0001830884
195.3027,-0.0001830121
195.4027,-0.0001827974
195.5027,-0.0001826514
195.6027,-0.0001825111
195.7027,-0.0001823698
195.8027,-0.000182206
195.9028,-0.000182077
196.0028,-0.0001818849
196.1028,-0.0001817135
196.2028,-0.0001815807
196.3028,-0.0001814112
196.4028,-0.0001813113
196.5028,-0.0001811324
196.6028,-0.0001809827
196.7028,-0.0001808433
196.8028,-0.0001806813
196.9028,-0.000180558
197.0028,-0.0001803621
197.1028,-0.0001802491
197.2028,-0.0001800965
197.3028,-0.0001799957
197.4028,-0.0001798074
197.5029,-0.0001796275
197.6029,-0.0001795211
197.7029,-0.0001793996
197.8029,-0.0001792367
197.9029,-0.0001791086
198.0029,-0.0001789372
198.1029,-0.0001788214
198.2029,-0.0001786528
198.3029,-0.0001785257
198.4029,-0.0001783505
198.5029,-0.0001781914
198.6029,-0.0001780614
198.7029,-0.0001778881
198.8029,-0.0001777469
198.9029,-0.0001776179
199.0029,-0.0001774672
199.103,-0.0001773146
199.203,-0.0001771526
199.303,-0.0001770217
199.403,-0.0001768956
199.503,-0.0001767938
199.603,-0.0001765838
199.703,-0.0001765057
199.803,-0.0001763889
199.903,-0.000176193
200.003,-0.0001760706
200.103,-0.0001759322
200.203,-0.0001757495
200.303,-0.0001756572
200.403,-0.0001755178
200.503,-0.0001753276
200.603,-0.0001752089
200.703,-0.0001750611
200.8031,-0.0001749283
200.9031,-0.0001747559
201.0031,-0.00017469
201.1031,-0.0001745186
201.2031,-0.0001743538
201.3031,-0.0001742474
201.4031,-0.0001741335
201.5031,-0.0001739931
201.6031,-0.0001738095
201.7031,-0.0001736711
201.8031,-0.0001736061
201.9031,-0.0001735072
202.0031,-0.0001733028
202.1031,-0.0001731437
202.2031,-0.0001730636
202.3031,-0.0001728819
202.4032,-0.0001727406
202.5032,-0.0001726069
202.6032,-0.0001724412
202.7032,-0.000172314
202.8032,-0.0001721982
202.9032,-0.0001720334
203.0032,-0.0001718714
203.1032,-0.0001717895
203.2032,-0.0001716275
203.3032,-0.0001715173
203.4032,-0.0001713949
203.5032,-0.0001712339
203.6032,-0.0001710954
203.7032,-0.0001709692
203.8032,-0.0001708016
203.9032,-0.0001706895
204.0033,-0.0001705304
204.1033,-0.0001703505
204.2033,-0.0001702978
204.3033,-0.0001701848
204.4033,-0.0001699465
204.5033,-0.0001698457
204.6033,-0.0001697101
204.7033,-0.0001695369
204.8033,-0.0001694502
204.9033,-0.000169293
205.0033,-0.0001691771
205.1033,-0.000169114
205.2033,-0.0001689982
205.3033,-0.0001687825
205.4033,-0.0001686573
205.5033,-0.0001685678
205.6033,-0.0001683823
205.7034,-0.00016829
205.8034,-0.0001681412
205.9034,-0.0001679792
206.0034,-0.0001678606
206.1034,-0.0001677344
206.2034,-0.0001675978
206.3034,-0.0001674622
206.4034,-0.0001673134
206.5034,-0.0001671392
206.6034,-0.0001670234
206.7034,-0.0001669057
206.8034,-0.0001667587
206.9034,-0.0001666439
207.0034,-0.0001665177
207.1034,-0.0001663736
207.2034,-0.0001662314
207.3035,-0.0001661523
207.4035,-0.0001660167
207.5035,-0.0001658387
207.6035,-0.0001657831
207.7035,-0.000165623
207.8035,-0.00016551
207.9035,-0.0001653819
208.0035,-0.0001652482
208.1035,-0.0001650853
208.2035,-0.0001650043
208.3035,-0.000164848
208.4035,-0.0001647529
208.5035,-0.0001646173
208.6035,-0.0001644939
208.7035,-0.0001643658
208.8035,-0.0001642547
208.9035,-0.0001641059
209.0036,-0.0001640042
209.1036,-0.000163877
209.2036,-0.0001637254
209.3036,-0.0001636256
209.4036,-0.0001635041
209.5036,-0.0001633685
209.6036,-0.0001632499
209.7036,-0.000163151
209.8036,-0.0001629984
209.9036,-0.0001628741
210.0036,-0.0001627847
210.1036,-0.0001626236
210.2036,-0.0001625106
210.3036,-0.000162391
210.4036,-0.0001622479
210.5036,-0.0001621066
210.6037,-0.0001620068
210.7037,-0.0001618909
210.8037,-0.0001617921
210.9037,-0.0001616678
211.0037,-0.0001615105
211.1037,-0.0001613805
211.2037,-0.0001612958
211.3037,-0.0001611658
211.4037,-0.0001610349
211.5037,-0.0001609238
211.6037,-0.0001608004
211.7037,-0.0001606827
211.8037,-0.0001605678
211.9037,-0.0001604548
212.0037,-0.0001603164
212.1037,-0.000160258
212.2038,-0.0001600951
212.3038,-0.0001599548
212.4038,-0.0001598719
212.5038,-0.0001597344
212.6038,-0.0001596383
212.7038,-0.000159515
212.8038,-0.0001593916
212.9038,-0.0001592729
213.0038,-0.0001591467
213.1038,-0.0001590234
213.2038,-0.0001589245
213.3038,-0.0001588661
213.4038,-0.0001586778
213.5038,-0.0001586118
213.6038,-0.0001584781
213.7038,-0.0001583133
213.8038,-0.0001582587
213.9039,-0.0001581476
214.0039,-0.0001579715
214.1039,-0.0001578942
214.2039,-0.0001578246
214.3039,-0.0001576711
214.4039,-0.0001575901
214.5039,-0.0001574601
214.6039,-0.0001573085
214.7039,-0.0001572275
214.8039,-0.0001570975
214.9039,-0.0001569648
215.0039,-0.0001568715
215.1039,-0.0001567811
215.2039,-0.0001566116
215.3039,-0.0001565052
215.4039,-0.0001564345
215.504,-0.0001562575
215.604,-0.0001561539
215.704,-0.0001560418
215.804,-0.0001558855
215.904,-0.0001558036
216.004,-0.0001557358
216.104,-0.000155554
216.204,-0.0001554382
216.304,-0.0001553497
216.404,-0.0001552197
216.504,-0.0001551274
216.604,-0.0001550229
216.704,-0.0001548788
216.804,-0.0001548025
216.904,-0.0001546829
217.004,-0.0001545539
217.104,-0.0001544654
217.2041,-0.0001543486
217.3041,-0.000154197
217.4041,-0.0001541264
217.5041,-0.0001540237
217.6041,-0.0001538891
217.7041,-0.000153858
217.8041,-0.0001537101
217.9041,-0.0001536141
218.0041,-0.0001535067
218.1041,-0.0001533824
218.2041,-0.0001532543
218.3041,-0.0001531847
218.4041,-0.0001530641
218.5041,-0.0001529219
218.6041,-0.0001528503
218.7041,-0.0001527496
218.8042,-0.00015258
218.9042,-0.0001525301
219.0042,-0.0001524473
219.1042,-0.0001522693
219.2042,-0.0001521949
219.3042,-0.0001521224
219.4042,-0.0001519934
219.5042,-0.0001518737
219.6042,-0.0001517824
219.7042,-0.0001516581
219.8042,-0.0001515668
219.9042,-0.0001514886
220.0042,-0.0001513247
220.1042,-0.0001512202
220.2042,-0.00015111
220.3042,-0.0001510224
220.4043,-0.0001509273
220.5043,-0.000150803
220.6043,-0.0001506712
220.7043,-0.0001506081
220.8043,-0.0001504885
220.9043,-0.0001503623
221.0043,-0.0001502728
221.1043,-0.0001501928
221.2043,-0.0001500581
221.3043,-0.000149963
221.4043,-0.0001498688
221.5043,-0.0001497454
221.6043,-0.0001497219
221.7043,-0.0001495693
221.8043,-0.0001494478
221.9043,-0.0001493612
222.0043,-0.0001492576
222.1044,-0.0001491399
222.2044,-0.0001490448
222.3044,-0.0001489826
222.4044,-0.0001488395
222.5044,-0.0001487472
222.6044,-0.0001486417
222.7044,-0.0001485221
222.8044,-0.0001484421
222.9044,-0.0001483375
223.0044,-0.0001482048
223.1044,-0.0001481219
223.2044,-0.0001480673
223.3044,-0.0001479175
223.4044,-0.000147846
223.5044,-0.000147733
223.6044,-0.0001476058
223.7045,-0.0001475465
223.8045,-0.0001474504
223.9045,-0.0001473374
224.0045,-0.0001472611
224.1045,-0.0001471736
224.2045,-0.0001470493
224.3045,-0.000146956
224.4045,-0.0001468694
224.5045,-0.0001467093
224.6045,-0.0001466754
224.7045,-0.0001465718
224.8045,-0.000146424
224.9045,-0.0001463627
225.0045,-0.000146262
225.1045,-0.0001461292
225.2045,-0.0001460256
225.3046,-0.0001459211
225.4046,-0.0001458099
225.5046,-0.0001457299
225.6046,-0.000145648
225.7046,-0.0001454954
225.8046,-0.0001454182
225.9046,-0.0001453447
226.0046,-0.0001452082
226.1046,-0.0001451244
226.2046,-0.0001450076
226.3046,-0.0001448917
226.4046,-0.0001448126
226.5046,-0.0001447288
226.6046,-0.0001446111
226.7046,-0.0001444972
226.8046,-0.0001444275
226.9046,-0.0001443352
227.0047,-0.0001442956
227.1047,-0.0001441591
227.2047,-0.0001440131
227.3047,-0.0001439481
227.4047,-0.0001438671
227.5047,-0.0001437118
227.6047,-0.0001436571
227.7047,-0.0001435451
227.8047,-0.0001434631
227.9047,-0.0001433972
228.0047,-0.0001432927
228.1047,-0.0001431608
228.2047,-0.0001430902
228.3047,-0.0001430215
228.4047,-0.0001428642
228.5047,-0.000142786
228.6048,-0.000142689
228.7048,-0.0001425544
228.8048,-0.0001424903
228.9048,-0.0001424498
229.0048,-0.000142269
229.1048,-0.0001421994
229.2048,-0.0001420976
229.3048,-0.0001419827
229.4048,-0.0001419093
229.5048,-0.0001418387
229.6048,-0.0001417049
229.7048,-0.0001416305
229.8048,-0.0001415439
229.9048,-0.0001414243
230.0048,-0.000141365
230.1048,-0.000141283
230.2048,-0.0001411333
230.3049,-0.0001410711
230.4049,-0.0001409968
230.5049,-0.0001408875
230.6049,-0.0001408046
230.7049,-0.0001406973
230.8049,-0.0001405767
230.9049,-0.0001405202
231.0049,-0.0001404298
231.1049,-0.0001403159
231.2049,-0.0001402198
231.3049,-0.0001401756
231.4049,-0.000140055
231.5049,-0.0001399439
231.6049,-0.0001398573
231.7049,-0.0001397263
231.8049,-0.0001397245
231.905,-0.0001396209
232.005,-0.0001395032
232.105,-0.0001394222
232.205,-0.0001393468
232.305,-0.0001392659
232.405,-0.0001391999
232.505,-0.000139069
232.605,-0.0001389617
232.705,-0.0001389297
232.805,-0.0001388308
232.905,-0.0001387036
233.005,-0.0001386707
233.105,-0.0001385548
233.205,-0.0001384513
233.305,-0.000138375
233.405,-0.0001382827
233.5051,-0.0001381555
233.6051,-0.0001380802
233.7051,-0.0001380105
233.8051,-0.0001378994
233.9051,-0.0001378363
234.0051,-0.0001377195
234.1051,-0.0001376159
234.2051,-0.00013755
234.3051,-0.0001374766
234.4051,-0.0001373532
234.5051,-0.0001372825
234.6051,-0.0001372336
234.7051,-0.0001370829
234.8051,-0.0001370424
234.9051,-0.0001369756
235.0051,-0.0001368286
235.1051,-0.0001367439
235.2052,-0.0001366676
235.3052,-0.0001365725
235.4052,-0.0001364793
235.5052,-0.0001364378
235.6052,-0.000136322
235.7052,-0.0001362598
235.8052,-0.0001362071
235.9052,-0.0001360602
236.0052,-0.0001359519
236.1052,-0.0001358916
236.2052,-0.0001357927
236.3052,-0.00013574
236.4052,-0.0001356213
236.5052,-0.0001355178
236.6052,-0.0001354565
236.7052,-0.0001353784
236.8053,-0.0001352927
236.9053,-0.0001351825
237.0053,-0.0001351429
237.1053,-0.0001350375
237.2053,-0.0001349753
237.3053,-0.0001348849
237.4053,-0.0001347983
237.5053,-0.0001347229
237.6053,-0.0001346306
237.7053,-0.0001345327
237.8053,-0.0001344649
237.9053,-0.0001343726
238.0053,-0.0001342728
238.1053,-0.0001342163
238.2053,-0.0001341221
238.3053,-0.000133995
238.4053,-0.0001339724
238.5054,-0.0001338989
238.6054,-0.0001337821
238.7054,-0.0001337473
238.8054,-0.0001336701
238.9054,-0.0001335401
239.0054,-0.0001335109
239.1054,-0.0001334092
239.2054,-0.0001332689
239.3054,-0.000133251
239.4054,-0.0001331653
239.5054,-0.0001330193
239.6054,-0.0001329713
239.7054,-0.0001329318
239.8054,-0.0001327924
239.9054,-0.0001326944
240.0054,-0.0001326248
240.1055,-0.0001325202
240.2055,-0.0001324948
240.3055,-0.0001324063
240.4055,-0.0001322829
240.5055,-0.0001322339
240.6055,-0.0001321351
240.7055,-0.0001320531
240.8055,-0.0001319797
240.9055,-0.0001319034
241.0055,-0.0001318064
241.1055,-0.0001317725
241.2055,-0.0001316444
241.3055,-0.0001315116
241.4055,-0.0001314843
241.5055,-0.0001314175
241.6055,-0.000131296
241.7056,-0.0001312197
241.8056,-0.0001312046
241.9056,-0.0001311189
242.0056,-0.0001310285
242.1056,-0.0001309212
242.2056,-0.0001308487
242.3056,-0.0001307856
242.4056,-0.0001307394
242.5056,-0.0001306198
242.6056,-0.0001305275
242.7056,-0.0001304607
242.8056,-0.0001303891
242.9056,-0.0001303185
243.0056,-0.0001302177
243.1056,-0.0001301358
243.2056,-0.0001300378
243.3056,-0.0001299663
243.4057,-0.0001298862
243.5057,-0.0001298071
243.6057,-0.0001297214
243.7057,-0.0001296235
243.8057,-0.0001295933
243.9057,-0.0001294945
244.0057,-0.0001294059
244.1057,-0.0001293362
244.2057,-0.0001292637
244.3057,-0.0001291488
244.4057,-0.000129081
244.5057,-0.0001290377
244.6057,-0.000128904
244.7057,-0.0001288456
244.8057,-0.0001287561
244.9057,-0.0001287015
245.0058,-0.0001286959
245.1058,-0.0001285847
245.2058,-0.0001284501
245.3058,-0.000128386
245.4058,-0.000128338
245.5058,-0.0001282551
245.6058,-0.0001281779
245.7058,-0.0001281026
245.8058,-0.0001280282
245.9058,-0.0001279557
246.0058,-0.0001278982
246.1058,-0.0001278097
246.2058,-0.00012774
246.3058,-0.0001277004
246.4058,-0.0001275827
246.5058,-0.0001275234
246.6059,-0.0001274923
246.7059,-0.0001273991
246.8059,-0.0001273388
246.9059,-0.0001272616
247.0059,-0.0001271665
247.1059,-0.0001271373
247.2059,-0.0001270911
247.3059,-0.0001269725
247.4059,-0.0001269263
247.5059,-0.0001268303
247.6059,-0.0001267371
247.7059,-0.0001267013
247.8059,-0.0001266504
247.9059,-0.0001265063
248.0059,-0.0001264555
248.1059,-0.0001263679
248.2059,-0.0001263114
248.306,-0.0001262897
248.406,-0.0001262003
248.506,-0.0001260637
248.606,-0.0001260016
248.706,-0.0001259545
248.806,-0.000125832
248.906,-0.0001257991
249.006,-0.0001257219
249.106,-0.0001256098
249.206,-0.0001255363
249.306,-0.0001255015
249.406,-0.0001253857
249.506,-0.0001253414
249.606,-0.0001252858
249.706,-0.0001251568
249.806,-0.0001250777
249.9061,-0.0001250391
250.0061,-0.0001249449
250.1061,-0.0001248771
250.2061,-0.0001248112
250.3061,-0.0001247199
250.4061,-0.0001246728
250.5061,-0.0001246059
250.6061,-0.0001245042
250.7061,-0.0001244449
250.8061,-0.0001243978
250.9061,-0.0001243102
251.0061,-0.0001242255
251.1061,-0.0001241774
251.2061,-0.000124087
251.3061,-0.0001240277
251.4061,-0.0001239279
251.5061,-0.0001238412
251.6062,-0.0001238356
251.7062,-0.0001237668
251.8062,-0.0001236708
251.9062,-0.0001236256
252.0062,-0.0001235728
252.1062,-0.0001234504
252.2062,-0.0001233939
252.3062,-0.0001233393
252.4062,-0.0001232592
252.5062,-0.000123199
252.6062,-0.0001231086
252.7062,-0.0001230135
252.8062,-0.0001229692
252.9062,-0.0001229014
253.0062,-0.0001228053
253.1062,-0.0001227441
253.2063,-0.0001226886
253.3063,-0.0001226368
253.4063,-0.0001225313
253.5063,-0.0001224428
253.6063,-0.0001224324
253.7063,-0.0001223957
253.8063,-0.0001223034
253.9063,-0.0001222186
254.0063,-0.0001221499
254.1063,-0.0001220727
254.2063,-0.0001219888
254.3063,-0.000121954
254.4063,-0.0001218466
254.5063,-0.0001217751
254.6063,-0.0001217186
254.7063,-0.0001216461
254.8064,-0.0001215491
254.9064,-0.0001215114
255.0064,-0.0001214238
255.1064,-0.0001213447
255.2064,-0.0001213042
255.3064,-0.0001212326
255.4064,-0.0001211441
255.5064,-0.0001210735
255.6064,-0.0001210367
255.7064,-0.0001209567
255.8064,-0.0001208833
255.9064,-0.0001208333
256.0064,-0.0001207731
256.1064,-0.0001206808
256.2064,-0.0001206346
256.3064,-0.0001205904
256.4064,-0.0001205103
256.5064,-0.0001204491
256.6064,-0.0001203578
256.7065,-0.0001202937
256.8065,-0.0001202702
256.9065,-0.0001202033
257.0065,-0.000120112
257.1065,-0.0001200602
257.2065,-0.0001199669
257.3065,-0.0001199274
257.4065,-0.0001198285
257.5065,-0.0001197908
257.6065,-0.0001197287
257.7065,-0.000119642
257.8065,-0.0001195808
257.9065,-0.0001195206
258.0065,-0.0001194612
258.1065,-0.0001193737
258.2065,-0.0001193294
258.3065,-0.0001193058
258.4066,-0.0001191806
258.5066,-0.0001191316
258.6066,-0.0001190535
258.7066,-0.0001189866
258.8066,-0.0001189461
258.9066,-0.0001188745
259.0066,-0.000118818
259.1066,-0.0001187436
259.2066,-0.000118657
259.3066,-0.0001186024
259.4066,-0.0001185261
259.5066,-0.0001184489
259.6066,-0.0001184074
259.7066,-0.0001183302
259.8066,-0.0001182615
259.9066,-0.0001181956
260.0067,-0.0001181692
260.1067,-0.0001180741
260.2067,-0.0001180364
260.3067,-0.0001179469
260.4067,-0.0001178886
260.5067,-0.0001178396
260.6067,-0.0001177802
260.7067,-0.0001177294
260.8067,-0.0001176362
260.9067,-0.0001175928
261.0067,-0.0001175053
261.1067,-0.0001174591
261.2067,-0.0001174017
261.3067,-0.0001173423
261.4067,-0.0001172661
261.5067,-0.000117187
261.6068,-0.0001171418
261.7068,-0.0001170871
261.8068,-0.0001170438
261.9068,-0.0001169591
262.0068,-0.0001169317
262.1068,-0.0001168498
262.2068,-0.0001167764
262.3068,-0.0001166737
262.4068,-0.0001166549
262.5068,-0.0001165786
262.6068,-0.0001165193
262.7068,-0.0001164665
262.8068,-0.0001163413
262.9068,-0.0001163083
263.0068,-0.0001162744
263.1068,-0.0001161934
263.2068,-0.0001161426
263.3069,-0.0001160559
263.4069,-0.0001159872
263.5069,-0.0001159006
263.6069,-0.0001158657
263.7069,-0.0001157941
263.8069,-0.0001157471
263.9069,-0.0001156736
264.0069,-0.0001155935
264.1069,-0.0001155587
264.2069,-0.0001154787
264.3069,-0.0001154457
264.4069,-0.0001153657
264.5069,-0.0001152913
264.6069,-0.0001152319
264.7069,-0.0001151707
264.8069,-0.0001151453
264.907,-0.0001150483
265.007,-0.0001149927
265.107,-0.0001149786
265.207,-0.000114892
265.307,-0.0001148345
265.407,-0.0001147695
265.507,-0.0001146933
265.607,-0.0001146471
265.707,-0.0001145708
265.807,-0.0001144955
265.907,-0.0001144512
266.007,-0.0001144079
266.107,-0.0001143533
266.207,-0.0001142544
266.307,-0.0001142196
266.407,-0.0001141357
266.507,-0.0001140858
266.6071,-0.0001140284
266.7071,-0.0001139201
266.8071,-0.0001138834
266.9071,-0.0001138617
267.0071,-0.0001138071
267.1071,-0.000113727
267.2071,-0.0001136686
267.3071,-0.000113598
267.4071,-0.0001135321
267.5071,-0.0001134869
267.6071,-0.0001134285
267.7071,-0.0001133579
267.8071,-0.0001132873
267.9071,-0.0001132204
268.0071,-0.0001131884
268.1071,-0.0001131366
268.2072,-0.0001130518
268.3072,-0.0001129944
268.4072,-0.0001129397
268.5072,-0.0001128927
268.6072,-0.0001128503
268.7072,-0.0001127608
268.8072,-0.0001127006
268.9072,-0.0001126695
269.0072,-0.0001126384
269.1072,-0.0001125753
269.2072,-0.0001124915
269.3072,-0.0001124246
269.4072,-0.0001123502
269.5072,-0.0001123012
269.6072,-0.0001122645
269.7072,-0.0001121939
269.8073,-0.0001121657
269.9073,-0.0001120781
270.0073,-0.0001119867
270.1073,-0.0001119735
270.2073,-0.0001118888
270.3073,-0.0001118605
270.4073,-0.0001117833
270.5073,-0.0001117334
270.6073,-0.0001116581
270.7073,-0.0001115959
270.8073,-0.0001115309
270.9073,-0.0001114678
271.0073,-0.0001114443
271.1073,-0.0001113944
271.2073,-0.0001112993
271.3073,-0.0001112314
271.4073,-0.000111222
271.5074,-0.000111174
271.6074,-0.0001111147
271.7074,-0.0001110337
271.8074,-0.0001110026
271.9074,-0.0001109113
272.0074,-0.0001108839
272.1074,-0.0001108237
272.2074,-0.0001107973
272.3074,-0.0001107238
272.4074,-0.0001106608
272.5074,-0.0001106184
272.6074,-0.0001105252
272.7074,-0.0001104828
272.8074,-0.0001104187
272.9074,-0.0001103726
273.0074,-0.0001103396
273.1075,-0.0001102219
273.2075,-0.0001101861
273.3075,-0.0001101541
273.4075,-0.0001100929
273.5075,-0.0001100646
273.6075,-0.0001099686
273.7075,-0.0001099328
273.8075,-0.0001098744
273.9075,-0.0001098452
274.0075,-0.0001097765
274.1075,-0.0001097115
274.2075,-0.0001096776
274.3075,-0.0001096277
274.4075,-0.0001095721
274.5075,-0.0001094968
274.6075,-0.0001094761
274.7076,-0.0001094045
274.8076,-0.0001093188
274.9076,-0.0001092868
275.0076,-0.0001092538
275.1076,-0.000109203
275.2076,-0.0001091389
275.3076,-0.0001090683
275.4076,-0.000109025
275.5076,-0.0001089958
275.6076,-0.0001089157
275.7076,-0.000108831
275.8076,-0.0001087924
275.9076,-0.0001087594
276.0076,-0.0001087142
276.1076,-0.0001086558
276.2076,-0.0001085805
276.3076,-0.0001085117
276.4077,-0.0001084854
276.5077,-0.0001084194
276.6077,-0.000108345
276.7077,-0.0001083403
276.8077,-0.0001082772
276.9077,-0.0001081831
277.0077,-0.0001081614
277.1077,-0.0001081143
277.2077,-0.0001080465
277.3077,-0.0001079881
277.4077,-0.0001079213
277.5077,-0.0001078827
277.6077,-0.0001078299
277.7077,-0.0001077809
277.8077,-0.0001077282
277.9077,-0.0001076717
278.0078,-0.0001075926
278.1078,-0.0001075512
278.2078,-0.0001075399
278.3078,-0.0001074655
278.4078,-0.0001073769
278.5078,-0.0001073543
278.6078,-0.0001073148
278.7078,-0.0001072658
278.8078,-0.0001071811
278.9078,-0.0001071434
279.0078,-0.0001070737
279.1078,-0.0001070426
279.2078,-0.0001070172
279.3078,-0.0001069287
279.4078,-0.0001068957
279.5078,-0.0001068581
279.6078,-0.0001067714
279.7079,-0.0001067441
279.8079,-0.0001066876
279.9079,-0.0001066217
280.0079,-0.0001065812
280.1079,-0.0001065454
280.2079,-0.0001064757
280.3079,-0.0001064032
280.4079,-0.0001063853
280.5079,-0.0001063354
280.6079,-0.0001062648
280.7079,-0.0001062374
280.8079,-0.0001061649
280.9079,-0.0001061348
281.0079,-0.0001060849
281.1079,-0.0001060463
281.2079,-0.0001059756
281.308,-0.0001059493
281.408,-0.0001058664
281.508,-0.0001058287
281.608,-0.000105776
281.708,-0.0001057101
281.808,-0.0001056639
281.908,-0.00010563
282.008,-0.0001055716
282.108,-0.0001055104
282.208,-0.0001054671
282.308,-0.0001054087
282.408,-0.0001053729
282.508,-0.0001053098
282.608,-0.0001052383
282.708,-0.0001052129
282.808,-0.0001051837
282.9081,-0.0001051064
283.0081,-0.0001050537
283.1081,-0.0001050094
283.2081,-0.0001049228
283.3081,-0.0001049153
283.4081,-0.000104871
283.5081,-0.0001047872
283.6081,-0.000104757
283.7081,-0.0001046996
283.8081,-0.0001046657
283.9081,-0.000104612
284.0081,-0.0001045922
284.1081,-0.0001045065
284.2081,-0.0001044736
284.3081,-0.0001044209
284.4081,-0.0001043709
284.5081,-0.000104338
284.6082,-0.0001043069
284.7082,-0.0001042146
284.8082,-0.0001041986
284.9082,-0.0001041581
285.0082,-0.0001040865
285.1082,-0.0001040536
285.2082,-0.0001040234
285.3082,-0.0001039519
285.4082,-0.0001039048
285.5082,-0.0001038869
285.6082,-0.000103821
285.7082,-0.0001037814
285.8082,-0.0001037503
285.9082,-0.0001036628
286.0082,-0.0001036769
286.1082,-0.0001036976
286.2083,-0.000103545
286.3083,-0.0001034725
286.4083,-0.0001034697
286.5083,-0.0001033981
286.6083,-0.0001033605
286.7083,-0.0001033171
286.8083,-0.0001032173
286.9083,-0.0001031844
287.0083,-0.0001031552
287.1083,-0.0001030874
287.2083,-0.0001030064
287.3083,-0.0001029574
287.4083,-0.0001029178
287.5083,-0.0001028981
287.6083,-0.0001028397
287.7083,-0.0001027549
287.8083,-0.000102738
287.9084,-0.0001026909
288.0084,-0.0001026532
288.1084,-0.0001026203
288.2084,-0.0001025063
288.3084,-0.000102479
288.4084,-0.0001024536
288.5084,-0.0001024545
288.6084,-0.0001023698
288.7084,-0.0001022916
288.8084,-0.0001022662
288.9084,-0.0001022181
289.0084,-0.0001021541
289.1084,-0.0001021117
289.2084,-0.0001020778
289.3084,-0.0001020326
289.4084,-0.0001019601
289.5085,-0.0001019196
289.6085,-0.0001018838
289.7085,-0.0001018499
289.8085,-0.0001017934
289.9085,-0.0001017642
290.0085,-0.0001016861
290.1085,-0.0001016522
290.2085,-0.000101622
290.3085,-0.0001015655
290.4085,-0.0001014987
290.5085,-0.00010151
290.6085,-0.000101477
290.7085,-0.000101413
290.8085,-0.0001013687
290.9085,-0.0001013291
291.0085,-0.0001012519
291.1086,-0.000101235
291.2086,-0.000101186
291.3086,-0.0001011295
291.4086,-0.0001010947
291.5086,-0.0001010438
291.6086,-0.0001009929
291.7086,-0.000100976
291.8086,-0.0001008997
291.9086,-0.0001008526
292.0086,-0.0001008347
292.1086,-0.0001007933
292.2086,-0.0001007255
292.3086,-0.0001006784
292.4086,-0.0001006389
292.5086,-0.0001005824
292.6086,-0.0001005569
292.7086,-0.000100507
292.8087,-0.0001004241
292.9087,-0.0001004411
293.0087,-0.0001004025
293.1087,-0.0001003658
293.2087,-0.0001002885
293.3087,-0.0001002706
293.4087,-0.0001001896
293.5087,-0.0001001689
293.6087,-0.0001001105
293.7087,-0.0001000813
293.8087,-0.0001000248
293.9087,-0.0001000013
294.0087,-9.998624E-05
294.1087,-9.990242E-05
294.2087,-9.984403E-05
294.3087,-9.981296E-05
294.4088,-9.975457E-05
294.5088,-9.969524E-05
294.6088,-9.968394E-05
294.7088,-9.964439E-05
294.8088,-9.958223E-05
294.9088,-9.953608E-05
295.0088,-9.952008E-05
295.1088,-9.946734E-05
295.2088,-9.941366E-05
295.3088,-9.939389E-05
295.4088,-9.930159E-05
295.5088,-9.925733E-05
295.6088,-9.924226E-05
295.7088,-9.915939E-05
295.8088,-9.912925E-05
295.9088,-9.906522E-05
296.0089,-9.900871E-05
296.1089,-9.900212E-05
296.2089,-9.901531E-05
296.3089,-9.891831E-05
296.4089,-9.884957E-05
296.5089,-9.884768E-05
296.6089,-9.876857E-05
296.7089,-9.871302E-05
296.8089,-9.871678E-05
296.9089,-9.863674E-05
297.0089,-9.85774E-05
297.1089,-9.859812E-05
297.2089,-9.849641E-05
297.3089,-9.844085E-05
297.4089,-9.843049E-05
297.5089,-9.838435E-05
297.6089,-9.834762E-05
297.709,-9.829865E-05
297.809,-9.82365E-05
297.909,-9.818847E-05
298.009,-9.816021E-05
298.109,-9.809618E-05
298.209,-9.807452E-05
298.309,-9.803308E-05
298.409,-9.795398E-05
298.509,-9.792572E-05
298.609,-9.78824E-05
298.709,-9.784757E-05
298.809,-9.781931E-05
298.909,-9.774679E-05
299.009,-9.767334E-05
299.109,-9.768653E-05
299.209,-9.763755E-05
299.3091,-9.756975E-05
299.4091,-9.751795E-05
299.5091,-9.747463E-05
299.6091,-9.740965E-05
299.7091,-9.741342E-05
299.8091,-9.735221E-05
299.9091,-9.728253E-05
300.0091,-9.727405E-05
300.1091,-9.724297E-05
300.2091,-9.719872E-05
300.3091,-9.715727E-05
300.4091,-9.708665E-05
300.5091,-9.707911E-05
300.6091,-9.704991E-05
300.7091,-9.700378E-05
300.8091,-9.692655E-05
300.9091,-9.690018E-05
301.0092,-9.685215E-05
301.1092,-9.679847E-05
301.2092,-9.678529E-05
301.3092,-9.675798E-05
301.4092,-9.667416E-05
301.5092,-9.669583E-05
301.6092,-9.661296E-05
301.7092,-9.657434E-05
301.8092,-9.653572E-05
301.9092,-9.649995E-05
302.0092,-9.646039E-05
302.1092,-9.641048E-05
302.2092,-9.63907E-05
302.3092,-9.632383E-05
302.4092,-9.630312E-05
302.5092,-9.629087E-05
302.6093,-9.620612E-05
302.7093,-9.617881E-05
302.8093,-9.614303E-05
302.9093,-9.610158E-05
303.0093,-9.606015E-05
303.1093,-9.601401E-05
303.2093,-9.600271E-05
303.3093,-9.596599E-05
303.4093,-9.590288E-05
303.5093,-9.586051E-05
303.6093,-9.582567E-05
303.7093,-9.579082E-05
303.8093,-9.573149E-05
303.9093,-9.572678E-05
304.0093,-9.565239E-05
304.1093,-9.561848E-05
304.2094,-9.559399E-05
304.3094,-9.554691E-05
304.4094,-9.548287E-05
304.5094,-9.543674E-05
304.6094,-9.54292E-05
304.7094,-9.535385E-05
304.8094,-9.535762E-05
304.9094,-9.529264E-05
305.0094,-9.522766E-05
305.1094,-9.520601E-05
305.2094,-9.518905E-05
305.3094,-9.512502E-05
305.4094,-9.509206E-05
305.5094,-9.506757E-05
305.6094,-9.498282E-05
305.7094,-9.496304E-05
305.8094,-9.495927E-05
305.9095,-9.488299E-05
306.0095,-9.487451E-05
306.1095,-9.48585E-05
306.2095,-9.476339E-05
306.3095,-9.474738E-05
306.4095,-9.474173E-05
306.5095,-9.468146E-05
306.6095,-9.465604E-05
306.7095,-9.461083E-05
306.8095,-9.457222E-05
306.9095,-9.455621E-05
307.0095,-9.457975E-05
307.1095,-9.45063E-05
307.2095,-9.443473E-05
307.3095,-9.442155E-05
307.4095,-9.434903E-05
307.5096,-9.430666E-05
307.6096,-9.429818E-05
307.7096,-9.422002E-05
307.8096,-9.422378E-05
307.9096,-9.421154E-05
308.0096,-9.416068E-05
308.1096,-9.408535E-05
308.2096,-9.410418E-05
308.3096,-9.403449E-05
308.4096,-9.396668E-05
308.5096,-9.39648E-05
308.6096,-9.392054E-05
308.7096,-9.382732E-05
308.8096,-9.379435E-05
308.9096,-9.380377E-05
309.0096,-9.374067E-05
309.1096,-9.375009E-05
309.2097,-9.370206E-05
309.3097,-9.363614E-05
309.4097,-9.359753E-05
309.5097,-9.356457E-05
309.6097,-9.350524E-05
309.7097,-9.349865E-05
309.8097,-9.352878E-05
309.9097,-9.347228E-05
310.0097,-9.338187E-05
310.1097,-9.330465E-05
310.2097,-9.327546E-05
310.3097,-9.329146E-05
310.4097,-9.325097E-05
310.5097,-9.315962E-05
310.6097,-9.313138E-05
310.7097,-9.308052E-05
310.8098,-9.308523E-05
310.9098,-9.2992E-05
311.0098,-9.296563E-05
311.1098,-9.293926E-05
311.2098,-9.284886E-05
311.3098,-9.282813E-05
311.4098,-9.283191E-05
311.5098,-9.277069E-05
311.6098,-9.26897E-05
311.7098,-9.269253E-05
311.8098,-9.266239E-05
311.9098,-9.261436E-05
312.0098,-9.262189E-05
312.1098,-9.253054E-05
312.2098,-9.247215E-05
312.3098,-9.242696E-05
312.4099,-9.240059E-05
312.5099,-9.239494E-05
312.6099,-9.233843E-05
312.7099,-9.229794E-05
312.8099,-9.224049E-05
312.9099,-9.223861E-05
313.0099,-9.217081E-05
313.1099,-9.215009E-05
313.2099,-9.209923E-05
313.3099,-9.203896E-05
313.4099,-9.20512E-05
313.5099,-9.19787E-05
313.6099,-9.193349E-05
313.7099,-9.190524E-05
313.8099,-9.187604E-05
313.9099,-9.179505E-05
314.0099,-9.182331E-05
314.11,-9.177905E-05
314.21,-9.169146E-05
314.31,-9.172348E-05
314.41,-9.16585E-05
314.51,-9.156998E-05
314.61,-9.156998E-05
314.71,-9.15502E-05
314.81,-9.147298E-05
314.91,-9.144379E-05
315.01,-9.141365E-05
315.11,-9.132701E-05
315.21,-9.133643E-05
315.31,-9.130442E-05
315.41,-9.126203E-05
315.51,-9.123661E-05
315.61,-9.119141E-05
315.7101,-9.116033E-05
315.8101,-9.112831E-05
315.9101,-9.107369E-05
316.0101,-9.105298E-05
316.1101,-9.105203E-05
316.2101,-9.098046E-05
316.3101,-9.095126E-05
316.4101,-9.094185E-05
316.5101,-9.089005E-05
316.6101,-9.083731E-05
316.7101,-9.083731E-05
316.8101,-9.075915E-05
316.9101,-9.071019E-05
317.0101,-9.071301E-05
317.1101,-9.069041E-05
317.2101,-9.058116E-05
317.3102,-9.059435E-05
317.4102,-9.058211E-05
317.5102,-9.048888E-05
317.6102,-9.047945E-05
317.7102,-9.043143E-05
317.8102,-9.037492E-05
317.9102,-9.038435E-05
318.0102,-9.034573E-05
318.1102,-9.027227E-05
318.2102,-9.026003E-05
318.3102,-9.023649E-05
318.4102,-9.020352E-05
318.5102,-9.019505E-05
318.6102,-9.011594E-05
318.7102,-9.006415E-05
318.8102,-9.005662E-05
318.9102,-9.00293E-05
319.0103,-8.996903E-05
319.1103,-8.993043E-05
319.2103,-8.989182E-05
319.3103,-8.987298E-05
319.4103,-8.982872E-05
319.5103,-8.980989E-05
319.6103,-8.973831E-05
319.7103,-8.97289E-05
319.8103,-8.970629E-05
319.9103,-8.968746E-05
320.0103,-8.964226E-05
320.1103,-8.958292E-05
320.2103,-8.95236E-05
320.3103,-8.953772E-05
320.4103,-8.952077E-05
320.5103,-8.944073E-05
320.6104,-8.942378E-05
320.7104,-8.943414E-05
320.8104,-8.932677E-05
320.9104,-8.933619E-05
321.0104,-8.929758E-05
321.1104,-8.924673E-05
321.2104,-8.917987E-05
321.3104,-8.916479E-05
321.4104,-8.914879E-05
321.5104,-8.907251E-05
321.6104,-8.906498E-05
321.7104,-8.9E-05
321.8104,-8.89821E-05
321.9104,-8.897646E-05
322.0104,-8.891336E-05
322.1104,-8.882954E-05
322.2104,-8.889452E-05
322.3105,-8.885685E-05
322.4105,-8.877869E-05
322.5105,-8.874385E-05
322.6105,-8.874385E-05
322.7105,-8.866756E-05
322.8105,-8.867228E-05
322.9105,-8.861013E-05
323.0105,-8.857528E-05
323.1105,-8.855456E-05
323.2105,-8.850371E-05
323.3105,-8.846039E-05
323.4105,-8.843966E-05
323.5105,-8.841612E-05
323.6105,-8.839917E-05
323.7105,-8.835491E-05
323.8105,-8.830971E-05
323.9106,-8.826543E-05
324.0106,-8.827298E-05
324.1106,-8.822495E-05
324.2106,-8.813926E-05
324.3106,-8.815526E-05
324.4106,-8.814585E-05
324.5106,-8.809123E-05
324.6106,-8.804697E-05
324.7106,-8.801589E-05
324.8106,-8.799705E-05
324.9106,-8.797822E-05
325.0106,-8.793113E-05
325.1106,-8.785674E-05
325.2106,-8.788875E-05
325.3106,-8.784544E-05
325.4106,-8.778799E-05
325.5107,-8.778422E-05
325.6107,-8.774373E-05
325.7107,-8.770606E-05
325.8107,-8.769193E-05
325.9107,-8.761941E-05
326.0107,-8.757139E-05
326.1107,-8.757045E-05
326.2107,-8.755726E-05
326.3107,-8.750452E-05
326.4107,-8.748382E-05
326.5107,-8.744613E-05
326.6107,-8.738116E-05
326.7107,-8.736138E-05
326.8107,-8.73708E-05
326.9107,-8.729452E-05
327.0107,-8.727003E-05
327.1107,-8.721824E-05
327.2108,-8.722954E-05
327.3108,-8.722671E-05
327.4108,-8.718058E-05
327.5108,-8.70751E-05
327.6108,-8.707133E-05
327.7108,-8.703931E-05
327.8108,-8.699693E-05
327.9108,-8.699034E-05
328.0108,-8.693572E-05
328.1108,-8.686132E-05
328.2108,-8.68811E-05
328.3108,-8.685944E-05
328.4108,-8.680105E-05
328.5108,-8.67954E-05
328.6108,-8.674173E-05
328.7108,-8.670688E-05
328.8109,-8.667957E-05
328.9109,-8.665791E-05
329.0109,-8.660422E-05
329.1109,-8.660517E-05
329.2109,-8.655243E-05
329.3109,-8.64931E-05
329.4109,-8.651571E-05
329.5109,-8.647145E-05
329.6109,-8.642153E-05
329.7109,-8.6414E-05
329.8109,-8.637445E-05
329.9109,-8.631606E-05
330.0109,-8.631794E-05
330.1109,-8.629064E-05
330.2109,-8.623507E-05
330.3109,-8.622943E-05
330.4109,-8.61748E-05
330.511,-8.619458E-05
330.611,-8.617668E-05
330.711,-8.612771E-05
330.811,-8.606838E-05
330.911,-8.605803E-05
331.011,-8.602507E-05
331.111,-8.598551E-05
331.211,-8.594408E-05
331.311,-8.592148E-05
331.411,-8.58678E-05
331.511,-8.584237E-05
331.611,-8.579905E-05
331.711,-8.574161E-05
331.811,-8.576232E-05
331.911,-8.575009E-05
332.011,-8.56785E-05
332.1111,-8.564461E-05
332.2111,-8.561824E-05
332.3111,-8.557209E-05
332.4111,-8.557116E-05
332.5111,-8.554101E-05
332.6111,-8.548451E-05
332.7111,-8.548545E-05
332.8111,-8.546662E-05
332.9111,-8.541105E-05
333.0111,-8.538187E-05
333.1111,-8.53489E-05
333.2111,-8.529428E-05
333.3111,-8.531688E-05
333.4111,-8.529428E-05
333.5111,-8.523212E-05
333.6111,-8.520953E-05
333.7112,-8.515397E-05
333.8112,-8.514549E-05
333.9112,-8.513607E-05
334.0112,-8.512005E-05
334.1112,-8.506545E-05
334.2112,-8.503153E-05
334.3112,-8.49967E-05
334.4112,-8.492701E-05
334.5112,-8.494301E-05
334.6112,-8.491194E-05
334.7112,-8.487616E-05
334.8112,-8.485543E-05
334.9112,-8.478857E-05
335.0112,-8.474337E-05
335.1112,-8.475844E-05
335.2112,-8.470382E-05
335.3112,-8.46652E-05
335.4113,-8.467275E-05
335.5113,-8.463319E-05
335.6113,-8.457951E-05
335.7113,-8.456915E-05
335.8113,-8.453996E-05
335.9113,-8.44712E-05
336.0113,-8.449852E-05
336.1113,-8.444201E-05
336.2113,-8.441752E-05
336.3113,-8.438175E-05
336.4113,-8.434313E-05
336.5113,-8.431583E-05
336.6113,-8.428004E-05
336.7113,-8.426498E-05
336.8113,-8.421412E-05
336.9113,-8.419057E-05
337.0114,-8.414914E-05
337.1114,-8.415102E-05
337.2114,-8.410581E-05
337.3114,-8.407098E-05
337.4114,-8.403049E-05
337.5114,-8.400505E-05
337.6114,-8.399093E-05
337.7114,-8.394195E-05
337.8114,-8.390805E-05
337.9114,-8.385155E-05
338.0114,-8.389205E-05
338.1114,-8.385155E-05
338.2114,-8.379693E-05
338.3114,-8.377338E-05
338.4114,-8.374797E-05
338.5114,-8.371029E-05
338.6115,-8.369617E-05
338.7115,-8.366226E-05
338.8115,-8.361517E-05
338.9115,-8.360105E-05
339.0115,-8.360294E-05
339.1115,-8.353325E-05
339.2115,-8.352289E-05
339.3115,-8.354455E-05
339.4115,-8.343247E-05
339.5115,-8.342777E-05
339.6115,-8.337315E-05
339.7115,-8.33449E-05
339.8115,-8.334866E-05
339.9115,-8.32997E-05
340.0115,-8.327992E-05
340.1115,-8.321965E-05
340.2115,-8.324225E-05
340.3116,-8.320928E-05
340.4116,-8.317351E-05
340.5116,-8.314807E-05
340.6116,-8.313678E-05
340.7116,-8.308216E-05
340.8116,-8.308027E-05
340.9116,-8.302283E-05
341.0116,-8.298515E-05
341.1116,-8.296727E-05
341.2116,-8.292771E-05
341.3116,-8.29117E-05
341.4116,-8.289663E-05
341.5116,-8.283166E-05
341.6116,-8.279305E-05
341.7116,-8.27808E-05
341.8116,-8.273089E-05
341.9117,-8.275914E-05
342.0117,-8.27064E-05
342.1117,-8.268004E-05
342.2117,-8.263483E-05
342.3117,-8.26273E-05
342.4117,-8.258868E-05
342.5117,-8.256797E-05
342.6117,-8.255667E-05
342.7117,-8.248981E-05
342.8117,-8.248322E-05
342.9117,-8.245685E-05
343.0117,-8.242294E-05
343.1117,-8.242954E-05
343.2117,-8.237492E-05
343.3117,-8.232972E-05
343.4117,-8.23316E-05
343.5117,-8.229863E-05
343.6118,-8.22685E-05
343.7118,-8.22506E-05
343.8118,-8.223554E-05
343.9118,-8.215925E-05
344.0118,-8.215361E-05
344.1118,-8.21423E-05
344.2118,-8.209334E-05
344.3118,-8.210276E-05
344.4118,-8.207262E-05
344.5118,-8.200292E-05
344.6118,-8.200199E-05
344.7118,-8.197939E-05
344.8118,-8.19549E-05
344.9118,-8.18918E-05
345.0118,-8.190782E-05
345.1118,-8.19144E-05
345.2119,-8.182588E-05
345.3119,-8.182023E-05
345.4119,-8.18014E-05
345.5119,-8.176843E-05
345.6119,-8.175808E-05
345.7119,-8.170629E-05
345.8119,-8.164695E-05
345.9119,-8.16592E-05
346.0119,-8.163095E-05
346.1119,-8.161399E-05
346.2119,-8.158763E-05
346.3119,-8.153772E-05
346.4119,-8.153207E-05
346.5119,-8.145861E-05
346.6119,-8.142565E-05
346.7119,-8.14313E-05
346.812,-8.139175E-05
346.912,-8.132959E-05
347.012,-8.133901E-05
347.112,-8.130982E-05
347.212,-8.130323E-05
347.312,-8.125143E-05
347.412,-8.124673E-05
347.512,-8.125237E-05
347.612,-8.118362E-05
347.712,-8.116008E-05
347.812,-8.111206E-05
347.912,-8.104896E-05
348.012,-8.10772E-05
348.112,-8.101128E-05
348.212,-8.097832E-05
348.312,-8.094066E-05
348.412,-8.092088E-05
348.5121,-8.087003E-05
348.6121,-8.087191E-05
348.7121,-8.08286E-05
348.8121,-8.080128E-05
348.9121,-8.078339E-05
349.0121,-8.074196E-05
349.1121,-8.071653E-05
349.2121,-8.070899E-05
349.3121,-8.062612E-05
349.4121,-8.061105E-05
349.5121,-8.06685E-05
349.6121,-8.068545E-05
349.7121,-8.057621E-05
349.8121,-8.051783E-05
349.9121,-8.054984E-05
350.0121,-8.046321E-05
350.1122,-8.04519E-05
350.2122,-8.041141E-05
350.3122,-8.03841E-05
350.4122,-8.034454E-05
350.5122,-8.030781E-05
350.6122,-8.030875E-05
350.7122,-8.027768E-05
350.8122,-8.025037E-05
350.9122,-8.020422E-05
351.0122,-8.01901E-05
351.1122,-8.015808E-05
351.2122,-8.014112E-05
351.3122,-8.010346E-05
351.4122,-8.009121E-05
351.5122,-8.00526E-05
351.6122,-8.00347E-05
351.7122,-7.999893E-05
351.8123,-7.996503E-05
351.9123,-7.993959E-05
352.0123,-7.993866E-05
352.1123,-7.994902E-05
352.2123,-7.989346E-05
352.3123,-7.987556E-05
352.4123,-7.980775E-05
352.5123,-7.980305E-05
352.6123,-7.976068E-05
352.7123,-7.976726E-05
352.8123,-7.975313E-05
352.9123,-7.968157E-05
353.0123,-7.966273E-05
353.1123,-7.970888E-05
353.2123,-7.967686E-05
353.3123,-7.963165E-05
353.4124,-7.959775E-05
353.5124,-7.960246E-05
353.6124,-7.958362E-05
353.7124,-7.9513E-05
353.8124,-7.946308E-05
353.9124,-7.94951E-05
354.0124,-7.95064E-05
354.1124,-7.94499E-05
354.2124,-7.939339E-05
354.3124,-7.934725E-05
354.4124,-7.932841E-05
354.5124,-7.928981E-05
354.6124,-7.928321E-05
354.7124,-7.92333E-05
354.8124,-7.916644E-05
354.9124,-7.922106E-05
355.0125,-7.92154E-05
355.1125,-7.912782E-05
355.2125,-7.908733E-05
355.3125,-7.909016E-05
355.4125,-7.903742E-05
355.5125,-7.904119E-05
355.6125,-7.902046E-05
355.7125,-7.896961E-05
355.8125,-7.894795E-05
355.9125,-7.892818E-05
356.0125,-7.891217E-05
356.1125,-7.892441E-05
356.2125,-7.885096E-05
356.3125,-7.8818E-05
356.4125,-7.880198E-05
356.5125,-7.876337E-05
356.6125,-7.874642E-05
356.7126,-7.873135E-05
356.8126,-7.867768E-05
356.9126,-7.863813E-05
357.0126,-7.86645E-05
357.1126,-7.865319E-05
357.2126,-7.861553E-05
357.3126,-7.856373E-05
357.4126,-7.85496E-05
357.5126,-7.850911E-05
357.6126,-7.851758E-05
357.7126,-7.848462E-05
357.8126,-7.843376E-05
357.9126,-7.841211E-05
358.0126,-7.838857E-05
358.1126,-7.837632E-05
358.2126,-7.835278E-05
358.3127,-7.833018E-05
358.4127,-7.830004E-05
358.5127,-7.827651E-05
358.6127,-7.824355E-05
358.7127,-7.822376E-05
358.8127,-7.822282E-05
358.9127,-7.815219E-05
359.0127,-7.815219E-05
359.1127,-7.80938E-05
359.2127,-7.80778E-05
359.3127,-7.806932E-05
359.4127,-7.806462E-05
359.5127,-7.800716E-05
359.6127,-7.79808E-05
359.7127,-7.795914E-05
359.8127,-7.793747E-05
359.9128,-7.793936E-05
360.0128,-7.791676E-05
360.1128,-7.785366E-05
360.2128,-7.784048E-05
360.3128,-7.783953E-05
360.4128,-7.78094E-05
360.5128,-7.778868E-05
360.6128,-7.774725E-05
360.7128,-7.770392E-05
360.8128,-7.769922E-05
360.9128,-7.768227E-05
361.0128,-7.767285E-05
361.1128,-7.764836E-05
361.2128,-7.761823E-05
361.3128,-7.758244E-05
361.4128,-7.75702E-05
361.5128,-7.753629E-05
361.6129,-7.749581E-05
361.7129,-7.749393E-05
361.8129,-7.748356E-05
361.9129,-7.742517E-05
362.0129,-7.74167E-05
362.1129,-7.741011E-05
362.2129,-7.738374E-05
362.3129,-7.740822E-05
362.4129,-7.735172E-05
362.5129,-7.727827E-05
362.6129,-7.729428E-05
362.7129,-7.727355E-05
362.8129,-7.721423E-05
362.9129,-7.721234E-05
363.0129,-7.718503E-05
363.1129,-7.714736E-05
363.213,-7.716902E-05
363.313,-7.712947E-05
363.413,-7.705884E-05
363.513,-7.707674E-05
363.613,-7.706544E-05
363.713,-7.701459E-05
363.813,-7.699103E-05
363.913,-7.699669E-05
364.013,-7.692983E-05
364.113,-7.694018E-05
364.213,-7.691381E-05
364.313,-7.689027E-05
364.413,-7.690817E-05
364.513,-7.683849E-05
364.613,-7.678669E-05
364.713,-7.683565E-05
364.813,-7.681588E-05
364.9131,-7.674147E-05
365.0131,-7.673677E-05
365.1131,-7.673112E-05
365.2131,-7.665766E-05
365.3131,-7.665861E-05
365.4131,-7.663223E-05
365.5131,-7.658892E-05
365.6131,-7.657856E-05
365.7131,-7.657574E-05
365.8131,-7.653148E-05
365.9131,-7.652205E-05
366.0131,-7.653148E-05
366.1131,-7.647874E-05
366.2131,-7.647215E-05
366.3131,-7.643542E-05
366.4131,-7.637044E-05
366.5132,-7.639868E-05
366.6132,-7.637514E-05
366.7132,-7.633277E-05
366.8132,-7.631299E-05
366.9132,-7.630075E-05
367.0132,-7.622918E-05
367.1132,-7.622824E-05
367.2132,-7.624047E-05
367.3132,-7.617927E-05
367.4132,-7.618115E-05
367.5132,-7.616702E-05
367.6132,-7.610863E-05
367.7132,-7.610675E-05
367.8132,-7.609263E-05
367.9132,-7.60719E-05
368.0132,-7.603235E-05
368.1133,-7.601069E-05
368.2133,-7.602576E-05
368.3133,-7.599374E-05
368.4133,-7.593535E-05
368.5133,-7.590146E-05
368.6133,-7.590804E-05
368.7133,-7.588073E-05
368.8133,-7.585719E-05
368.9133,-7.584966E-05
369.0133,-7.579316E-05
369.1133,-7.576396E-05
369.2133,-7.576302E-05
369.3133,-7.576208E-05
369.4133,-7.570745E-05
369.5133,-7.566885E-05
369.6133,-7.56679E-05
369.7133,-7.562741E-05
369.8134,-7.562646E-05
369.9134,-7.561706E-05
370.0134,-7.554077E-05
370.1134,-7.557656E-05
370.2134,-7.556337E-05
370.3134,-7.547391E-05
370.4134,-7.554454E-05
370.5134,-7.55031E-05
370.6134,-7.541929E-05
370.7134,-7.541175E-05
370.8134,-7.544754E-05
370.9134,-7.536654E-05
371.0134,-7.534207E-05
371.1134,-7.535054E-05
371.2134,-7.52865E-05
371.3134,-7.526673E-05
371.4135,-7.526107E-05
371.5135,-7.521305E-05
371.6135,-7.520645E-05
371.7135,-7.519327E-05
371.8135,-7.514524E-05
371.9135,-7.514148E-05
372.0135,-7.512453E-05
372.1135,-7.509722E-05
372.2135,-7.508497E-05
372.3135,-7.507273E-05
372.4135,-7.503412E-05
372.5135,-7.498892E-05
372.6135,-7.500398E-05
372.7135,-7.494277E-05
372.8135,-7.494842E-05
372.9135,-7.495125E-05
373.0135,-7.48825E-05
373.1136,-7.486837E-05
373.2136,-7.486837E-05
373.3136,-7.482035E-05
373.4136,-7.479492E-05
373.5136,-7.480622E-05
373.6136,-7.474595E-05
373.7136,-7.475536E-05
373.8136,-7.472994E-05
373.9136,-7.467249E-05
374.0136,-7.469604E-05
374.1136,-7.467626E-05
374.2136,-7.464235E-05
374.3136,-7.461693E-05
374.4136,-7.458585E-05
374.5136,-7.458679E-05
374.6136,-7.456326E-05
374.7137,-7.455948E-05
374.8137,-7.450486E-05
374.9137,-7.450204E-05
375.0137,-7.448791E-05
375.1137,-7.442859E-05
375.2137,-7.443612E-05
375.3137,-7.442294E-05
375.4137,-7.44154E-05
375.5137,-7.438809E-05
375.6137,-7.434665E-05
375.7137,-7.427508E-05
375.8137,-7.432877E-05
375.9137,-7.427979E-05
376.0137,-7.423459E-05
376.1137,-7.422235E-05
376.2137,-7.422235E-05
376.3138,-7.416866E-05
376.4138,-7.414419E-05
376.5138,-7.414135E-05
376.6138,-7.414135E-05
376.7138,-7.411688E-05
376.8138,-7.410275E-05
376.9138,-7.402552E-05
377.0138,-7.40453E-05
377.1138,-7.4034E-05
377.2138,-7.398691E-05
377.3138,-7.397091E-05
377.4138,-7.390686E-05
377.5138,-7.392288E-05
377.6138,-7.394076E-05
377.7138,-7.391534E-05
377.8138,-7.383058E-05
377.9138,-7.385319E-05
378.0139,-7.382776E-05
378.1139,-7.377219E-05
378.2139,-7.379292E-05
378.3139,-7.375996E-05
378.4139,-7.375242E-05
378.5139,-7.377126E-05
378.6139,-7.372699E-05
378.7139,-7.369027E-05
378.8139,-7.36818E-05
378.9139,-7.367614E-05
379.0139,-7.361965E-05
379.1139,-7.361399E-05
379.2139,-7.360835E-05
379.3139,-7.353677E-05
379.4139,-7.354618E-05
379.5139,-7.355749E-05
379.614,-7.351417E-05
379.714,-7.346425E-05
379.814,-7.346331E-05
379.914,-7.340022E-05
380.014,-7.345954E-05
380.114,-7.342093E-05
380.214,-7.33456E-05
380.314,-7.337479E-05
380.414,-7.33456E-05
380.514,-7.32825E-05
380.614,-7.332017E-05
380.714,-7.329756E-05
380.814,-7.322882E-05
380.914,-7.325895E-05
381.014,-7.325142E-05
381.114,-7.31742E-05
381.2141,-7.317137E-05
381.3141,-7.313465E-05
381.4141,-7.313841E-05
381.5141,-7.313559E-05
381.6141,-7.31177E-05
381.7141,-7.304236E-05
381.8141,-7.303765E-05
381.9141,-7.305178E-05
382.0141,-7.299339E-05
382.1141,-7.30094E-05
382.2141,-7.29689E-05
382.3141,-7.291899E-05
382.4141,-7.290769E-05
382.5141,-7.288886E-05
382.6141,-7.288792E-05
382.7141,-7.284931E-05
382.8141,-7.283517E-05
382.9142,-7.281069E-05
383.0142,-7.278809E-05
383.1142,-7.276455E-05
383.2142,-7.275795E-05
383.3142,-7.27523E-05
383.4142,-7.270522E-05
383.5142,-7.269015E-05
383.6142,-7.264024E-05
383.7142,-7.267884E-05
383.8142,-7.264683E-05
383.9142,-7.26167E-05
384.0142,-7.260822E-05
384.1142,-7.257243E-05
384.2142,-7.256962E-05
384.3142,-7.252535E-05
384.4142,-7.252911E-05
384.5143,-7.253946E-05
384.6143,-7.248486E-05
384.7143,-7.24839E-05
384.8143,-7.243777E-05
384.9143,-7.243683E-05
385.0143,-7.240292E-05
385.1143,-7.238409E-05
385.2143,-7.237938E-05
385.3143,-7.234642E-05
385.4143,-7.234076E-05
385.5143,-7.232853E-05
385.6143,-7.227108E-05
385.7143,-7.224377E-05
385.8143,-7.222023E-05
385.9143,-7.222964E-05
386.0143,-7.217879E-05
386.1143,-7.216278E-05
386.2144,-7.216278E-05
386.3144,-7.215148E-05
386.4144,-7.213359E-05
386.5144,-7.209216E-05
386.6144,-7.208461E-05
386.7144,-7.207238E-05
386.8144,-7.204977E-05
386.9144,-7.20347E-05
387.0144,-7.201493E-05
387.1144,-7.196784E-05
387.2144,-7.19669E-05
387.3144,-7.19603E-05
387.4144,-7.193111E-05
387.5144,-7.193111E-05
387.6144,-7.190287E-05
387.7144,-7.191605E-05
387.8145,-7.186802E-05
387.9145,-7.1836E-05
388.0145,-7.184448E-05
388.1145,-7.184542E-05
388.2145,-7.180868E-05
388.3145,-7.177761E-05
388.4145,-7.176725E-05
388.5145,-7.173147E-05
388.6145,-7.172016E-05
388.7145,-7.172205E-05
388.8145,-7.168532E-05
388.9145,-7.16599E-05
389.0145,-7.165895E-05
389.1145,-7.162129E-05
389.2145,-7.160057E-05
389.3145,-7.159398E-05
389.4146,-7.159492E-05
389.5146,-7.158267E-05
389.6146,-7.157231E-05
389.7146,-7.15403E-05
389.8146,-7.148003E-05
389.9146,-7.155536E-05
390.0146,-7.151958E-05
390.1146,-7.14659E-05
390.2146,-7.146307E-05
390.3146,-7.14659E-05
390.4146,-7.140375E-05
390.5146,-7.138868E-05
390.6146,-7.135572E-05
390.7146,-7.133782E-05
390.8146,-7.137644E-05
390.9146,-7.14028E-05
391.0146,-7.131334E-05
391.1147,-7.125966E-05
391.2147,-7.127378E-05
391.3147,-7.122481E-05
391.4147,-7.122671E-05
391.5147,-7.119469E-05
391.6147,-7.113535E-05
391.7147,-7.116643E-05
391.8147,-7.1141E-05
391.9147,-7.110522E-05
392.0147,-7.109957E-05
392.1147,-7.105908E-05
392.2147,-7.101199E-05
392.3147,-7.102706E-05
392.4147,-7.101481E-05
392.5147,-7.098562E-05
392.6147,-7.097243E-05
392.7148,-7.092723E-05
392.8148,-7.091781E-05
392.9148,-7.088956E-05
393.0148,-7.091217E-05
393.1148,-7.08858E-05
393.2148,-7.084907E-05
393.3148,-7.083589E-05
393.4148,-7.079633E-05
393.5148,-7.081139E-05
393.6148,-7.079256E-05
393.7148,-7.076807E-05
393.8148,-7.074642E-05
393.9148,-7.072947E-05
394.0148,-7.070215E-05
394.1148,-7.068803E-05
394.2148,-7.069839E-05
394.3148,-7.065789E-05
394.4149,-7.062776E-05
394.5149,-7.065036E-05
394.6149,-7.06127E-05
394.7149,-7.063153E-05
394.8149,-7.057691E-05
394.9149,-7.053076E-05
395.0149,-7.060516E-05
395.1149,-7.056184E-05
395.2149,-7.049309E-05
395.3149,-7.049026E-05
395.4149,-7.052228E-05
395.5149,-7.044036E-05
395.6149,-7.043E-05
395.7149,-7.043093E-05
395.8149,-7.03895E-05
395.9149,-7.037161E-05
396.015,-7.035748E-05
396.115,-7.030945E-05
396.215,-7.02859E-05
396.315,-7.027555E-05
396.415,-7.024918E-05
396.515,-7.024542E-05
396.615,-7.021152E-05
396.715,-7.019174E-05
396.815,-7.018608E-05
396.915,-7.018703E-05
397.015,-7.01503E-05
397.115,-7.012299E-05
397.215,-7.013994E-05
397.315,-7.009473E-05
397.415,-7.008626E-05
397.515,-7.006178E-05
397.6151,-7.002975E-05
397.7151,-7.004765E-05
397.8151,-7.003823E-05
397.9151,-6.998832E-05
398.0151,-6.996478E-05
398.1151,-6.996572E-05
398.2151,-6.990168E-05
398.3151,-6.992899E-05
398.4151,-6.992428E-05
398.5151,-6.984989E-05
398.6151,-6.985084E-05
398.7151,-6.98838E-05
398.8151,-6.98367E-05
398.9151,-6.982917E-05
399.0151,-6.97915E-05
399.1151,-6.974253E-05
399.2151,-6.973877E-05
399.3152,-6.975572E-05
399.4152,-6.971051E-05
399.5152,-6.968885E-05
399.6152,-6.968226E-05
399.7152,-6.965119E-05
399.8152,-6.961351E-05
399.9152,-6.962387E-05
400.0152,-6.962199E-05
400.1152,-6.960033E-05
400.2152,-6.958809E-05
400.3152,-6.955513E-05
400.4152,-6.955041E-05
400.5152,-6.954101E-05
400.6152,-6.954006E-05
400.7152,-6.949674E-05
400.8152,-6.945248E-05
400.9153,-6.945625E-05
401.0153,-6.943459E-05
401.1153,-6.941857E-05
401.2153,-6.943176E-05
401.3153,-6.938279E-05
401.4153,-6.935454E-05
401.5153,-6.936112E-05
401.6153,-6.936583E-05
401.7153,-6.930086E-05
401.8153,-6.934136E-05
401.9153,-6.929426E-05
402.0153,-6.924435E-05
402.1153,-6.926319E-05
402.2153,-6.926131E-05
402.3153,-6.921704E-05
402.4153,-6.925566E-05
402.5154,-6.919632E-05
402.6154,-6.916618E-05
402.7154,-6.916148E-05
402.8154,-6.913888E-05
402.9154,-6.90626E-05
403.0154,-6.910592E-05
403.1154,-6.907861E-05
403.2154,-6.904565E-05
403.3154,-6.902964E-05
403.4154,-6.900704E-05
403.5154,-6.900234E-05
403.6154,-6.900798E-05
403.7154,-6.893923E-05
403.8154,-6.894018E-05
403.9154,-6.89882E-05
404.0154,-6.895713E-05
404.1154,-6.88978E-05
404.2155,-6.89091E-05
404.3155,-6.889121E-05
404.4155,-6.882999E-05
404.5155,-6.887143E-05
404.6155,-6.884036E-05
404.7155,-6.877536E-05
404.8155,-6.877915E-05
404.9155,-6.880174E-05
405.0155,-6.876407E-05
405.1155,-6.8749E-05
405.2155,-6.871416E-05
405.3155,-6.869439E-05
405.4155,-6.871321E-05
405.5155,-6.868025E-05
405.6155,-6.862658E-05
405.7155,-6.863222E-05
405.8156,-6.863222E-05
405.9156,-6.857761E-05
406.0156,-6.858326E-05
406.1156,-6.857102E-05
406.2156,-6.852299E-05
406.3156,-6.854088E-05
406.4156,-6.85277E-05
406.5156,-6.849285E-05
406.6156,-6.845895E-05
406.7156,-6.847025E-05
406.8156,-6.846648E-05
406.9156,-6.844765E-05
407.0156,-6.843917E-05
407.1156,-6.838644E-05
407.2156,-6.838361E-05
407.3156,-6.842223E-05
407.4156,-6.838361E-05
407.5157,-6.832711E-05
407.6157,-6.832522E-05
407.7157,-6.833182E-05
407.8157,-6.829226E-05
407.9157,-6.828285E-05
408.0157,-6.822916E-05
408.1157,-6.82254E-05
408.2157,-6.824895E-05
408.3157,-6.817737E-05
408.4157,-6.821127E-05
408.5157,-6.817078E-05
408.6157,-6.815665E-05
408.7157,-6.818491E-05
408.8157,-6.813782E-05
408.9157,-6.809168E-05
409.0157,-6.809356E-05
409.1158,-6.809638E-05
409.2158,-6.804365E-05
409.3158,-6.804742E-05
409.4158,-6.802105E-05
409.5158,-6.802105E-05
409.6158,-6.807096E-05
409.7158,-6.804458E-05
409.8158,-6.796455E-05
409.9158,-6.795701E-05
410.0158,-6.796172E-05
410.1158,-6.791463E-05
410.2158,-6.791181E-05
410.3158,-6.790899E-05
410.4158,-6.784024E-05
410.5158,-6.786283E-05
410.6158,-6.785719E-05
410.7159,-6.78327E-05
410.8159,-6.779598E-05
410.9159,-6.778749E-05
411.0159,-6.773664E-05
411.1159,-6.779974E-05
411.2159,-6.775171E-05
411.3159,-6.771498E-05
411.4159,-6.774136E-05
411.5159,-6.76905E-05
411.6159,-6.767354E-05
411.7159,-6.766601E-05
411.8159,-6.766131E-05
411.9159,-6.763776E-05
412.0159,-6.762645E-05
412.1159,-6.760951E-05
412.2159,-6.75709E-05
412.3159,-6.758409E-05
412.416,-6.756336E-05
412.516,-6.753228E-05
412.616,-6.752663E-05
412.716,-6.750686E-05
412.816,-6.752193E-05
412.916,-6.752193E-05
413.016,-6.748331E-05
413.116,-6.744095E-05
413.216,-6.744188E-05
413.316,-6.743717E-05
413.416,-6.740044E-05
413.516,-6.739762E-05
413.616,-6.736936E-05
413.716,-6.73138E-05
413.816,-6.736654E-05
413.916,-6.739291E-05
414.0161,-6.729874E-05
414.1161,-6.728743E-05
414.2161,-6.731098E-05
414.3161,-6.727519E-05
414.4161,-6.728649E-05
414.5161,-6.724694E-05
414.6161,-6.721022E-05
414.7161,-6.72008E-05
414.8161,-6.721116E-05
414.9161,-6.719703E-05
415.0161,-6.715277E-05
415.1161,-6.714147E-05
415.2161,-6.715371E-05
415.3161,-6.713205E-05
415.4161,-6.708873E-05
415.5161,-6.707931E-05
415.6161,-6.707838E-05
415.7162,-6.706236E-05
415.8162,-6.703694E-05
415.9162,-6.701433E-05
416.0162,-6.700114E-05
416.1162,-6.700963E-05
416.2162,-6.701716E-05
416.3162,-6.6939E-05
416.4162,-6.692298E-05
416.5162,-6.69503E-05
416.6162,-6.692016E-05
416.7162,-6.687119E-05
416.8162,-6.689473E-05
416.9162,-6.686083E-05
417.0162,-6.681281E-05
417.1162,-6.682223E-05
417.2162,-6.684671E-05
417.3163,-6.679114E-05
417.4163,-6.678926E-05
417.5163,-6.679962E-05
417.6163,-6.674312E-05
417.7163,-6.672616E-05
417.8163,-6.672899E-05
417.9163,-6.66998E-05
418.0163,-6.669697E-05
418.1163,-6.668379E-05
418.2163,-6.666401E-05
418.3163,-6.664988E-05
418.4163,-6.665836E-05
418.5163,-6.663576E-05
418.6163,-6.660185E-05
418.7163,-6.659432E-05
418.8163,-6.655949E-05
418.9164,-6.656608E-05
419.0164,-6.658114E-05
419.1164,-6.655289E-05
419.2164,-6.658396E-05
419.3164,-6.656513E-05
419.4164,-6.646154E-05
419.5164,-6.648603E-05
419.6164,-6.648414E-05
419.7164,-6.645401E-05
419.8164,-6.646059E-05
419.9164,-6.643705E-05
420.0164,-6.638055E-05
420.1164,-6.637961E-05
420.2164,-6.641162E-05
420.3164,-6.636548E-05
420.4164,-6.634853E-05
420.5164,-6.63636E-05
420.6165,-6.630898E-05
420.7165,-6.630521E-05
420.8165,-6.629861E-05
420.9165,-6.629297E-05
421.0165,-6.627979E-05
421.1165,-6.625718E-05
421.2165,-6.623082E-05
421.3165,-6.622611E-05
421.4165,-6.621104E-05
421.5165,-6.617243E-05
421.6165,-6.620256E-05
421.7165,-6.621198E-05
421.8165,-6.615077E-05
421.9165,-6.616583E-05
422.0165,-6.614794E-05
422.1165,-6.610085E-05
422.2166,-6.614041E-05
422.3166,-6.612722E-05
422.4166,-6.605565E-05
422.5166,-6.606413E-05
422.6166,-6.605472E-05
422.7166,-6.601609E-05
422.8166,-6.60208E-05
422.9166,-6.603211E-05
423.0166,-6.598784E-05
423.1166,-6.598784E-05
423.2166,-6.595489E-05
423.3166,-6.593888E-05
423.4166,-6.592664E-05
423.5166,-6.592664E-05
423.6166,-6.588521E-05
423.7166,-6.587766E-05
423.8167,-6.588237E-05
423.9167,-6.584094E-05
424.0167,-6.584188E-05
424.1167,-6.585883E-05
424.2167,-6.58108E-05
424.3167,-6.584E-05
424.4167,-6.577784E-05
424.5167,-6.577314E-05
424.6167,-6.576843E-05
424.7167,-6.577124E-05
424.8167,-6.57025E-05
424.9167,-6.570627E-05
425.0167,-6.569686E-05
425.1167,-6.568932E-05
425.2167,-6.57138E-05
425.3167,-6.568367E-05
425.4167,-6.563941E-05
425.5168,-6.563658E-05
425.6168,-6.564977E-05
425.7168,-6.558855E-05
425.8168,-6.560268E-05
425.9168,-6.558102E-05
426.0168,-6.553487E-05
426.1168,-6.553205E-05
426.2168,-6.55377E-05
426.3168,-6.548779E-05
426.4168,-6.546613E-05
426.5168,-6.547743E-05
426.6168,-6.542752E-05
426.7168,-6.545012E-05
426.8168,-6.543504E-05
426.9168,-6.538702E-05
427.0168,-6.539268E-05
427.1169,-6.540303E-05
427.2169,-6.536913E-05
427.3169,-6.533241E-05
427.4169,-6.533335E-05
427.5169,-6.531168E-05
427.6169,-6.531545E-05
427.7169,-6.53098E-05
427.8169,-6.527496E-05
427.9169,-6.525894E-05
428.0169,-6.526177E-05
428.1169,-6.524671E-05
428.2169,-6.52241E-05
428.3169,-6.522881E-05
428.4169,-6.51902E-05
428.5169,-6.520998E-05
428.6169,-6.517984E-05
428.7169,-6.513087E-05
428.817,-6.519585E-05
428.917,-6.526177E-05
429.017,-6.513464E-05
429.117,-6.512805E-05
429.217,-6.514688E-05
429.317,-6.508567E-05
429.417,-6.509791E-05
429.517,-6.509697E-05
429.617,-6.500374E-05
429.717,-6.501409E-05
429.817,-6.504518E-05
429.917,-6.501316E-05
430.017,-6.49689E-05
430.117,-6.498584E-05
430.217,-6.491993E-05
430.317,-6.49397E-05
430.4171,-6.49444E-05
430.5171,-6.491334E-05
430.6171,-6.487849E-05
430.7171,-6.487283E-05
430.8171,-6.488508E-05
430.9171,-6.488131E-05
431.0171,-6.482293E-05
431.1171,-6.478431E-05
431.2171,-6.483046E-05
431.3171,-6.479656E-05
431.4171,-6.477113E-05
431.5171,-6.476831E-05
431.6171,-6.472216E-05
431.7171,-6.470426E-05
431.8171,-6.472969E-05
431.9171,-6.467885E-05
432.0172,-6.465248E-05
432.1172,-6.471557E-05
432.2172,-6.471275E-05
432.3172,-6.464683E-05
432.4172,-6.467413E-05
432.5172,-6.467413E-05
432.6172,-6.460821E-05
432.7172,-6.469579E-05
432.8172,-6.465059E-05
432.9172,-6.457243E-05
433.0172,-6.459785E-05
433.1172,-6.460633E-05
433.2172,-6.452157E-05
433.3172,-6.453098E-05
433.4172,-6.451592E-05
433.5172,-6.44274E-05
433.6172,-6.443681E-05
433.7173,-6.445847E-05
433.8173,-6.439915E-05
433.9173,-6.43869E-05
434.0173,-6.437938E-05
434.1173,-6.433229E-05
434.2173,-6.437278E-05
434.3173,-6.435395E-05
434.4173,-6.428897E-05
434.5173,-6.42965E-05
434.6173,-6.430026E-05
434.7173,-6.42447E-05
434.8173,-6.423811E-05
434.9173,-6.42174E-05
435.0173,-6.421081E-05
435.1173,-6.425883E-05
435.2173,-6.41882E-05
435.3174,-6.414865E-05
435.4174,-6.41882E-05
435.5174,-6.41543E-05
435.6174,-6.410533E-05
435.7174,-6.410815E-05
435.8174,-6.40978E-05
435.9174,-6.40846E-05
436.0174,-6.409309E-05
436.1174,-6.405258E-05
436.2174,-6.402057E-05
436.3174,-6.402998E-05
436.4174,-6.402528E-05
436.5174,-6.401022E-05
436.6174,-6.398761E-05
436.7174,-6.398196E-05
436.8174,-6.396501E-05
436.9174,-6.397442E-05
437.0175,-6.400079E-05
437.1175,-6.39424E-05
437.2175,-6.391227E-05
437.3175,-6.393487E-05
437.4175,-6.391792E-05
437.5175,-6.389532E-05
437.6175,-6.389627E-05
437.7175,-6.384447E-05
437.8175,-6.384447E-05
437.9175,-6.385765E-05
438.0175,-6.382845E-05
438.1175,-6.378326E-05
438.2175,-6.382375E-05
438.3175,-6.38002E-05
438.4175,-6.377007E-05
438.5175,-6.37663E-05
438.6176,-6.374182E-05
438.7176,-6.375971E-05
438.8176,-6.374087E-05
438.9176,-6.370227E-05
439.0176,-6.367872E-05
439.1176,-6.367307E-05
439.2176,-6.365518E-05
439.3176,-6.367119E-05
439.4176,-6.366554E-05
439.5176,-6.362505E-05
439.6176,-6.360903E-05
439.7176,-6.361186E-05
439.8176,-6.358926E-05
439.9176,-6.359585E-05
440.0176,-6.358361E-05
440.1176,-6.354123E-05
440.2177,-6.354877E-05
440.3177,-6.355347E-05
440.4177,-6.353464E-05
440.5177,-6.356384E-05
440.6177,-6.352428E-05
440.7177,-6.350262E-05
440.8177,-6.349038E-05
440.9177,-6.346024E-05
441.0177,-6.343763E-05
441.1177,-6.347908E-05
441.2177,-6.343293E-05
441.3177,-6.340091E-05
441.4177,-6.342822E-05
441.5177,-6.34207E-05
441.6177,-6.337171E-05
441.7177,-6.340091E-05
441.8177,-6.343199E-05
441.9178,-6.333688E-05
442.0178,-6.334629E-05
442.1178,-6.3351E-05
442.2178,-6.328508E-05
442.3178,-6.332651E-05
442.4178,-6.331521E-05
442.5178,-6.324647E-05
442.6178,-6.327001E-05
442.7178,-6.329732E-05
442.8178,-6.322481E-05
442.9178,-6.319844E-05
443.0178,-6.325306E-05
443.1178,-6.321633E-05
443.2178,-6.321257E-05
443.3178,-6.318525E-05
443.4178,-6.314476E-05
443.5179,-6.316925E-05
443.6179,-6.317113E-05
443.7179,-6.313441E-05
443.8179,-6.315323E-05
443.9179,-6.313912E-05
444.0179,-6.308731E-05
444.1179,-6.308355E-05
444.2179,-6.306943E-05
444.3179,-6.305436E-05
444.4179,-6.305718E-05
444.5179,-6.304682E-05
444.6179,-6.300727E-05
444.7179,-6.304023E-05
444.8179,-6.303646E-05
444.9179,-6.296018E-05
445.0179,-6.295359E-05
445.118,-6.299126E-05
445.218,-6.298843E-05
445.318,-6.295642E-05
445.418,-6.292628E-05
445.518,-6.290085E-05
445.618,-6.292816E-05
445.718,-6.29244E-05
445.818,-6.28726E-05
445.918,-6.286318E-05
446.018,-6.287637E-05
446.118,-6.283587E-05
446.218,-6.285283E-05
446.318,-6.285E-05
446.418,-6.279632E-05
446.518,-6.279255E-05
446.618,-6.278314E-05
446.718,-6.275018E-05
446.8181,-6.278973E-05
446.9181,-6.281421E-05
447.0181,-6.27191E-05
447.1181,-6.270026E-05
447.2181,-6.272851E-05
447.3181,-6.268897E-05
447.4181,-6.270309E-05
447.5181,-6.267201E-05
447.6181,-6.266354E-05
447.7181,-6.262209E-05
447.8181,-6.264658E-05
447.9181,-6.262304E-05
448.0181,-6.258537E-05
448.1181,-6.260421E-05
448.2181,-6.259856E-05
448.3181,-6.25703E-05
448.4182,-6.256089E-05
448.5182,-6.25317E-05
448.6182,-6.253264E-05
448.7182,-6.254583E-05
448.8182,-6.252322E-05
448.9182,-6.249779E-05
449.0182,-6.246578E-05
449.1182,-6.251191E-05
449.2182,-6.253546E-05
449.3182,-6.250814E-05
449.4182,-6.245071E-05
449.5182,-6.243564E-05
449.6182,-6.246106E-05
449.7182,-6.243376E-05
449.8182,-6.240833E-05
449.9182,-6.241209E-05
450.0182,-6.236124E-05
450.1183,-6.235559E-05
450.2183,-6.234523E-05
450.3183,-6.230945E-05
450.4183,-6.232358E-05
450.5183,-6.23151E-05
450.6183,-6.226612E-05
450.7183,-6.227931E-05
450.8183,-6.230851E-05
450.9183,-6.226142E-05
451.0183,-6.226047E-05
451.1183,-6.22746E-05
451.2183,-6.221244E-05
451.3183,-6.22341E-05
451.4183,-6.218419E-05
451.5183,-6.214558E-05
451.6183,-6.219927E-05
451.7184,-6.216348E-05
451.8184,-6.209944E-05
451.9184,-6.212958E-05
452.0184,-6.213052E-05
452.1184,-6.211451E-05
452.2184,-6.208719E-05
452.3184,-6.205612E-05
452.4184,-6.2042E-05
452.5184,-6.20354E-05
452.6184,-6.204482E-05
452.7184,-6.198831E-05
452.8184,-6.201751E-05
452.9184,-6.200056E-05
453.0184,-6.199302E-05
453.1184,-6.196948E-05
453.2184,-6.19384E-05
453.3185,-6.191203E-05
453.4185,-6.192333E-05
453.5185,-6.190921E-05
453.6185,-6.187437E-05
453.7185,-6.186965E-05
453.8185,-6.186212E-05
453.9185,-6.182917E-05
454.0185,-6.184329E-05
454.1185,-6.179526E-05
454.2185,-6.178395E-05
454.3185,-6.184894E-05
454.4185,-6.182634E-05
454.5185,-6.17849E-05
454.6185,-6.178773E-05
454.7185,-6.17736E-05
454.8185,-6.174064E-05
454.9185,-6.175853E-05
455.0186,-6.174158E-05
455.1186,-6.168507E-05
455.2186,-6.169826E-05
455.3186,-6.170109E-05
455.4186,-6.166531E-05
455.5186,-6.165965E-05
455.6186,-6.162858E-05
455.7186,-6.162292E-05
455.8186,-6.166907E-05
455.9186,-6.163045E-05
456.0186,-6.15796E-05
456.1186,-6.15796E-05
456.2186,-6.157019E-05
456.3186,-6.156924E-05
456.4186,-6.158242E-05
456.5186,-6.152028E-05
456.6187,-6.153063E-05
456.7187,-6.151745E-05
456.8187,-6.151839E-05
456.9187,-6.148825E-05
457.0187,-6.148449E-05
457.1187,-6.146565E-05
457.2187,-6.146565E-05
457.3187,-6.144494E-05
457.4187,-6.148731E-05
457.5187,-6.142328E-05
457.6187,-6.140632E-05
457.7187,-6.143175E-05
457.8187,-6.140915E-05
457.9187,-6.13922E-05
458.0187,-6.138373E-05
458.1187,-6.133004E-05
458.2188,-6.136583E-05
458.3188,-6.137619E-05
458.4188,-6.133193E-05
458.5188,-6.132627E-05
458.6188,-6.132722E-05
458.7188,-6.128861E-05
458.8188,-6.12952E-05
458.9188,-6.129238E-05
459.0188,-6.12321E-05
459.1188,-6.125189E-05
459.2188,-6.124811E-05
459.3188,-6.122928E-05
459.4188,-6.120291E-05
459.5188,-6.121327E-05
459.6188,-6.118502E-05
459.7188,-6.116524E-05
459.8188,-6.117466E-05
459.9189,-6.116807E-05
460.0189,-6.113511E-05
460.1189,-6.11417E-05
460.2189,-6.11417E-05
460.3189,-6.114734E-05
460.4189,-6.111062E-05
460.5189,-6.107013E-05
460.6189,-6.110121E-05
460.7189,-6.10899E-05
460.8189,-6.109649E-05
460.9189,-6.106259E-05
461.0189,-6.104376E-05
461.1189,-6.103151E-05
461.2189,-6.103623E-05
461.3189,-6.102022E-05
461.4189,-6.102304E-05
461.519,-6.097501E-05
461.619,-6.098819E-05
461.719,-6.095712E-05
461.819,-6.096654E-05
461.919,-6.093828E-05
462.019,-6.09364E-05
462.119,-6.093169E-05
462.219,-6.091097E-05
462.319,-6.092604E-05
462.419,-6.093075E-05
462.519,-6.088555E-05
462.619,-6.087707E-05
462.719,-6.087896E-05
462.819,-6.089214E-05
462.919,-6.083752E-05
463.019,-6.082716E-05
463.119,-6.08573E-05
463.2191,-6.0862E-05
463.3191,-6.083563E-05
463.4191,-6.077254E-05
463.5191,-6.07763E-05
463.6191,-6.077913E-05
463.7191,-6.079043E-05
463.8191,-6.080738E-05
463.9191,-6.076124E-05
464.0191,-6.072074E-05
464.1191,-6.073016E-05
464.2191,-6.072546E-05
464.3191,-6.071604E-05
464.4191,-6.072734E-05
464.5191,-6.070003E-05
464.6191,-6.065577E-05
464.7191,-6.066424E-05
464.8192,-6.066142E-05
464.9192,-6.065671E-05
465.0192,-6.064729E-05
465.1192,-6.062186E-05
465.2192,-6.058984E-05
465.3192,-6.057948E-05
465.4192,-6.060868E-05
465.5192,-6.055689E-05
465.6192,-6.057478E-05
465.7192,-6.057195E-05
465.8192,-6.055029E-05
465.9192,-6.054181E-05
466.0192,-6.052958E-05
466.1192,-6.05098E-05
466.2192,-6.051733E-05
466.3192,-6.054087E-05
466.4193,-6.048437E-05
466.5193,-6.046366E-05
466.6193,-6.048154E-05
466.7193,-6.045612E-05
466.8193,-6.048342E-05
466.9193,-6.04354E-05
467.0193,-6.039302E-05
467.1193,-6.041845E-05
467.2193,-6.042128E-05
467.3193,-6.036948E-05
467.4193,-6.036854E-05
467.5193,-6.03902E-05
467.6193,-6.035535E-05
467.7193,-6.034688E-05
467.8193,-6.034122E-05
467.9193,-6.030733E-05
468.0193,-6.031674E-05
468.1194,-6.031957E-05
468.2194,-6.031768E-05
468.3194,-6.028849E-05
468.4194,-6.028096E-05
468.5194,-6.026495E-05
468.6194,-6.025082E-05
468.7194,-6.025459E-05
468.8194,-6.025459E-05
468.9194,-6.022916E-05
469.0194,-6.021315E-05
469.1194,-6.022351E-05
469.2194,-6.022445E-05
469.3194,-6.020656E-05
469.4194,-6.017831E-05
469.5194,-6.018678E-05
469.6194,-6.016041E-05
469.7195,-6.017266E-05
469.8195,-6.01849E-05
469.9195,-6.017831E-05
470.0195,-6.01736E-05
470.1195,-6.018019E-05
470.2195,-6.013593E-05
470.3195,-6.011615E-05
470.4195,-6.014252E-05
470.5195,-6.009072E-05
470.6195,-6.006342E-05
470.7195,-6.010391E-05
470.8195,-6.009638E-05
470.9195,-6.006247E-05
471.0195,-6.005023E-05
471.1195,-6.007189E-05
471.2195,-6.006153E-05
471.3195,-6.003799E-05
471.4196,-6.001256E-05
471.5196,-6.000408E-05
471.6196,-5.999373E-05
471.7196,-5.998054E-05
471.8196,-5.995512E-05
471.9196,-5.995982E-05
472.0196,-5.995417E-05
472.1196,-5.990426E-05
472.2196,-5.993628E-05
472.3196,-5.990709E-05
472.4196,-5.99005E-05
472.5196,-5.99118E-05
472.6196,-5.986E-05
472.7196,-5.987413E-05
472.8196,-5.984305E-05
472.9196,-5.986094E-05
473.0197,-5.986471E-05
473.1197,-5.982045E-05
473.2197,-5.981951E-05
473.3197,-5.980538E-05
473.4197,-5.981009E-05
473.5197,-5.980256E-05
473.6197,-5.978184E-05
473.7197,-5.975358E-05
473.8197,-5.975924E-05
473.9197,-5.973381E-05
474.0197,-5.971403E-05
474.1197,-5.971498E-05
474.2197,-5.969332E-05
474.3197,-5.967542E-05
474.4197,-5.967825E-05
474.5197,-5.968578E-05
474.6198,-5.965941E-05
474.7198,-5.969802E-05
474.8198,-5.966601E-05
474.9198,-5.958219E-05
475.0198,-5.961704E-05
475.1198,-5.961704E-05
475.2198,-5.958313E-05
475.3198,-5.956242E-05
475.4198,-5.955488E-05
475.5198,-5.95464E-05
475.6198,-5.953039E-05
475.7198,-5.952381E-05
475.8198,-5.948801E-05
475.9198,-5.951627E-05
476.0198,-5.94899E-05
476.1198,-5.945977E-05
476.2198,-5.946542E-05
476.3199,-5.948143E-05
476.4199,-5.94447E-05
476.5199,-5.947483E-05
476.6199,-5.946542E-05
476.7199,-5.945317E-05
476.8199,-5.947201E-05
476.9199,-5.943434E-05
477.0199,-5.941268E-05
477.1199,-5.942963E-05
477.2199,-5.945412E-05
477.3199,-5.939196E-05
477.4199,-5.938254E-05
477.5199,-5.939479E-05
477.6199,-5.936842E-05
477.7199,-5.938254E-05
477.8199,-5.93251E-05
477.92,-5.929402E-05
478.02,-5.929214E-05
478.12,-5.928272E-05
478.22,-5.924505E-05
478.32,-5.926294E-05
478.42,-5.921021E-05
478.52,-5.922057E-05
478.62,-5.925071E-05
478.72,-5.921209E-05
478.82,-5.9165E-05
478.92,-5.919325E-05
479.02,-5.919796E-05
479.12,-5.916218E-05
479.22,-5.918384E-05
479.32,-5.915653E-05
479.42,-5.91311E-05
479.5201,-5.912074E-05
479.6201,-5.908778E-05
479.7201,-5.908025E-05
479.8201,-5.909061E-05
479.9201,-5.906895E-05
480.0201,-5.90294E-05
480.1201,-5.906518E-05
480.2201,-5.905105E-05
480.3201,-5.89889E-05
480.4201,-5.898419E-05
480.5201,-5.900397E-05
480.6201,-5.901715E-05
480.7201,-5.897195E-05
480.8201,-5.896065E-05
480.9201,-5.895783E-05
481.0201,-5.894746E-05
481.1201,-5.893428E-05
481.2202,-5.893051E-05
481.3202,-5.896065E-05
481.4202,-5.895688E-05
481.5202,-5.889379E-05
481.6202,-5.890226E-05
481.7202,-5.892298E-05
481.8202,-5.889849E-05
481.9202,-5.888814E-05
482.0202,-5.883822E-05
482.1202,-5.882598E-05
482.2202,-5.883728E-05
482.3202,-5.883822E-05
482.4202,-5.879585E-05
482.5202,-5.881656E-05
482.6202,-5.881656E-05
482.7202,-5.877607E-05
482.8203,-5.878172E-05
482.9203,-5.87836E-05
483.0203,-5.875535E-05
483.1203,-5.878172E-05
483.2203,-5.875912E-05
483.3203,-5.870732E-05
483.4203,-5.875441E-05
483.5203,-5.876477E-05
483.6203,-5.871015E-05
483.7203,-5.872239E-05
483.8203,-5.869037E-05
483.9203,-5.866118E-05
484.0203,-5.868943E-05
484.1203,-5.870732E-05
484.2203,-5.863858E-05
484.3203,-5.863481E-05
484.4203,-5.864328E-05
484.5204,-5.862351E-05
484.6204,-5.863387E-05
484.7204,-5.863481E-05
484.8204,-5.859997E-05
484.9204,-5.859997E-05
485.0204,-5.860185E-05
485.1204,-5.855476E-05
485.2204,-5.855664E-05
485.3204,-5.857454E-05
485.4204,-5.854628E-05
485.5204,-5.854063E-05
485.6204,-5.852086E-05
485.7204,-5.850768E-05
485.8204,-5.853781E-05
485.9204,-5.854723E-05
486.0204,-5.84766E-05
486.1205,-5.846718E-05
486.2205,-5.849261E-05
486.3205,-5.847471E-05
486.4205,-5.846906E-05
486.5205,-5.84766E-05
486.6205,-5.845117E-05
486.7205,-5.842669E-05
486.8205,-5.842574E-05
486.9205,-5.840032E-05
487.0205,-5.842009E-05
487.1205,-5.844176E-05
487.2205,-5.840032E-05
487.3205,-5.841539E-05
487.4205,-5.840408E-05
487.5205,-5.837018E-05
487.6205,-5.837772E-05
487.7206,-5.83909E-05
487.8206,-5.837113E-05
487.9206,-5.8357E-05
488.0206,-5.835606E-05
488.1206,-5.832781E-05
488.2206,-5.832309E-05
488.3206,-5.834758E-05
488.4206,-5.831368E-05
488.5206,-5.828166E-05
488.6206,-5.831651E-05
488.7206,-5.827978E-05
488.8206,-5.824587E-05
488.9206,-5.826753E-05
489.0206,-5.828354E-05
489.1206,-5.825435E-05
489.2206,-5.823363E-05
489.3206,-5.821574E-05
489.4207,-5.823457E-05
489.5207,-5.823081E-05
489.6207,-5.819784E-05
489.7207,-5.819502E-05
489.8207,-5.819125E-05
489.9207,-5.815924E-05
490.0207,-5.815924E-05
490.1207,-5.816677E-05
490.2207,-5.813851E-05
490.3207,-5.81517E-05
490.4207,-5.813663E-05
490.5207,-5.809614E-05
490.6207,-5.81178E-05
490.7207,-5.812439E-05
490.8207,-5.808672E-05
490.9207,-5.809897E-05
491.0208,-5.80886E-05
491.1208,-5.803775E-05
491.2208,-5.809049E-05
491.3208,-5.806694E-05
491.4208,-5.803022E-05
491.5208,-5.804246E-05
491.6208,-5.805282E-05
491.7208,-5.801986E-05
491.8208,-5.800197E-05
491.9208,-5.80208E-05
492.0208,-5.799537E-05
492.1208,-5.800103E-05
492.2208,-5.799914E-05
492.3208,-5.797748E-05
492.4208,-5.797936E-05
492.5208,-5.797748E-05
492.6208,-5.794829E-05
492.7209,-5.794264E-05
492.8209,-5.793228E-05
492.9209,-5.791439E-05
493.0209,-5.796995E-05
493.1209,-5.793699E-05
493.2209,-5.788331E-05
493.3209,-5.792286E-05
493.4209,-5.790497E-05
493.5209,-5.786353E-05
493.6209,-5.788425E-05
493.7209,-5.7856E-05
493.8209,-5.783434E-05
493.9209,-5.784752E-05
494.0209,-5.785976E-05
494.1209,-5.782492E-05
494.2209,-5.780044E-05
494.321,-5.781174E-05
494.421,-5.77816E-05
494.521,-5.778443E-05
494.621,-5.780044E-05
494.721,-5.775712E-05
494.821,-5.774675E-05
494.921,-5.773922E-05
495.021,-5.775429E-05
495.121,-5.772133E-05
495.221,-5.772227E-05
495.321,-5.769213E-05
495.421,-5.770532E-05
495.521,-5.77251E-05
495.621,-5.767142E-05
495.721,-5.767707E-05
495.821,-5.766483E-05
495.9211,-5.763846E-05
496.0211,-5.766671E-05
496.1211,-5.764976E-05
496.2211,-5.75942E-05
496.3211,-5.763375E-05
496.4211,-5.761303E-05
496.5211,-5.75716E-05
496.6211,-5.75876E-05
496.7211,-5.759043E-05
496.8211,-5.755747E-05
496.9211,-5.759891E-05
497.0211,-5.758007E-05
497.1211,-5.756877E-05
497.2211,-5.755747E-05
497.3211,-5.756406E-05
497.4211,-5.753393E-05
497.5211,-5.754711E-05
497.6212,-5.750285E-05
497.7212,-5.751509E-05
497.8212,-5.756029E-05
497.9212,-5.753769E-05
498.0212,-5.745953E-05
498.1212,-5.747836E-05
498.2212,-5.748684E-05
498.3212,-5.743787E-05
498.4212,-5.74633E-05
498.5212,-5.743505E-05
498.6212,-5.739832E-05
498.7212,-5.74454E-05
498.8212,-5.742563E-05
498.9212,-5.736818E-05
499.0212,-5.736912E-05
499.1212,-5.740585E-05
499.2213,-5.735029E-05
499.3213,-5.736536E-05
499.4213,-5.736347E-05
499.5213,-5.73032E-05
499.6213,-5.731639E-05
499.7213,-5.733616E-05
499.8213,-5.729002E-05
499.9213,-5.730132E-05
500.0213,-5.728343E-05
500.1213,-5.724482E-05
500.2213,-5.724764E-05
500.3213,-5.7258E-05
500.4213,-5.723352E-05
500.5213,-5.722975E-05
500.6213,-5.721091E-05
500.7213,-5.717983E-05
500.8214,-5.718831E-05
500.9214,-5.719114E-05
501.0214,-5.716571E-05
501.1214,-5.716759E-05
501.2214,-5.713087E-05
501.3214,-5.713745E-05
501.4214,-5.715252E-05
501.5214,-5.712804E-05
501.6214,-5.709131E-05
501.7214,-5.711109E-05
501.8214,-5.714782E-05
501.9214,-5.709131E-05
502.0214,-5.70932E-05
502.1214,-5.708095E-05
502.2214,-5.707248E-05
502.3214,-5.710167E-05
502.4214,-5.706871E-05
502.5215,-5.703575E-05
502.6215,-5.706306E-05
502.7215,-5.707059E-05
502.8215,-5.700185E-05
502.9215,-5.701785E-05
503.0215,-5.703857E-05
503.1215,-5.700185E-05
503.2215,-5.700938E-05
503.3215,-5.696794E-05
503.4215,-5.695099E-05
503.5215,-5.694158E-05
503.6215,-5.69783E-05
503.7215,-5.693121E-05
503.8215,-5.693121E-05
503.9215,-5.689167E-05
504.0215,-5.691521E-05
504.1216,-5.692463E-05
504.2216,-5.691709E-05
504.3216,-5.689072E-05
504.4216,-5.687377E-05
504.5216,-5.687471E-05
504.6216,-5.686247E-05
504.7216,-5.686436E-05
504.8216,-5.682103E-05
504.9216,-5.682857E-05
505.0216,-5.687283E-05
505.1216,-5.684175E-05
505.2216,-5.67909E-05
505.3216,-5.68022E-05
505.4216,-5.681915E-05
505.5216,-5.67796E-05
505.6216,-5.677677E-05
505.7216,-5.677866E-05
505.8217,-5.674475E-05
505.9217,-5.674852E-05
506.0217,-5.6757E-05
506.1217,-5.672121E-05
506.2217,-5.672875E-05
506.3217,-5.676924E-05
506.4217,-5.669013E-05
506.5217,-5.672498E-05
506.6217,-5.671744E-05
506.7217,-5.667506E-05
506.8217,-5.670049E-05
506.9217,-5.671462E-05
507.0217,-5.665152E-05
507.1217,-5.666942E-05
507.2217,-5.669107E-05
507.3217,-5.663834E-05
507.4218,-5.662892E-05
507.5218,-5.665906E-05
507.6218,-5.664399E-05
507.7218,-5.659314E-05
507.8218,-5.659125E-05
507.9218,-5.657524E-05
508.0218,-5.65969E-05
508.1218,-5.65969E-05
508.2218,-5.653192E-05
508.3218,-5.654699E-05
508.4218,-5.655547E-05
508.5218,-5.650273E-05
508.6218,-5.653098E-05
508.7218,-5.654511E-05
508.8218,-5.649991E-05
508.9218,-5.653945E-05
509.0219,-5.655923E-05
509.1219,-5.650367E-05
509.2219,-5.650838E-05
509.3219,-5.649331E-05
509.4219,-5.649425E-05
509.5219,-5.652816E-05
509.6219,-5.652533E-05
509.7219,-5.645847E-05
509.8219,-5.647072E-05
509.9219,-5.649896E-05
510.0219,-5.641044E-05
510.1219,-5.642551E-05
510.2219,-5.641421E-05
510.3219,-5.637748E-05
510.4219,-5.642551E-05
510.5219,-5.636995E-05
510.6219,-5.634075E-05
510.722,-5.633981E-05
510.822,-5.634075E-05
510.922,-5.632474E-05
511.022,-5.630497E-05
511.122,-5.632474E-05
511.222,-5.627954E-05
511.322,-5.627012E-05
511.422,-5.631532E-05
511.522,-5.634829E-05
511.622,-5.635393E-05
511.722,-5.634734E-05
511.822,-5.632851E-05
511.922,-5.629649E-05
512.022,-5.626353E-05
512.122,-5.626636E-05
512.222,-5.62786E-05
512.322,-5.627483E-05
512.4219,-5.624658E-05
512.5219,-5.621927E-05
512.6219,-5.621456E-05
512.7219,-5.613828E-05
512.8218,-5.613922E-05
512.9218,-5.61364E-05
513.0218,-5.608178E-05
513.1218,-5.612133E-05
513.2217,-5.60959E-05
513.3217,-5.603752E-05
513.4217,-5.608178E-05
513.5217,-5.606859E-05
513.6216,-5.601679E-05
513.7216,-5.604882E-05
513.8216,-5.604599E-05
513.9216,-5.599984E-05
514.0215,-5.601491E-05
514.1215,-5.602339E-05
514.2215,-5.598289E-05
514.3215,-5.599796E-05
514.4214,-5.598572E-05
514.5214,-5.59537E-05
514.6214,-5.595558E-05
514.7214,-5.596595E-05
514.8214,-5.595841E-05
514.9213,-5.593769E-05
515.0213,-5.590849E-05
515.1213,-5.592074E-05
515.2213,-5.595087E-05
515.3212,-5.589343E-05
515.4212,-5.588213E-05
515.5212,-5.588307E-05
515.6212,-5.588119E-05
515.7211,-5.589155E-05
515.8211,-5.591509E-05
515.9211,-5.586612E-05
516.0211,-5.58341E-05
516.121,-5.583692E-05
516.221,-5.584258E-05
516.321,-5.583222E-05
516.421,-5.58567E-05
516.5209,-5.582374E-05
516.6209,-5.581621E-05
516.7209,-5.579926E-05
516.8209,-5.57889E-05
516.9208,-5.582468E-05
517.0208,-5.579078E-05
517.1208,-5.575405E-05
517.2208,-5.578795E-05
517.3207,-5.580396E-05
517.4207,-5.577289E-05
517.5207,-5.578136E-05
517.6207,-5.577289E-05
517.7206,-5.571921E-05
517.8206,-5.576441E-05
517.9206,-5.573993E-05
518.0206,-5.570791E-05
518.1205,-5.571826E-05
518.2205,-5.571356E-05
518.3205,-5.569755E-05
518.4205,-5.570132E-05
518.5204,-5.569284E-05
518.6204,-5.565517E-05
518.7204,-5.568625E-05
518.8204,-5.570038E-05
518.9203,-5.563634E-05
519.0203,-5.56806E-05
519.1203,-5.565706E-05
519.2203,-5.565706E-05
519.3203,-5.56401E-05
519.4202,-5.563257E-05
519.5202,-5.568437E-05
519.6202,-5.565046E-05
519.7202,-5.562786E-05
519.8201,-5.561091E-05
519.9201,-5.562786E-05
520.0201,-5.56062E-05
520.1201,-5.55836E-05
520.22,-5.560714E-05
520.32,-5.559773E-05
520.42,-5.557983E-05
520.52,-5.558548E-05
520.6199,-5.556759E-05
520.7199,-5.55384E-05
520.8199,-5.555158E-05
520.9199,-5.554781E-05
521.0198,-5.553557E-05
521.1198,-5.556006E-05
521.2198,-5.55318E-05
521.3198,-5.549979E-05
521.4197,-5.551957E-05
521.5197,-5.55384E-05
521.6197,-5.549414E-05
521.7197,-5.549884E-05
521.8196,-5.549884E-05
521.9196,-5.546494E-05
522.0196,-5.550638E-05
522.1196,-5.551579E-05
522.2195,-5.545929E-05
522.3195,-5.547153E-05
522.4195,-5.546023E-05
522.5195,-5.54301E-05
522.6194,-5.543387E-05
522.7194,-5.544234E-05
522.8194,-5.544328E-05
522.9194,-5.541691E-05
523.0193,-5.542256E-05
523.1193,-5.540373E-05
523.2193,-5.538584E-05
523.3193,-5.54188E-05
523.4193,-5.540373E-05
523.5192,-5.538866E-05
523.6192,-5.536135E-05
523.7192,-5.537642E-05
523.8192,-5.543198E-05
523.9191,-5.543104E-05
524.0191,-5.535947E-05
524.1191,-5.536512E-05
524.2191,-5.53896E-05
524.319,-5.535287E-05
524.419,-5.537265E-05
524.519,-5.533687E-05
524.619,-5.533216E-05
524.7189,-5.540184E-05
524.8189,-5.541786E-05
524.9189,-5.534346E-05
525.0189,-5.536512E-05
525.1188,-5.540561E-05
525.2188,-5.534157E-05
525.3188,-5.5367E-05
525.4188,-5.537736E-05
525.5187,-5.533969E-05
525.6187,-5.534722E-05
525.7187,-5.536512E-05
525.8187,-5.52813E-05
525.9186,-5.531992E-05
526.0186,-5.532651E-05
526.1186,-5.527283E-05
526.2186,-5.525682E-05
526.3185,-5.524552E-05
526.4185,-5.523987E-05
526.5185,-5.522669E-05
526.6185,-5.522951E-05
526.7184,-5.517865E-05
526.8184,-5.522763E-05
526.9184,-5.519372E-05
527.0184,-5.517771E-05
527.1183,-5.52022E-05
527.2183,-5.516265E-05
527.3183,-5.515511E-05
527.4183,-5.516641E-05
527.5182,-5.513816E-05
527.6182,-5.512592E-05
527.7182,-5.51391E-05
527.8182,-5.513345E-05
527.9182,-5.510237E-05
528.0181,-5.514193E-05
528.1181,-5.514569E-05
528.2181,-5.509484E-05
528.3181,-5.513345E-05
528.418,-5.512215E-05
528.518,-5.512403E-05
528.618,-5.514569E-05
528.718,-5.515794E-05
528.8179,-5.51118E-05
528.9179,-5.509484E-05
529.0179,-5.509861E-05
529.1179,-5.506282E-05
529.2178,-5.505058E-05
529.3178,-5.503928E-05
529.4178,-5.501385E-05
529.5178,-5.504587E-05
529.6177,-5.502986E-05
529.7177,-5.500538E-05
529.8177,-5.500726E-05
529.9177,-5.498748E-05
530.0176,-5.496959E-05
530.1176,-5.498842E-05
530.2176,-5.494981E-05
530.3176,-5.493381E-05
530.4175,-5.497712E-05
530.5175,-5.495547E-05
530.6175,-5.494605E-05
530.7175,-5.493004E-05
530.8174,-5.493381E-05
530.9174,-5.491779E-05
531.0174,-5.49743E-05
531.1174,-5.495547E-05
531.2173,-5.489802E-05
531.3173,-5.49112E-05
531.4173,-5.492533E-05
531.5173,-5.488107E-05
531.6172,-5.490085E-05
531.7172,-5.489519E-05
531.8172,-5.484246E-05
531.9172,-5.48886E-05
532.0172,-5.48839E-05
532.1171,-5.488201E-05
532.2171,-5.486883E-05
532.3171,-5.487259E-05
532.4171,-5.484999E-05
532.517,-5.486412E-05
532.617,-5.482927E-05
532.717,-5.479914E-05
532.817,-5.485282E-05
532.9169,-5.485658E-05
533.0169,-5.482834E-05
533.1169,-5.481044E-05
533.2169,-5.483304E-05
533.3168,-5.483304E-05
533.4168,-5.485093E-05
533.5168,-5.481609E-05
533.6168,-5.478972E-05
533.7167,-5.482268E-05
533.8167,-5.48255E-05
533.9167,-5.481703E-05
534.0167,-5.479726E-05
534.1166,-5.474923E-05
534.2166,-5.475393E-05
534.3166,-5.476523E-05
534.4166,-5.476618E-05
534.5165,-5.474357E-05
534.6165,-5.474263E-05
534.7165,-5.475958E-05
534.8165,-5.474357E-05
534.9164,-5.47577E-05
535.0164,-5.471721E-05
535.1164,-5.469272E-05
535.2164,-5.473133E-05
535.3163,-5.469931E-05
535.4163,-5.467766E-05
535.5163,-5.470591E-05
535.6163,-5.465694E-05
535.7162,-5.469743E-05
535.8162,-5.47238E-05
535.9162,-5.471156E-05
536.0162,-5.466447E-05
536.1161,-5.472286E-05
536.2161,-5.469272E-05
536.3161,-5.465411E-05
536.4161,-5.465317E-05
536.5161,-5.464846E-05
536.616,-5.463904E-05
536.716,-5.463999E-05
536.816,-5.460515E-05
536.916,-5.45863E-05
537.0159,-5.460797E-05
537.1159,-5.465411E-05
537.2159,-5.460797E-05
537.3159,-5.458065E-05
537.4158,-5.461927E-05
537.5158,-5.457124E-05
537.6158,-5.458725E-05
537.7158,-5.459572E-05
537.8157,-5.456182E-05
537.9157,-5.455146E-05
538.0157,-5.453922E-05
538.1157,-5.450626E-05
538.2156,-5.454487E-05
538.3156,-5.458254E-05
538.4156,-5.454958E-05
538.5156,-5.449496E-05
538.6155,-5.454299E-05
538.7155,-5.450438E-05
538.8155,-5.451097E-05
538.9155,-5.449873E-05
539.0154,-5.450343E-05
539.1154,-5.449496E-05
539.2154,-5.445823E-05
539.3154,-5.447424E-05
539.4153,-5.445352E-05
539.5153,-5.445917E-05
539.6153,-5.444599E-05
539.7153,-5.443657E-05
539.8152,-5.445635E-05
539.9152,-5.442715E-05
540.0152,-5.445447E-05
540.1152,-5.440361E-05
540.2151,-5.440079E-05
540.3151,-5.442904E-05
540.4151,-5.439231E-05
540.5151,-5.441773E-05
540.6151,-5.438007E-05
540.715,-5.436406E-05
540.815,-5.437065E-05
540.915,-5.435746E-05
541.015,-5.436123E-05
541.1149,-5.436783E-05
541.2149,-5.433957E-05
541.3149,-5.434051E-05
541.4149,-5.43245E-05
541.5148,-5.433204E-05
541.6148,-5.433863E-05
541.7148,-5.433204E-05
541.8148,-5.434616E-05
541.9147,-5.42972E-05
542.0147,-5.429154E-05
542.1147,-5.428966E-05
542.2147,-5.42972E-05
542.3146,-5.430661E-05
542.4146,-5.428119E-05
542.5146,-5.426894E-05
542.6146,-5.427177E-05
542.7145,-5.428589E-05
542.8145,-5.426611E-05
542.9145,-5.426046E-05
543.0145,-5.424917E-05
543.1144,-5.421715E-05
543.2144,-5.42341E-05
543.3144,-5.423033E-05
543.4144,-5.421244E-05
543.5143,-5.41936E-05
543.6143,-5.419454E-05
543.7143,-5.417854E-05
543.8143,-5.41936E-05
543.9142,-5.419454E-05
544.0142,-5.417195E-05
544.1142,-5.417948E-05
544.2142,-5.417289E-05
544.3141,-5.415594E-05
544.4141,-5.415876E-05
544.5141,-5.4155E-05
544.6141,-5.410885E-05
544.7141,-5.412391E-05
544.814,-5.411073E-05
544.914,-5.410696E-05
545.014,-5.412109E-05
545.114,-5.41145E-05
545.2139,-5.409472E-05
545.3139,-5.410791E-05
545.4139,-5.410038E-05
545.5139,-5.405611E-05
545.6138,-5.404481E-05
545.7138,-5.407306E-05
545.8138,-5.405234E-05
545.9138,-5.407024E-05
546.0137,-5.406365E-05
546.1137,-5.402786E-05
546.2137,-5.402409E-05
546.3137,-5.403163E-05
546.4136,-5.404669E-05
546.5136,-5.405894E-05
546.6136,-5.400432E-05
546.7136,-5.399772E-05
546.8135,-5.400149E-05
546.9135,-5.400243E-05
547.0135,-5.398266E-05
547.1135,-5.398077E-05
547.2134,-5.397607E-05
547.3134,-5.395346E-05
547.4134,-5.39497E-05
547.5134,-5.397607E-05
547.6133,-5.393275E-05
547.7133,-5.393275E-05
547.8133,-5.394687E-05
547.9133,-5.390355E-05
548.0132,-5.389696E-05
548.1132,-5.393369E-05
548.2132,-5.389037E-05
548.3132,-5.388754E-05
548.4131,-5.386682E-05
548.5131,-5.387436E-05
548.6131,-5.392992E-05
548.7131,-5.393557E-05
548.813,-5.387719E-05
548.913,-5.384422E-05
549.013,-5.387059E-05
549.113,-5.386588E-05
549.213,-5.384234E-05
549.3129,-5.384422E-05
549.4129,-5.383763E-05
549.5129,-5.381691E-05
549.6129,-5.380467E-05
549.7128,-5.381597E-05
549.8128,-5.383293E-05
549.9128,-5.38122E-05
550.0128,-5.380938E-05
550.1127,-5.380278E-05
550.2127,-5.37783E-05
550.3127,-5.376606E-05
550.4127,-5.376888E-05
550.5126,-5.375852E-05
550.6126,-5.375852E-05
550.7126,-5.379714E-05
550.8126,-5.379337E-05
550.9125,-5.373592E-05
551.0125,-5.372745E-05
551.1125,-5.378207E-05
551.2125,-5.373121E-05
551.3124,-5.374723E-05
551.4124,-5.373121E-05
551.5124,-5.367942E-05
551.6124,-5.371709E-05
551.7123,-5.371614E-05
551.8123,-5.368319E-05
551.9123,-5.3654E-05
552.0123,-5.36766E-05
552.1122,-5.366906E-05
552.2122,-5.368601E-05
552.3122,-5.365211E-05
552.4122,-5.36248E-05
552.5121,-5.366623E-05
552.6121,-5.364552E-05
552.7121,-5.363516E-05
552.8121,-5.361162E-05
552.912,-5.36135E-05
553.012,-5.362197E-05
553.112,-5.359278E-05
553.212,-5.357866E-05
553.312,-5.362103E-05
553.4119,-5.359372E-05
553.5119,-5.355605E-05
553.6119,-5.355605E-05
553.7119,-5.35504E-05
553.8118,-5.353628E-05
553.9118,-5.356453E-05
554.0118,-5.354193E-05
554.1118,-5.350049E-05
554.2117,-5.354946E-05
554.3117,-5.351556E-05
554.4117,-5.350614E-05
554.5117,-5.350614E-05
554.6116,-5.349013E-05
554.7116,-5.350049E-05
554.8116,-5.348542E-05
554.9116,-5.346376E-05
555.0115,-5.348165E-05
555.1115,-5.34939E-05
555.2115,-5.346847E-05
555.3115,-5.344211E-05
555.4114,-5.34826E-05
555.5114,-5.350143E-05
555.6114,-5.347883E-05
555.7114,-5.351085E-05
555.8113,-5.345058E-05
555.9113,-5.34195E-05
556.0113,-5.34308E-05
556.1113,-5.343174E-05
556.2112,-5.339785E-05
556.3112,-5.342044E-05
556.4112,-5.340349E-05
556.5112,-5.33451E-05
556.6111,-5.338183E-05
556.7111,-5.338466E-05
556.8111,-5.338278E-05
556.9111,-5.335547E-05
557.011,-5.335641E-05
557.111,-5.331121E-05
557.211,-5.334793E-05
557.311,-5.336582E-05
557.4109,-5.334134E-05
557.5109,-5.334134E-05
557.6109,-5.333757E-05
557.7109,-5.330649E-05
557.8109,-5.331685E-05
557.9108,-5.331968E-05
558.0108,-5.329425E-05
558.1108,-5.329143E-05
558.2108,-5.332438E-05
558.3107,-5.3266E-05
558.4107,-5.32773E-05
558.5107,-5.32773E-05
558.6107,-5.325187E-05
558.7106,-5.327447E-05
558.8106,-5.327165E-05
558.9106,-5.321703E-05
559.0106,-5.324528E-05
559.1105,-5.325375E-05
559.2105,-5.324057E-05
559.3105,-5.324905E-05
559.4105,-5.32142E-05
559.5104,-5.319725E-05
559.6104,-5.322268E-05
559.7104,-5.322456E-05
559.8104,-5.319631E-05
559.9103,-5.323398E-05
560.0103,-5.326223E-05
560.1103,-5.319254E-05
560.2103,-5.323963E-05
560.3102,-5.320855E-05
560.4102,-5.319725E-05
560.5102,-5.318501E-05
560.6102,-5.318878E-05
560.7101,-5.316806E-05
560.8101,-5.317465E-05
560.9101,-5.314923E-05
561.0101,-5.312285E-05
561.11,-5.314075E-05
561.21,-5.316147E-05
561.31,-5.313039E-05
561.41,-5.311909E-05
561.5099,-5.313322E-05
561.6099,-5.312945E-05
561.7099,-5.313227E-05
561.8099,-5.310308E-05
561.9099,-5.309931E-05
562.0098,-5.309743E-05
562.1098,-5.310873E-05
562.2098,-5.309366E-05
562.3098,-5.311815E-05
562.4097,-5.310402E-05
562.5097,-5.311815E-05
562.6097,-5.312191E-05
562.7097,-5.307106E-05
562.8096,-5.305976E-05
562.9096,-5.30899E-05
563.0096,-5.305693E-05
563.1096,-5.300514E-05
563.2095,-5.307671E-05
563.3095,-5.305787E-05
563.4095,-5.299008E-05
563.5095,-5.30494E-05
563.6094,-5.304846E-05
563.7094,-5.304658E-05
563.8094,-5.302491E-05
563.9094,-5.299384E-05
564.0093,-5.299949E-05
564.1093,-5.301456E-05
564.2093,-5.299478E-05
564.3093,-5.295052E-05
564.4092,-5.300137E-05
564.5092,-5.300891E-05
564.6092,-5.296747E-05
564.7092,-5.295617E-05
564.8091,-5.294958E-05
564.9091,-5.292886E-05
565.0091,-5.29703E-05
565.1091,-5.295899E-05
565.209,-5.291661E-05
565.309,-5.294581E-05
565.409,-5.295523E-05
565.509,-5.293827E-05
565.6089,-5.294675E-05
565.7089,-5.291285E-05
565.8089,-5.289684E-05
565.9089,-5.294581E-05
566.0089,-5.297312E-05
566.1088,-5.302303E-05
566.2088,-5.303151E-05
566.3088,-5.295052E-05
566.4088,-5.297218E-05
566.5087,-5.299008E-05
566.6087,-5.295617E-05
566.7087,-5.293639E-05
566.8087,-5.293168E-05
566.9086,-5.293734E-05
567.0086,-5.289025E-05
567.1086,-5.288742E-05
567.2086,-5.288554E-05
567.3085,-5.287047E-05
567.4085,-5.28959E-05
567.5085,-5.288177E-05
567.6085,-5.2862E-05
567.7084,-5.28893E-05
567.8084,-5.286953E-05
567.9084,-5.285823E-05
568.0084,-5.288742E-05
568.1083,-5.282056E-05
568.2083,-5.282433E-05
568.3083,-5.281868E-05
568.4083,-5.283939E-05
568.5082,-5.280926E-05
568.6082,-5.279984E-05
568.7082,-5.281679E-05
568.8082,-5.282433E-05
568.9081,-5.283374E-05
569.0081,-5.280832E-05
569.1081,-5.276217E-05
569.2081,-5.2765E-05
569.308,-5.280738E-05
569.408,-5.275652E-05
569.508,-5.276123E-05
569.608,-5.273581E-05
569.7079,-5.272073E-05
569.8079,-5.276029E-05
569.9079,-5.276594E-05
570.0079,-5.275087E-05
570.1078,-5.274428E-05
570.2078,-5.270284E-05
570.3078,-5.273675E-05
570.4078,-5.26972E-05
570.5078,-5.266423E-05
570.6077,-5.269813E-05
570.7077,-5.268589E-05
570.8077,-5.266517E-05
570.9077,-5.266046E-05
571.0076,-5.266894E-05
571.1076,-5.263598E-05
571.2076,-5.262468E-05
571.3076,-5.265482E-05
571.4075,-5.260585E-05
571.5075,-5.260208E-05
571.6075,-5.259737E-05
571.7075,-5.259737E-05
571.8074,-5.257853E-05
571.9074,-5.257288E-05
572.0074,-5.257665E-05
572.1074,-5.258419E-05
572.2073,-5.258701E-05
572.3073,-5.258042E-05
572.4073,-5.252391E-05
572.5073,-5.256158E-05
572.6072,-5.2571E-05
572.7072,-5.256535E-05
572.8072,-5.25484E-05
572.9072,-5.252203E-05
573.0071,-5.251827E-05
573.1071,-5.253145E-05
573.2071,-5.255405E-05
573.3071,-5.251167E-05
573.407,-5.252768E-05
573.507,-5.252015E-05
573.607,-5.249661E-05
573.707,-5.252768E-05
573.8069,-5.254463E-05
573.9069,-5.250508E-05
574.0069,-5.249755E-05
574.1069,-5.249189E-05
574.2068,-5.247212E-05
574.3068,-5.249755E-05
574.4068,-5.251356E-05
574.5068,-5.248719E-05
574.6068,-5.247871E-05
574.7067,-5.252015E-05
574.8067,-5.252109E-05
574.9067,-5.255216E-05
575.0067,-5.256912E-05
575.1066,-5.252862E-05
575.2066,-5.250979E-05
575.3066,-5.257571E-05
575.4066,-5.256253E-05
575.5065,-5.251262E-05
575.6065,-5.255593E-05
575.7065,-5.250602E-05
575.8065,-5.250414E-05
575.9064,-5.252015E-05
576.0064,-5.249284E-05
576.1064,-5.25145E-05
576.2064,-5.248813E-05
576.3063,-5.243445E-05
576.4063,-5.245611E-05
576.5063,-5.244575E-05
576.6063,-5.24062E-05
576.7062,-5.241656E-05
576.8062,-5.243162E-05
576.9062,-5.238924E-05
577.0062,-5.239867E-05
577.1061,-5.240055E-05
577.2061,-5.237701E-05
577.3061,-5.23723E-05
577.4061,-5.240808E-05
577.506,-5.238171E-05
577.606,-5.236382E-05
577.706,-5.234499E-05
577.806,-5.233651E-05
577.9059,-5.234687E-05
578.0059,-5.234781E-05
578.1059,-5.23657E-05
578.2059,-5.231956E-05
578.3058,-5.23205E-05
578.4058,-5.23205E-05
578.5058,-5.232992E-05
578.6058,-5.231767E-05
578.7057,-5.231767E-05
578.8057,-5.229978E-05
578.9057,-5.225834E-05
579.0057,-5.229978E-05
579.1057,-5.232238E-05
579.2056,-5.228471E-05
579.3056,-5.228565E-05
579.4056,-5.22866E-05
579.5056,-5.227435E-05
579.6055,-5.227342E-05
579.7055,-5.229037E-05
579.8055,-5.225081E-05
579.9055,-5.224893E-05
580.0054,-5.228565E-05
580.1054,-5.225552E-05
580.2054,-5.226306E-05
580.3054,-5.225175E-05
580.4053,-5.223669E-05
580.5053,-5.224987E-05
580.6053,-5.22753E-05
580.7053,-5.223386E-05
580.8052,-5.223481E-05
580.9052,-5.224705E-05
581.0052,-5.222444E-05
581.1052,-5.223198E-05
581.2051,-5.222256E-05
581.3051,-5.221408E-05
581.4051,-5.226682E-05
581.5051,-5.230449E-05
581.605,-5.22122E-05
581.705,-5.220938E-05
581.805,-5.225552E-05
581.905,-5.22122E-05
582.0049,-5.220938E-05
582.1049,-5.224516E-05
582.2049,-5.219148E-05
582.3049,-5.218583E-05
582.4048,-5.222068E-05
582.5048,-5.220938E-05
582.6048,-5.21717E-05
582.7048,-5.219902E-05
582.8047,-5.216323E-05
582.9047,-5.217642E-05
583.0047,-5.220184E-05
583.1047,-5.217548E-05
583.2047,-5.218489E-05
583.3046,-5.214722E-05
583.4046,-5.21557E-05
583.5046,-5.215193E-05
583.6046,-5.217077E-05
583.7045,-5.217077E-05
583.8045,-5.213874E-05
583.9045,-5.212839E-05
584.0045,-5.214628E-05
584.1044,-5.219243E-05
584.2044,-5.215852E-05
584.3044,-5.216135E-05
584.4044,-5.215852E-05
584.5043,-5.21265E-05
584.6043,-5.217548E-05
584.7043,-5.217453E-05
584.8043,-5.211803E-05
584.9042,-5.21265E-05
585.0042,-5.215287E-05
585.1042,-5.212462E-05
585.2042,-5.213121E-05
585.3041,-5.213686E-05
585.4041,-5.210485E-05
585.5041,-5.212745E-05
585.6041,-5.212839E-05
585.704,-5.21152E-05
585.804,-5.210202E-05
585.904,-5.211426E-05
586.004,-5.210013E-05
586.1039,-5.210767E-05
586.2039,-5.211426E-05
586.3039,-5.209072E-05
586.4039,-5.209166E-05
586.5038,-5.211803E-05
586.6038,-5.209637E-05
586.7038,-5.210296E-05
586.8038,-5.211049E-05
586.9037,-5.208319E-05
587.0037,-5.213874E-05
587.1037,-5.212933E-05
587.2037,-5.210391E-05
587.3036,-5.210767E-05
587.4036,-5.213592E-05
587.5036,-5.208978E-05
587.6036,-5.210955E-05
587.7036,-5.213592E-05
587.8035,-5.208883E-05
587.9035,-5.207471E-05
588.0035,-5.210391E-05
588.1035,-5.210391E-05
588.2034,-5.210013E-05
588.3034,-5.211144E-05
588.4034,-5.207754E-05
588.5034,-5.206152E-05
588.6033,-5.209166E-05
588.7033,-5.206812E-05
588.8033,-5.208036E-05
588.9033,-5.208224E-05
589.0032,-5.207094E-05
589.1032,-5.211708E-05
589.2032,-5.208601E-05
589.3032,-5.204551E-05
589.4031,-5.207659E-05
589.5031,-5.207471E-05
589.6031,-5.204551E-05
589.7031,-5.207471E-05
589.803,-5.20248E-05
589.903,-5.20295E-05
590.003,-5.20069E-05
590.103,-5.203327E-05
590.2029,-5.199655E-05
590.3029,-5.202385E-05
590.4029,-5.201915E-05
590.5029,-5.199843E-05
590.6028,-5.201632E-05
590.7028,-5.20135E-05
590.8028,-5.194946E-05
590.9028,-5.197394E-05
591.0027,-5.198712E-05
591.1027,-5.199937E-05
591.2027,-5.198901E-05
591.3027,-5.198901E-05
591.4026,-5.196264E-05
591.5026,-5.198242E-05
591.6026,-5.199843E-05
591.7026,-5.198807E-05
591.8026,-5.202668E-05
591.9025,-5.200785E-05
592.0025,-5.196735E-05
592.1025,-5.201538E-05
592.2025,-5.198054E-05
592.3024,-5.198807E-05
592.4024,-5.199843E-05
592.5024,-5.199089E-05
592.6024,-5.198901E-05
592.7023,-5.198147E-05
592.8023,-5.199466E-05
592.9023,-5.195511E-05
593.0023,-5.195417E-05
593.1022,-5.197677E-05
593.2022,-5.195228E-05
593.3022,-5.197018E-05
593.4022,-5.19504E-05
593.5021,-5.193628E-05
593.6021,-5.194475E-05
593.7021,-5.195605E-05
593.8021,-5.193816E-05
593.902,-5.193062E-05
594.002,-5.195228E-05
594.102,-5.195134E-05
594.202,-5.196735E-05
594.3019,-5.190708E-05
594.4019,-5.191932E-05
594.5019,-5.197018E-05
594.6019,-5.194098E-05
594.7018,-5.191367E-05
594.8018,-5.195699E-05
594.9018,-5.193251E-05
595.0018,-5.187883E-05
595.1017,-5.192498E-05
595.2017,-5.196829E-05
595.3017,-5.189767E-05
595.4017,-5.18647E-05
595.5016,-5.194286E-05
595.6016,-5.192309E-05
595.7016,-5.193156E-05
595.8016,-5.193156E-05
595.9016,-5.190426E-05
596.0015,-5.191179E-05
596.1015,-5.194475E-05
596.2015,-5.18939E-05
596.3015,-5.190614E-05
596.4014,-5.194946E-05
596.5014,-5.191273E-05
596.6014,-5.193439E-05
596.7014,-5.193156E-05
596.8013,-5.189861E-05
596.9013,-5.190426E-05
597.0013,-5.188636E-05
597.1013,-5.188542E-05
597.2012,-5.191179E-05
597.3012,-5.190802E-05
597.4012,-5.187694E-05
597.5012,-5.192026E-05
597.6011,-5.19212E-05
597.7011,-5.185435E-05
597.8011,-5.188919E-05
597.9011,-5.189767E-05
598.001,-5.185623E-05
598.101,-5.191085E-05
598.201,-5.187789E-05
598.301,-5.182798E-05
598.4009,-5.186659E-05
598.5009,-5.189767E-05
598.6009,-5.183928E-05
598.7009,-5.186282E-05
598.8008,-5.18826E-05
598.9008,-5.184963E-05
599.0008,-5.188448E-05
599.1008,-5.188071E-05
599.2007,-5.186376E-05
599.3007,-5.190614E-05
599.4007,-5.18939E-05
599.5007,-5.181761E-05
599.6006,-5.18308E-05
599.7006,-5.183833E-05
599.8006,-5.180726E-05
599.9006,-5.185246E-05
600.0005,-5.182986E-05
