EXPID. 0519
[电化学]: i-t : @ 0(V) X 600(sec)
起始电位 (V),0
静置时间 (秒),0
运行时间 (秒),600
记录间隔,0.1
电解液 信息:
HNO3,0.4
0.1,-0.01005814
0.2,-0.01005814
0.3,-0.01005814
0.4,-0.01005814
0.5,0.004912463
0.6,0.008653578
0.7,0.00387395
0.8000001,-0.001016222
0.9000001,-0.003531035
1,-0.004109002
1.1,-0.004093361
1.2,-0.003967519
1.3,-0.003827217
1.4,-0.003688057
1.5,-0.003568102
1.6,-0.00345818
1.7,-0.003357276
1.8,-0.003267551
1.9,-0.00318248
2,-0.003100554
2.1,-0.003024353
2.2,-0.002946778
2.3,-0.002856882
2.4,-0.002761779
2.5,-0.002656556
2.6,-0.002551328
2.7,-0.002451221
2.799999,-0.002361756
2.899999,-0.002276444
2.999999,-0.002197595
3.099999,-0.002128958
3.199999,-0.002065328
3.299999,-0.002006291
3.399999,-0.001953783
3.499999,-0.001905825
3.599999,-0.001862001
3.699999,-0.001820667
3.799999,-0.001783378
3.899998,-0.001749966
3.999998,-0.00171698
4.099998,-0.00168717
4.199998,-0.00165997
4.299998,-0.001633727
4.399998,-0.001609052
4.499998,-0.001586389
4.599998,-0.001564419
4.699998,-0.001543926
4.799998,-0.001524705
4.899998,-0.001506004
4.999998,-0.001488653
5.099998,-0.00147185
5.199997,-0.001456057
5.299997,-0.001440807
5.399997,-0.001426025
5.499997,-0.001412119
5.599997,-0.00139906
5.699997,-0.001386427
5.799997,-0.001374042
5.899997,-0.001362022
5.999997,-0.001350655
6.099997,-0.00133937
6.199996,-0.001328648
6.299996,-0.001318455
6.399996,-0.001308616
6.499996,-0.001298708
6.599996,-0.001289632
6.699996,-0.001281027
6.799996,-0.0012724
6.899996,-0.001263908
6.999996,-0.001255808
7.099996,-0.001247861
7.199996,-0.001239967
7.299995,-0.001232283
7.399995,-0.00122597
7.499995,-0.001218574
7.599995,-0.001211225
7.699995,-0.001204778
7.799995,-0.001198408
7.899995,-0.001191604
7.999995,-0.001185335
8.099995,-0.001179824
8.199995,-0.001173044
8.299995,-0.001166784
8.399996,-0.001161248
8.499996,-0.001155009
8.599997,-0.001149148
8.699997,-0.00114335
8.799997,-0.00113768
8.899998,-0.001132121
8.999998,-0.001126815
9.099998,-0.001121415
9.199999,-0.001116464
9.299999,-0.001111187
9.4,-0.001106068
9.5,-0.001101222
9.6,-0.001096365
9.700001,-0.001091439
9.800001,-0.001087004
9.900002,-0.001082558
10,-0.001078195
10.1,-0.001073645
10.2,-0.001069635
10.3,-0.001065602
10.4,-0.001061424
10.5,-0.001057444
10.6,-0.001053468
10.7,-0.001049553
10.8,-0.0010456
10.90001,-0.001041783
11.00001,-0.001037874
11.10001,-0.001033994
11.20001,-0.001030381
11.30001,-0.001026623
11.40001,-0.001022816
11.50001,-0.001019377
11.60001,-0.001016035
11.70001,-0.001012386
11.80001,-0.001009103
11.90001,-0.001005955
12.00001,-0.001002736
12.10001,-0.0009997983
12.20001,-0.0009969646
12.30001,-0.0009938908
12.40001,-0.0009909282
12.50001,-0.0009878657
12.60001,-0.000984596
12.70001,-0.0009816191
12.80001,-0.0009785774
12.90001,-0.0009754008
13.00001,-0.0009725578
13.10001,-0.0009696187
13.20001,-0.0009666842
13.30001,-0.0009639513
13.40001,-0.0009611826
13.50002,-0.0009582161
13.60002,-0.0009555643
13.70002,-0.0009530009
13.80002,-0.0009502274
13.90002,-0.0009474126
14.00002,-0.0009449877
14.10002,-0.0009423367
14.20002,-0.000939585
14.30002,-0.0009371656
14.40002,-0.0009347021
14.50002,-0.0009322074
14.60002,-0.0009298748
14.70002,-0.0009275091
14.80002,-0.0009251162
14.90002,-0.000922825
15.00002,-0.0009205347
15.10002,-0.0009184214
15.20002,-0.0009160935
15.30002,-0.0009137382
15.40002,-0.000911672
15.50002,-0.0009094373
15.60002,-0.000907308
15.70002,-0.0009050394
15.80002,-0.0009028442
15.90002,-0.0009006331
16.00002,-0.0008984294
16.10003,-0.0008961796
16.20003,-0.0008940654
16.30003,-0.0008919202
16.40003,-0.0008899331
16.50003,-0.0008878067
16.60003,-0.0008857282
16.70003,-0.0008837601
16.80003,-0.0008817711
16.90003,-0.0008799055
17.00003,-0.0008778441
17.10003,-0.0008757657
17.20003,-0.0008738172
17.30003,-0.0008719385
17.40003,-0.0008701304
17.50003,-0.0008684249
17.60003,-0.0008666374
17.70003,-0.0008650394
17.80003,-0.0008631032
17.90003,-0.0008612404
18.00003,-0.0008594663
18.10003,-0.0008576788
18.20003,-0.0008559601
18.30003,-0.0008541775
18.40003,-0.0008524456
18.50003,-0.0008508164
18.60003,-0.000849045
18.70004,-0.000847251
18.80004,-0.0008455408
18.90004,-0.0008436668
19.00004,-0.0008419782
19.10004,-0.0008402747
19.20004,-0.0008384694
19.30004,-0.0008368713
19.40004,-0.0008353635
19.50004,-0.0008336147
19.60004,-0.0008319413
19.70004,-0.0008303922
19.80004,-0.0008287112
19.90004,-0.0008269605
20.00004,-0.0008254565
20.10004,-0.0008238641
20.20004,-0.0008221849
20.30004,-0.0008206057
20.40004,-0.0008191676
20.50004,-0.0008175526
20.60004,-0.0008159328
20.70004,-0.0008144646
20.80004,-0.0008130605
20.90004,-0.0008116649
21.00004,-0.0008102062
21.10004,-0.0008088934
21.20004,-0.0008073593
21.30005,-0.0008057847
21.40005,-0.0008044832
21.50005,-0.000802918
21.60005,-0.0008013633
21.70005,-0.00080001
21.80005,-0.000798573
21.90005,-0.0007970248
22.00005,-0.0007955208
22.10005,-0.0007940884
22.20005,-0.0007927672
22.30005,-0.0007912773
22.40005,-0.0007899458
22.50005,-0.0007886357
22.60005,-0.0007871968
22.70005,-0.0007859396
22.80005,-0.0007846372
22.90005,-0.0007832914
23.00005,-0.0007818976
23.10005,-0.0007806197
23.20005,-0.0007793314
23.30005,-0.0007778341
23.40005,-0.0007765571
23.50005,-0.0007753103
23.60005,-0.0007739203
23.70005,-0.0007726763
23.80005,-0.0007714012
23.90005,-0.0007700498
24.00006,-0.0007687982
24.10006,-0.0007675071
24.20006,-0.0007661953
24.30006,-0.0007649701
24.40006,-0.0007637204
24.50006,-0.0007623803
24.60006,-0.0007611843
24.70006,-0.0007599431
24.80006,-0.0007586982
24.90006,-0.0007575275
25.00006,-0.0007563899
25.10006,-0.0007552109
25.20006,-0.0007540761
25.30006,-0.0007528848
25.40006,-0.0007516333
25.50006,-0.0007504505
25.60006,-0.000749327
25.70006,-0.0007481206
25.80006,-0.0007470075
25.90006,-0.0007458049
26.00006,-0.0007446673
26.10006,-0.0007435051
26.20006,-0.0007423327
26.30006,-0.0007411772
26.40006,-0.0007400368
26.50006,-0.000738934
26.60007,-0.000737916
26.70007,-0.0007368593
26.80007,-0.0007358273
26.90007,-0.0007347122
27.00007,-0.0007336123
27.10007,-0.0007326291
27.20007,-0.000731418
27.30007,-0.0007303049
27.40007,-0.0007292031
27.50007,-0.0007280353
27.60007,-0.0007269551
27.70007,-0.0007258468
27.80007,-0.0007247326
27.90007,-0.0007237072
28.00007,-0.0007225818
28.10007,-0.0007214517
28.20007,-0.000720445
28.30007,-0.0007193403
28.40007,-0.0007182565
28.50007,-0.0007172168
28.60007,-0.0007161177
28.70007,-0.000715063
28.80007,-0.0007140422
28.90007,-0.0007130496
29.00007,-0.000712057
29.10007,-0.0007110569
29.20008,-0.0007101745
29.30008,-0.0007092779
29.40008,-0.0007082543
29.50008,-0.0007073606
29.60008,-0.0007064263
29.70008,-0.0007053472
29.80008,-0.0007043244
29.90008,-0.0007034872
30.00008,-0.0007024297
30.10008,-0.0007013523
30.20008,-0.0007003899
30.30008,-0.0006994369
30.40008,-0.0006983925
30.50008,-0.0006974771
30.60008,-0.000696558
30.70008,-0.0006955456
30.80008,-0.0006945286
30.90008,-0.0006935699
31.00008,-0.0006926479
31.10008,-0.0006916723
31.20008,-0.0006907079
31.30008,-0.000689738
31.40008,-0.0006888565
31.50008,-0.0006878922
31.60008,-0.0006869523
31.70008,-0.0006860011
31.80009,-0.0006851555
31.90009,-0.0006842863
32.00008,-0.0006833822
32.10008,-0.0006825629
32.20008,-0.0006816966
32.30008,-0.0006807934
32.40008,-0.0006800222
32.50008,-0.0006791463
32.60007,-0.0006782216
32.70007,-0.000677405
32.80007,-0.0006765546
32.90007,-0.0006755574
33.00007,-0.0006746553
33.10007,-0.0006736805
33.20007,-0.000672752
33.30006,-0.0006717933
33.40006,-0.0006709825
33.50006,-0.0006700275
33.60006,-0.0006690914
33.70006,-0.000668291
33.80006,-0.0006674575
33.90005,-0.000666561
34.00005,-0.0006659122
34.10005,-0.0006652237
34.20005,-0.0006644572
34.30005,-0.0006635333
34.40005,-0.0006626763
34.50005,-0.0006617949
34.60004,-0.0006609173
34.70004,-0.000660065
34.80004,-0.0006592777
34.90004,-0.0006583576
35.00004,-0.0006574874
35.10004,-0.0006566079
35.20004,-0.0006557537
35.30003,-0.0006549222
35.40003,-0.0006540953
35.50003,-0.000653276
35.60003,-0.0006525217
35.70003,-0.0006516035
35.80003,-0.0006508115
35.90002,-0.0006499724
36.00002,-0.0006491145
36.10002,-0.0006483262
36.20002,-0.0006475164
36.30002,-0.0006466594
36.40002,-0.0006458259
36.50002,-0.000645066
36.60001,-0.0006443258
36.70001,-0.0006434623
36.80001,-0.0006426335
36.90001,-0.000641882
37.00001,-0.0006410476
37.10001,-0.0006401963
37.2,-0.0006394147
37.3,-0.0006386603
37.4,-0.0006378081
37.5,-0.0006370678
37.6,-0.0006362919
37.7,-0.0006354622
37.8,-0.0006347267
37.89999,-0.000633962
37.99999,-0.0006331927
38.09999,-0.0006324035
38.19999,-0.0006316793
38.29999,-0.0006309081
38.39999,-0.000630115
38.49998,-0.0006293975
38.59998,-0.0006286564
38.69998,-0.0006278747
38.79998,-0.0006271976
38.89998,-0.0006265242
38.99998,-0.000625769
39.09998,-0.0006250721
39.19997,-0.0006243018
39.29997,-0.0006235889
39.39997,-0.0006228684
39.49997,-0.000622117
39.59997,-0.0006214031
39.69997,-0.0006206544
39.79996,-0.0006199434
39.89996,-0.0006192531
39.99996,-0.0006185214
40.09996,-0.0006178133
40.19996,-0.0006170881
40.29996,-0.0006163243
40.39996,-0.0006156341
40.49995,-0.0006149325
40.59995,-0.0006141857
40.69995,-0.0006134672
40.79995,-0.0006127693
40.89995,-0.0006120282
40.99995,-0.0006112795
41.09995,-0.0006105525
41.19994,-0.0006098594
41.29994,-0.0006091474
41.39994,-0.0006084185
41.49994,-0.0006077283
41.59994,-0.0006069852
41.69994,-0.0006063119
41.79993,-0.0006056414
41.89993,-0.0006048927
41.99993,-0.0006042561
42.09993,-0.0006035592
42.19993,-0.0006028746
42.29993,-0.0006022002
42.39993,-0.000601526
42.49992,-0.0006008319
42.59992,-0.0006001426
42.69992,-0.0005994373
42.79992,-0.0005987827
42.89992,-0.0005981225
42.99992,-0.0005974926
43.09991,-0.0005968541
43.19991,-0.000596161
43.29991,-0.0005954885
43.39991,-0.0005948388
43.49991,-0.0005941277
43.59991,-0.0005934516
43.69991,-0.0005927895
43.7999,-0.0005921699
43.8999,-0.000591457
43.9999,-0.000590826
44.0999,-0.0005901809
44.1999,-0.0005895303
44.2999,-0.0005888578
44.39989,-0.0005882165
44.49989,-0.0005875582
44.59989,-0.0005869432
44.69989,-0.0005863095
44.79989,-0.0005857369
44.89989,-0.0005851766
44.99989,-0.000584491
45.09988,-0.0005838516
45.19988,-0.0005832376
45.29988,-0.0005826273
45.39988,-0.0005820228
45.49988,-0.0005813908
45.59988,-0.000580742
45.69987,-0.0005801317
45.79987,-0.0005794725
45.89987,-0.000578834
45.99987,-0.0005781569
46.09987,-0.0005775589
46.19987,-0.0005769647
46.29987,-0.0005763139
46.39986,-0.0005756764
46.49986,-0.000575053
46.59986,-0.0005743938
46.69986,-0.0005737383
46.79986,-0.0005731384
46.89986,-0.0005725131
46.99986,-0.000571869
47.09985,-0.0005712625
47.19985,-0.0005707163
47.29985,-0.0005700675
47.39985,-0.0005693668
47.49985,-0.0005688404
47.59985,-0.0005682621
47.69984,-0.0005675672
47.79984,-0.0005669475
47.89984,-0.0005664136
47.99984,-0.0005657986
48.09984,-0.0005652072
48.19984,-0.0005646205
48.29984,-0.0005639904
48.39983,-0.0005633651
48.49983,-0.0005627719
48.59983,-0.0005621559
48.69983,-0.0005615015
48.79983,-0.0005609647
48.89983,-0.0005603394
48.99982,-0.0005596415
49.09982,-0.0005590708
49.19982,-0.0005584606
49.29982,-0.0005578786
49.39982,-0.0005572675
49.49982,-0.0005567495
49.59982,-0.0005561778
49.69981,-0.0005555148
49.79981,-0.0005549216
49.89981,-0.0005544347
49.99981,-0.0005537501
50.09981,-0.0005531964
50.19981,-0.0005527047
50.2998,-0.0005521029
50.3998,-0.0005514381
50.4998,-0.000550956
50.5998,-0.0005504879
50.6998,-0.0005498814
50.7998,-0.0005492722
50.8998,-0.0005487335
50.99979,-0.0005481157
51.09979,-0.0005475535
51.19979,-0.0005470403
51.29979,-0.0005464205
51.39979,-0.0005458
51.49979,-0.0005452603
51.59978,-0.0005446511
51.69978,-0.0005440474
51.79978,-0.0005434947
51.89978,-0.0005429371
51.99978,-0.0005423664
52.09978,-0.0005418249
52.19978,-0.0005412995
52.29977,-0.0005407626
52.39977,-0.000540224
52.49977,-0.0005396665
52.59977,-0.0005391362
52.69977,-0.0005386682
52.79977,-0.0005380298
52.89977,-0.0005374497
52.99976,-0.0005369062
53.09976,-0.0005363497
53.19976,-0.0005357536
53.29976,-0.0005352253
53.39976,-0.0005346537
53.49976,-0.0005340849
53.59975,-0.0005335226
53.69975,-0.0005329886
53.79975,-0.0005324067
53.89975,-0.0005318388
53.99975,-0.0005313029
54.09975,-0.0005307756
54.19975,-0.0005301926
54.29974,-0.0005296775
54.39974,-0.0005291078
54.49974,-0.0005285625
54.59974,-0.0005280492
54.69974,-0.0005275568
54.79974,-0.0005270172
54.89973,-0.0005264577
54.99973,-0.0005259427
55.09973,-0.0005254181
55.19973,-0.0005248549
55.29973,-0.0005243332
55.39973,-0.0005237616
55.49973,-0.000523223
55.59972,-0.0005226569
55.69972,-0.0005221437
55.79972,-0.0005216804
55.89972,-0.0005211568
55.99972,-0.0005206576
56.09972,-0.0005201651
56.19971,-0.0005196651
56.29971,-0.0005191321
56.39971,-0.0005186141
56.49971,-0.000518147
56.59971,-0.0005176356
56.69971,-0.000517127
56.79971,-0.0005166195
56.8997,-0.0005160592
56.9997,-0.0005155064
57.0997,-0.0005150252
57.1997,-0.0005145251
57.2997,-0.000513961
57.3997,-0.0005134157
57.49969,-0.0005129034
57.59969,-0.0005124345
57.69969,-0.0005118797
57.79969,-0.0005113401
57.89969,-0.0005108147
57.99969,-0.0005103344
58.09969,-0.0005098748
58.19968,-0.0005094529
58.29968,-0.0005089293
58.39968,-0.0005083766
58.49968,-0.0005078708
58.59968,-0.0005073472
58.69968,-0.0005068349
58.79967,-0.0005063348
58.89967,-0.0005058122
58.99967,-0.000505313
59.09967,-0.0005048149
59.19967,-0.0005042856
59.29967,-0.0005038214
59.39967,-0.0005033835
59.49966,-0.0005028542
59.59966,-0.0005023692
59.69966,-0.0005018927
59.79966,-0.0005014397
59.89966,-0.0005009849
59.99966,-0.0005005244
60.09966,-0.0005001288
60.19965,-0.0004996109
60.29965,-0.0004990176
60.39965,-0.0004986155
60.49965,-0.0004981069
60.59965,-0.0004975551
60.69965,-0.0004970409
60.79964,-0.0004965126
60.89964,-0.0004960267
60.99964,-0.000495553
61.09964,-0.0004950783
61.19964,-0.0004945632
61.29964,-0.0004940791
61.39964,-0.0004935942
61.49963,-0.0004930894
61.59963,-0.0004925969
61.69963,-0.0004921646
61.79963,-0.0004916834
61.89963,-0.0004911984
61.99963,-0.0004908236
62.09962,-0.0004903188
62.19962,-0.0004897867
62.29962,-0.0004893781
62.39962,-0.0004889053
62.49962,-0.0004884062
62.59962,-0.000487957
62.69962,-0.000487487
62.79961,-0.0004870265
62.89961,-0.0004865274
62.99961,-0.0004860584
63.09961,-0.0004855678
63.19961,-0.0004850866
63.29961,-0.0004846251
63.3996,-0.0004841448
63.4996,-0.0004836325
63.5996,-0.0004832332
63.6996,-0.0004827539
63.7996,-0.0004822566
63.8996,-0.0004818263
63.9996,-0.000481347
64.09959,-0.0004808535
64.19959,-0.0004803487
64.29959,-0.000479892
64.39959,-0.0004794512
64.49959,-0.00047897
64.59959,-0.0004785171
64.69958,-0.000478033
64.79958,-0.0004776177
64.89958,-0.0004771826
64.99958,-0.0004767635
65.09958,-0.0004762606
65.19958,-0.0004757982
65.29958,-0.0004753396
65.39957,-0.0004748358
65.49957,-0.0004743631
65.59957,-0.0004739581
65.69957,-0.0004734816
65.79957,-0.0004729947
65.89957,-0.0004725615
65.99957,-0.000472085
66.09956,-0.0004716791
66.19956,-0.0004712299
66.29956,-0.0004707845
66.39956,-0.0004703409
66.49956,-0.0004698493
66.59956,-0.000469386
66.69955,-0.0004689199
66.79955,-0.0004684706
66.89955,-0.0004680487
66.99955,-0.0004676109
67.09955,-0.0004671588
67.19955,-0.0004667256
67.29955,-0.000466299
67.39954,-0.0004658423
67.49954,-0.0004654081
67.59954,-0.0004649768
67.69954,-0.0004644815
67.79954,-0.0004640445
67.89954,-0.0004636311
67.99953,-0.0004631894
68.09953,-0.0004627364
68.19953,-0.000462307
68.29953,-0.0004619021
68.39953,-0.0004614567
68.49953,-0.0004610197
68.59953,-0.0004605997
68.69952,-0.0004602013
68.79952,-0.0004597361
68.89952,-0.0004592897
68.99952,-0.0004588838
69.09952,-0.000458477
69.19952,-0.0004580231
69.29951,-0.0004575842
69.39951,-0.0004571689
69.49951,-0.0004567329
69.59951,-0.0004563091
69.69951,-0.0004558543
69.79951,-0.0004554672
69.89951,-0.0004550274
69.9995,-0.0004546027
70.0995,-0.00045421
70.1995,-0.0004537325
70.2995,-0.0004532994
70.3995,-0.0004529283
70.4995,-0.0004525347
70.59949,-0.0004520629
70.69949,-0.000451658
70.79949,-0.000451252
70.89949,-0.0004508235
70.99949,-0.000450412
71.09949,-0.0004499703
71.19949,-0.0004495155
71.29948,-0.0004491096
71.39948,-0.0004487282
71.49948,-0.0004482536
71.59948,-0.0004478646
71.69948,-0.0004474917
71.79948,-0.0004470293
71.89948,-0.0004465999
71.99947,-0.0004462298
72.09947,-0.0004457834
72.19947,-0.0004453577
72.29947,-0.0004449547
72.39947,-0.0004445045
72.49947,-0.0004441118
72.59946,-0.0004437351
72.69946,-0.0004433123
72.79946,-0.0004428932
72.89946,-0.0004425712
72.99946,-0.0004421568
73.09946,-0.0004417933
73.19946,-0.0004414976
73.29945,-0.0004411416
73.39945,-0.0004406792
73.49945,-0.0004402244
73.59945,-0.000439874
73.69945,-0.000439454
73.79945,-0.0004390406
73.89944,-0.0004386507
73.99944,-0.0004382646
74.09944,-0.0004378427
74.19944,-0.0004374443
74.29944,-0.000437014
74.39944,-0.0004365949
74.49944,-0.0004361796
74.59943,-0.0004357973
74.69943,-0.0004354017
74.79943,-0.0004349648
74.89943,-0.0004345834
74.99943,-0.0004342557
75.09943,-0.0004338724
75.19942,-0.0004334401
75.29942,-0.0004330832
75.39942,-0.0004327065
75.49942,-0.0004322752
75.59942,-0.0004318505
75.69942,-0.0004314973
75.79942,-0.0004311574
75.89941,-0.0004307731
75.99941,-0.0004303164
76.09941,-0.0004299133
76.19941,-0.0004295508
76.29941,-0.0004291571
76.39941,-0.0004288144
76.4994,-0.0004285054
76.5994,-0.00042814
76.6994,-0.0004277643
76.7994,-0.000427397
76.8994,-0.0004270006
76.9994,-0.0004266257
77.0994,-0.0004262707
77.19939,-0.0004258592
77.29939,-0.0004254439
77.39939,-0.0004251246
77.49939,-0.0004247329
77.59939,-0.0004242808
77.69939,-0.0004239286
77.79939,-0.0004235595
77.89938,-0.0004231442
77.99938,-0.0004227684
78.09938,-0.0004224021
78.19938,-0.0004220197
78.29938,-0.0004216026
78.39938,-0.0004212447
78.49937,-0.000420868
78.59937,-0.0004204753
78.69937,-0.0004200901
78.79937,-0.0004197389
78.89937,-0.0004193829
78.99937,-0.0004189949
79.09937,-0.0004185928
79.19936,-0.0004182623
79.29936,-0.0004178949
79.39936,-0.0004174825
79.49936,-0.0004170804
79.59936,-0.0004167263
79.69936,-0.0004163298
79.79935,-0.0004159211
79.89935,-0.0004155971
79.99935,-0.0004152449
80.09935,-0.0004148353
80.19935,-0.0004144671
80.29935,-0.0004140998
80.39935,-0.0004137664
80.49934,-0.0004133737
80.59934,-0.0004129961
80.69934,-0.0004126505
80.79934,-0.0004122408
80.89934,-0.0004118745
80.99934,-0.0004115147
81.09933,-0.0004111475
81.19933,-0.0004107773
81.29933,-0.0004104233
81.39933,-0.0004100532
81.49933,-0.0004097113
81.59933,-0.00040941
81.69933,-0.0004090088
81.79932,-0.0004086265
81.89932,-0.000408391
81.99932,-0.0004079983
82.09932,-0.0004075952
82.19932,-0.0004073551
82.29932,-0.0004070236
82.39931,-0.0004066347
82.49931,-0.0004063192
82.59931,-0.000405983
82.69931,-0.0004055687
82.79931,-0.0004052334
82.89931,-0.0004049283
82.99931,-0.0004044725
83.0993,-0.0004041099
83.1993,-0.0004037906
83.2993,-0.0004034723
83.3993,-0.0004030693
83.4993,-0.000402686
83.5993,-0.0004022971
83.6993,-0.0004019335
83.79929,-0.0004015936
83.89929,-0.0004012725
83.99929,-0.0004008694
84.09929,-0.0004004842
84.19929,-0.0004001697
84.29929,-0.0003997789
84.39928,-0.0003994107
84.49928,-0.0003990641
84.59928,-0.0003987025
84.69928,-0.0003983503
84.79928,-0.0003980037
84.89928,-0.0003976223
84.99928,-0.0003972663
85.09927,-0.0003969349
85.19927,-0.0003965977
85.29927,-0.0003962455
85.39927,-0.0003959762
85.49927,-0.0003956183
85.59927,-0.0003952859
85.69926,-0.0003950834
85.79926,-0.000394718
85.89926,-0.0003943055
85.99926,-0.0003939364
86.09926,-0.0003936492
86.19926,-0.0003932913
86.29926,-0.0003928863
86.39925,-0.000392568
86.49925,-0.0003922074
86.59925,-0.0003918146
86.69925,-0.0003915029
86.79925,-0.0003911658
86.89925,-0.0003907825
86.99924,-0.0003904332
87.09924,-0.0003901431
87.19924,-0.0003898088
87.29924,-0.0003894236
87.39924,-0.0003890827
87.49924,-0.0003887474
87.59924,-0.0003883745
87.69923,-0.0003880553
87.79923,-0.0003877407
87.89923,-0.0003874177
87.99923,-0.000387089
88.09923,-0.0003867566
88.19923,-0.0003863922
88.29922,-0.0003860325
88.39922,-0.0003857348
88.49922,-0.0003854175
88.59922,-0.0003850832
88.69922,-0.0003847441
88.79922,-0.0003844466
88.89922,-0.0003841122
88.99921,-0.0003837497
89.09921,-0.0003833994
89.19921,-0.0003831149
89.29921,-0.0003827467
89.39921,-0.0003824718
89.49921,-0.0003821318
89.59921,-0.0003817815
89.6992,-0.0003814443
89.7992,-0.00038111
89.8992,-0.0003807512
89.9992,-0.0003804159
90.0992,-0.0003800713
90.1992,-0.0003797624
90.29919,-0.0003794422
90.39919,-0.0003791305
90.49919,-0.0003787981
90.59919,-0.0003784666
90.69919,-0.0003781341
90.79919,-0.0003778224
90.89919,-0.0003775107
90.99918,-0.0003771397
91.09918,-0.0003768251
91.19918,-0.0003764974
91.29918,-0.0003761659
91.39918,-0.0003758213
91.49918,-0.0003754945
91.59917,-0.0003751837
91.69917,-0.0003748719
91.79917,-0.000374516
91.89917,-0.0003742014
91.99917,-0.0003738831
92.09917,-0.0003735338
92.19917,-0.0003732334
92.29916,-0.0003729235
92.39916,-0.0003725591
92.49916,-0.0003722332
92.59916,-0.0003719733
92.69916,-0.0003716475
92.79916,-0.0003713038
92.89915,-0.0003709939
92.99915,-0.0003707029
93.09915,-0.0003703818
93.19915,-0.0003700842
93.29915,-0.0003697593
93.39915,-0.0003694043
93.49915,-0.0003691218
93.59914,-0.0003688176
93.69914,-0.000368471
93.79914,-0.0003681461
93.89914,-0.0003678419
93.99914,-0.0003675557
94.09914,-0.0003672044
94.19913,-0.0003668917
94.29913,-0.0003665791
94.39913,-0.0003662759
94.49913,-0.0003659444
94.59913,-0.0003656731
94.69913,-0.0003653303
94.79913,-0.0003650215
94.89912,-0.000364739
94.99912,-0.0003644705
95.09912,-0.0003641419
95.19912,-0.0003638405
95.29912,-0.0003635354
95.39912,-0.0003632557
95.49911,-0.0003629271
95.59911,-0.0003625861
95.69911,-0.0003622904
95.79911,-0.0003619976
95.89911,-0.0003617207
95.99911,-0.0003614344
96.09911,-0.0003610671
96.1991,-0.0003607987
96.2991,-0.0003605284
96.3991,-0.000360197
96.4991,-0.0003598692
96.5991,-0.0003595679
96.6991,-0.0003592354
96.7991,-0.0003589464
96.89909,-0.000358613
96.99909,-0.0003583088
97.09909,-0.0003580272
97.19909,-0.0003577372
97.29909,-0.0003574038
97.39909,-0.0003571071
97.49908,-0.000356818
97.59908,-0.000356528
97.69908,-0.0003562003
97.79908,-0.0003558838
97.89908,-0.0003555891
97.99908,-0.0003553122
98.09908,-0.0003549807
98.19907,-0.0003546765
98.29907,-0.0003543997
98.39907,-0.0003541153
98.49907,-0.0003537753
98.59907,-0.0003534673
98.69907,-0.0003531895
98.79906,-0.000352892
98.89906,-0.0003525981
98.99906,-0.0003523326
99.09906,-0.0003520661
99.19906,-0.0003517779
99.29906,-0.0003514728
99.39906,-0.000351194
99.49905,-0.000350903
99.59905,-0.0003506101
99.69905,-0.0003503389
99.79905,-0.000350096
99.89905,-0.0003497419
99.99905,-0.0003494264
100.099,-0.0003491382
100.199,-0.000348835
100.299,-0.0003485355
100.399,-0.0003482445
100.499,-0.0003479234
100.599,-0.000347623
100.699,-0.0003473612
100.799,-0.0003470504
100.899,-0.0003467707
100.999,-0.0003464439
101.099,-0.0003461727
101.199,-0.0003459109
101.299,-0.0003455747
101.399,-0.0003453355
101.499,-0.000345102
101.599,-0.0003447997
101.699,-0.0003444992
101.799,-0.0003442487
101.899,-0.0003439625
101.999,-0.0003436799
102.099,-0.0003433833
102.199,-0.0003430838
102.299,-0.0003428362
102.399,-0.0003425169
102.499,-0.0003422023
102.599,-0.000341949
102.699,-0.0003416703
102.799,-0.0003413869
102.899,-0.0003411043
102.999,-0.0003408623
103.099,-0.0003405261
103.199,-0.0003402266
103.299,-0.0003399601
103.399,-0.0003396531
103.499,-0.0003393809
103.599,-0.0003391191
103.699,-0.0003388422
103.799,-0.0003385494
103.899,-0.0003382753
103.999,-0.0003379806
104.099,-0.0003376848
104.199,-0.0003373958
104.299,-0.0003371359
104.399,-0.0003368552
104.499,-0.0003365765
104.599,-0.0003363062
104.699,-0.000336018
104.799,-0.0003357553
104.899,-0.0003354784
104.999,-0.0003351526
105.099,-0.0003349049
105.199,-0.0003346723
105.299,-0.0003343879
105.399,-0.0003340903
105.499,-0.0003338539
105.599,-0.0003335808
105.699,-0.0003332983
105.799,-0.00033298
105.899,-0.0003327634
105.999,-0.0003324328
106.099,-0.0003321183
106.199,-0.0003318829
106.299,-0.0003316276
106.3989,-0.0003312943
106.4989,-0.0003310881
106.5989,-0.0003308517
106.6989,-0.0003305691
106.7989,-0.0003302773
106.8989,-0.00033007
106.9989,-0.0003298516
107.0989,-0.0003295351
107.1989,-0.0003293044
107.2989,-0.0003290492
107.3989,-0.0003287497
107.4989,-0.000328536
107.5989,-0.000328309
107.6989,-0.0003279606
107.7989,-0.0003276931
107.8989,-0.0003274756
107.9989,-0.0003271733
108.0989,-0.0003269585
108.1989,-0.0003267024
108.2989,-0.0003264067
108.3989,-0.0003262372
108.4989,-0.0003259942
108.5989,-0.0003256618
108.6989,-0.0003254678
108.7989,-0.0003252258
108.8989,-0.0003248858
108.9989,-0.0003246918
109.0989,-0.0003244658
109.1989,-0.0003241937
109.2989,-0.0003239572
109.3989,-0.0003236766
109.4989,-0.0003233781
109.5989,-0.0003230683
109.6989,-0.0003227905
109.7989,-0.0003225465
109.8989,-0.0003222358
109.9989,-0.0003219589
110.0989,-0.0003216754
110.1989,-0.0003213901
110.2989,-0.0003211292
110.3989,-0.0003208712
110.4989,-0.0003205868
110.5989,-0.0003203043
110.6989,-0.0003200868
110.7989,-0.0003198334
110.8989,-0.0003195113
110.9989,-0.0003192354
111.0989,-0.0003190056
111.1989,-0.0003187363
111.2989,-0.0003184698
111.3989,-0.0003181835
111.4989,-0.0003179358
111.5989,-0.000317674
111.6989,-0.0003174254
111.7989,-0.0003171476
111.8989,-0.0003169027
111.9989,-0.0003166372
112.0989,-0.0003163848
112.1989,-0.0003160966
112.2989,-0.0003158367
112.3989,-0.0003155806
112.4989,-0.0003153282
112.5989,-0.0003150683
112.6989,-0.000314798
112.7989,-0.0003145456
112.8988,-0.0003142942
112.9988,-0.0003140474
113.0988,-0.0003137404
113.1988,-0.0003135144
113.2988,-0.0003132733
113.3988,-0.0003129974
113.4988,-0.0003127393
113.5988,-0.0003125397
113.6988,-0.000312276
113.7988,-0.0003120114
113.8988,-0.0003118089
113.9988,-0.0003115273
114.0988,-0.000311258
114.1988,-0.0003110075
114.2988,-0.0003107325
114.3988,-0.0003105027
114.4988,-0.0003102541
114.5988,-0.0003099905
114.6988,-0.0003097183
114.7988,-0.0003094989
114.8988,-0.0003092889
114.9988,-0.00030898
115.0988,-0.0003087652
115.1988,-0.0003085816
115.2988,-0.0003083104
115.3988,-0.0003080477
115.4988,-0.0003078273
115.5988,-0.0003075589
115.6988,-0.0003072971
115.7988,-0.0003070701
115.8988,-0.0003068375
115.9988,-0.0003066115
116.0988,-0.0003063554
116.1988,-0.0003061303
116.2988,-0.0003058892
116.3988,-0.0003055737
116.4988,-0.0003053119
116.5988,-0.0003050727
116.6988,-0.0003048232
116.7988,-0.0003045802
116.8988,-0.0003043532
116.9988,-0.0003041451
117.0988,-0.000303889
117.1988,-0.0003036564
117.2988,-0.0003034181
117.3988,-0.0003031713
117.4988,-0.0003029152
117.5988,-0.0003026252
117.6988,-0.0003024246
117.7988,-0.0003022164
117.8988,-0.0003019848
117.9988,-0.0003016862
118.0988,-0.0003014405
118.1988,-0.0003012239
118.2988,-0.0003009574
118.3988,-0.0003006673
118.4988,-0.000300462
118.5988,-0.0003002379
118.6988,-0.0002999375
118.7988,-0.000299719
118.8988,-0.0002994967
118.9988,-0.0002992858
119.0988,-0.000299055
119.1988,-0.0002987782
119.2988,-0.0002985456
119.3988,-0.0002983365
119.4987,-0.0002980521
119.5987,-0.000297796
119.6987,-0.0002975652
119.7987,-0.0002973204
119.8987,-0.0002971019
119.9987,-0.0002968655
120.0987,-0.0002966179
120.1987,-0.0002963693
120.2987,-0.0002961319
120.3987,-0.0002959134
120.4987,-0.000295711
120.5987,-0.0002954435
120.6987,-0.0002952062
120.7987,-0.0002949604
120.8987,-0.0002947194
120.9987,-0.0002945008
121.0987,-0.0002942372
121.1987,-0.0002939725
121.2987,-0.0002937559
121.3987,-0.0002935516
121.4987,-0.0002933199
121.5987,-0.0002930873
121.6987,-0.0002928933
121.7987,-0.0002926927
121.8987,-0.0002924271
121.9987,-0.000292187
122.0987,-0.0002919949
122.1987,-0.0002917321
122.2987,-0.0002914882
122.3987,-0.0002912651
122.4987,-0.0002909967
122.5987,-0.0002907772
122.6987,-0.0002905852
122.7987,-0.0002903337
122.8987,-0.0002900766
122.9987,-0.000289844
123.0987,-0.000289618
123.1987,-0.000289392
123.2987,-0.0002891951
123.3987,-0.0002889606
123.4987,-0.0002887271
123.5987,-0.0002885821
123.6987,-0.0002882995
123.7987,-0.0002880406
123.8987,-0.0002878588
123.9987,-0.0002876206
124.0987,-0.000287339
124.1987,-0.0002871073
124.2987,-0.000286902
124.3987,-0.0002866647
124.4987,-0.0002864001
124.5987,-0.0002862014
124.6987,-0.0002859565
124.7987,-0.0002857051
124.8987,-0.0002854988
124.9987,-0.000285254
125.0987,-0.000285059
125.1987,-0.0002848472
125.2987,-0.0002846522
125.3987,-0.0002844488
125.4987,-0.0002842294
125.5987,-0.0002840429
125.6987,-0.0002838385
125.7987,-0.0002835814
125.8987,-0.0002833602
125.9986,-0.0002831407
126.0986,-0.0002829034
126.1986,-0.0002826727
126.2986,-0.0002824627
126.3986,-0.0002822433
126.4986,-0.0002820126
126.5986,-0.0002817781
126.6986,-0.0002815775
126.7986,-0.0002813759
126.8986,-0.0002811396
126.9986,-0.000280906
127.0986,-0.0002806715
127.1986,-0.0002804445
127.2986,-0.0002802252
127.3986,-0.000279985
127.4986,-0.0002797891
127.5986,-0.0002795885
127.6986,-0.0002793249
127.7986,-0.0002791534
127.8986,-0.000278935
127.9986,-0.0002786722
128.0986,-0.0002785197
128.1986,-0.0002783464
128.2986,-0.0002781317
128.3986,-0.000277819
128.4986,-0.0002776316
128.5986,-0.0002774188
128.6987,-0.0002771617
128.7987,-0.0002769875
128.8987,-0.0002767718
128.9987,-0.0002765251
129.0987,-0.0002762765
129.1987,-0.0002760787
129.2987,-0.0002758687
129.3987,-0.0002756398
129.4987,-0.0002754157
129.5987,-0.0002751973
129.6987,-0.0002749778
129.7987,-0.0002747772
129.8987,-0.000274539
129.9987,-0.0002743356
130.0987,-0.0002741567
130.1987,-0.0002739758
130.2988,-0.0002737263
130.3988,-0.0002735313
130.4988,-0.0002733533
130.5988,-0.0002731038
130.6988,-0.0002728646
130.7988,-0.0002726508
130.8988,-0.0002724653
130.9988,-0.0002722289
131.0988,-0.0002720179
131.1988,-0.0002718145
131.2988,-0.0002716074
131.3988,-0.0002713662
131.4988,-0.0002711374
131.5988,-0.0002709293
131.6988,-0.0002707136
131.7988,-0.0002704716
131.8988,-0.0002702899
131.9989,-0.0002700639
132.0989,-0.0002698529
132.1989,-0.000269642
132.2989,-0.0002694159
132.3989,-0.0002692266
132.4989,-0.0002690232
132.5989,-0.0002688396
132.6989,-0.000268608
132.7989,-0.0002683998
132.8989,-0.0002682303
132.9989,-0.0002680015
133.0989,-0.0002677755
133.1989,-0.0002675993
133.2989,-0.0002674355
133.3989,-0.0002672754
133.4989,-0.0002670023
133.599,-0.0002667961
133.699,-0.0002665785
133.799,-0.0002663487
133.899,-0.0002661283
133.999,-0.0002659325
134.099,-0.0002657328
134.199,-0.000265488
134.299,-0.0002653147
134.399,-0.0002651179
134.499,-0.0002648872
134.599,-0.0002646781
134.699,-0.0002645048
134.799,-0.0002642609
134.899,-0.0002640556
134.999,-0.0002638588
135.099,-0.0002636657
135.1991,-0.0002634661
135.2991,-0.0002632608
135.3991,-0.0002630536
135.4991,-0.0002628794
135.5991,-0.0002626449
135.6991,-0.0002624452
135.7991,-0.0002622757
135.8991,-0.0002620629
135.9991,-0.0002618915
136.0991,-0.0002616476
136.1991,-0.000261431
136.2991,-0.000261236
136.3991,-0.0002610279
136.4991,-0.000260834
136.5991,-0.0002606108
136.6991,-0.0002604026
136.7991,-0.0002602077
136.8992,-0.0002600627
136.9992,-0.0002598235
137.0992,-0.0002596116
137.1992,-0.0002594317
137.2992,-0.0002592462
137.3992,-0.0002590183
137.4992,-0.0002587857
137.5992,-0.0002586067
137.6992,-0.0002584128
137.7992,-0.000258182
137.8992,-0.0002579937
137.9992,-0.0002577808
138.0992,-0.0002575897
138.1992,-0.0002573947
138.2992,-0.0002571744
138.3992,-0.0002569729
138.4993,-0.0002567902
138.5993,-0.0002565783
138.6993,-0.0002564003
138.7993,-0.0002561884
138.8993,-0.0002560358
138.9993,-0.00025584
139.0993,-0.0002556149
139.1993,-0.0002554473
139.2993,-0.0002552354
139.3993,-0.0002550282
139.4993,-0.0002548455
139.5993,-0.000254643
139.6993,-0.0002544396
139.7993,-0.0002542268
139.8993,-0.0002540281
139.9993,-0.000253866
140.0993,-0.0002536354
140.1994,-0.0002534197
140.2994,-0.0002532408
140.3994,-0.0002530402
140.4994,-0.0002528801
140.5994,-0.0002526701
140.6994,-0.0002524799
140.7994,-0.0002523367
140.8994,-0.0002521201
140.9994,-0.000251912
141.0994,-0.000251767
141.1994,-0.0002515664
141.2994,-0.0002513507
141.3994,-0.0002511322
141.4994,-0.0002509411
141.5994,-0.0002507555
141.6994,-0.0002505352
141.7995,-0.0002503694
141.8995,-0.0002501754
141.9995,-0.0002499626
142.0995,-0.0002497733
142.1995,-0.0002496
142.2995,-0.0002493816
142.3995,-0.0002491894
142.4995,-0.0002489672
142.5995,-0.0002487779
142.6995,-0.0002485735
142.7995,-0.0002483438
142.8995,-0.000248179
142.9995,-0.000247968
143.0995,-0.0002477863
143.1995,-0.0002476252
143.2995,-0.0002474981
143.3996,-0.0002472617
143.4996,-0.0002470856
143.5996,-0.0002469321
143.6996,-0.000246788
143.7996,-0.0002465686
143.8996,-0.0002463369
143.9996,-0.0002461646
144.0996,-0.0002459574
144.1996,-0.0002457521
144.2996,-0.0002455487
144.3996,-0.0002453566
144.4996,-0.0002451692
144.5996,-0.0002449874
144.6996,-0.0002447765
144.7996,-0.0002446098
144.8996,-0.0002444488
144.9996,-0.0002442934
145.0997,-0.0002440881
145.1997,-0.0002438818
145.2997,-0.0002436888
145.3997,-0.0002435221
145.4997,-0.0002433046
145.5997,-0.0002430946
145.6997,-0.0002428987
145.7997,-0.0002427339
145.8997,-0.0002425314
145.9997,-0.0002423694
146.0997,-0.0002421914
146.1997,-0.0002420304
146.2997,-0.0002418694
146.3997,-0.0002416678
146.4997,-0.0002415096
146.5997,-0.0002413326
146.6998,-0.000241148
146.7998,-0.000240921
146.8998,-0.0002407497
146.9998,-0.0002405801
147.0998,-0.000240323
147.1998,-0.0002401714
147.2998,-0.0002399671
147.3998,-0.0002397674
147.4998,-0.0002396101
147.5998,-0.0002394312
147.6998,-0.0002392231
147.7998,-0.0002390621
147.8998,-0.0002389444
147.9998,-0.0002387023
148.0998,-0.0002384716
148.1998,-0.0002383134
148.2999,-0.0002381429
148.3999,-0.0002379141
148.4999,-0.0002377747
148.5999,-0.0002375826
148.6999,-0.0002373368
148.7999,-0.0002372379
148.8999,-0.0002370759
148.9999,-0.0002369036
149.0999,-0.0002367313
149.1999,-0.000236574
149.2999,-0.0002363715
149.3999,-0.0002361502
149.4999,-0.000235976
149.5999,-0.0002358122
149.6999,-0.0002355918
149.7999,-0.0002354298
149.8999,-0.0002352735
150,-0.0002350767
150.1,-0.0002348921
150.2,-0.000234731
150.3,-0.0002345276
150.4,-0.0002343233
150.5,-0.0002341943
150.6,-0.0002339927
150.7,-0.0002337827
150.8,-0.0002336396
150.9,-0.0002334597
151,-0.0002333043
151.1,-0.0002331009
151.2,-0.0002329229
151.3,-0.0002327364
151.4,-0.0002325726
151.5,-0.0002323824
151.6001,-0.0002321752
151.7001,-0.0002319915
151.8001,-0.0002318588
151.9001,-0.0002316327
152.0001,-0.0002314595
152.1001,-0.0002313342
152.2001,-0.00023116
152.3001,-0.0002309933
152.4001,-0.0002308709
152.5001,-0.0002306882
152.6001,-0.0002305168
152.7001,-0.0002304245
152.8001,-0.0002302201
152.9001,-0.0002300667
153.0001,-0.0002299574
153.1001,-0.0002297625
153.2001,-0.000229674
153.3002,-0.000229511
153.4002,-0.0002292643
153.5002,-0.0002290694
153.6002,-0.000228848
153.7002,-0.0002286964
153.8002,-0.000228526
153.9002,-0.0002283452
154.0002,-0.0002281756
154.1002,-0.0002279911
154.2002,-0.0002278084
154.3002,-0.000227637
154.4002,-0.0002274326
154.5002,-0.0002272537
154.6002,-0.0002270964
154.7002,-0.000226925
154.8002,-0.0002267301
154.9003,-0.0002265257
155.0003,-0.0002263948
155.1003,-0.00022623
155.2003,-0.0002260502
155.3003,-0.0002258675
155.4003,-0.0002256735
155.5003,-0.000225536
155.6003,-0.0002253994
155.7003,-0.000225213
155.8003,-0.0002250114
155.9003,-0.0002248466
156.0003,-0.0002246658
156.1003,-0.0002244935
156.2003,-0.0002243202
156.3003,-0.0002241319
156.4003,-0.0002239247
156.5004,-0.0002238051
156.6004,-0.000223628
156.7004,-0.0002233964
156.8004,-0.0002233163
156.9004,-0.0002231675
157.0004,-0.0002229735
157.1004,-0.0002228247
157.2004,-0.0002226618
157.3004,-0.0002225064
157.4004,-0.0002223313
157.5004,-0.0002221476
157.6004,-0.0002219762
157.7004,-0.0002217822
157.8004,-0.0002216033
157.9004,-0.0002214536
158.0004,-0.0002212652
158.1004,-0.0002211108
158.2005,-0.0002209224
158.3005,-0.0002207407
158.4005,-0.0002205599
158.5005,-0.0002204309
158.6005,-0.0002202764
158.7005,-0.000220089
158.8005,-0.0002199628
158.9005,-0.0002197622
159.0005,-0.0002195522
159.1005,-0.0002194289
159.2005,-0.0002192876
159.3005,-0.0002190823
159.4005,-0.000218926
159.5005,-0.0002187828
159.6005,-0.0002185879
159.7005,-0.0002184193
159.8006,-0.0002182677
159.9006,-0.0002181387
160.0006,-0.0002179494
160.1006,-0.0002177686
160.2006,-0.0002176066
160.3006,-0.0002174267
160.4006,-0.0002172704
160.5006,-0.0002170849
160.6006,-0.0002169069
160.7006,-0.0002167911
160.8006,-0.0002165905
160.9006,-0.0002164247
161.0006,-0.0002162882
161.1006,-0.0002161347
161.2006,-0.0002159218
161.3006,-0.0002157665
161.4007,-0.000215645
161.5007,-0.0002154284
161.6007,-0.0002152655
161.7007,-0.0002151496
161.8007,-0.0002150319
161.9007,-0.0002148313
162.0007,-0.0002146628
162.1007,-0.0002145092
162.2007,-0.0002143388
162.3007,-0.0002141608
162.4007,-0.0002140243
162.5007,-0.0002138773
162.6007,-0.0002136673
162.7007,-0.0002134997
162.8007,-0.0002133641
162.9007,-0.000213171
163.0007,-0.0002130156
163.1008,-0.0002128367
163.2008,-0.0002126606
163.3008,-0.0002124986
163.4008,-0.0002123565
163.5008,-0.0002121935
163.6008,-0.0002120042
163.7008,-0.0002118564
163.8008,-0.0002117066
163.9008,-0.0002115371
164.0008,-0.0002113752
164.1008,-0.0002112396
164.2008,-0.0002110851
164.3008,-0.0002109476
164.4008,-0.0002107819
164.5008,-0.0002106105
164.6008,-0.0002104711
164.7009,-0.0002102809
164.8009,-0.0002101189
164.9009,-0.0002099117
165.0009,-0.0002097733
165.1009,-0.0002096301
165.2009,-0.0002094757
165.3009,-0.0002093071
165.4009,-0.0002091338
165.5009,-0.0002089681
165.6009,-0.0002088363
165.7009,-0.0002086479
165.8009,-0.0002084774
165.9009,-0.0002083616
166.0009,-0.0002081761
166.1009,-0.0002080132
166.2009,-0.0002078098
166.3009,-0.0002076817
166.401,-0.0002075508
166.501,-0.0002073662
166.601,-0.0002072353
166.701,-0.0002070686
166.801,-0.0002068944
166.901,-0.0002067531
167.001,-0.000206578
167.101,-0.0002064056
167.201,-0.00020627
167.301,-0.0002060996
167.401,-0.0002059536
167.501,-0.0002057803
167.601,-0.0002056221
167.701,-0.0002054715
167.801,-0.0002053217
167.901,-0.0002051428
168.0011,-0.0002049723
168.1011,-0.0002048527
168.2011,-0.0002046936
168.3011,-0.0002045222
168.4011,-0.0002044252
168.5011,-0.000204282
168.6011,-0.0002041521
168.7011,-0.0002039731
168.8011,-0.0002038083
168.9011,-0.0002036831
169.0011,-0.0002035023
169.1011,-0.0002033271
169.2011,-0.0002031972
169.3011,-0.0002030126
169.4011,-0.0002028591
169.5011,-0.0002027414
169.6012,-0.0002025973
169.7012,-0.0002024381
169.8012,-0.000202311
169.9012,-0.000202166
170.0012,-0.0002019861
170.1012,-0.0002018599
170.2012,-0.0002016876
170.3012,-0.0002015247
170.4012,-0.0002013749
170.5012,-0.0002012139
170.6012,-0.0002010689
170.7012,-0.0002009276
170.8012,-0.0002007581
170.9012,-0.0002006017
171.0012,-0.0002004718
171.1012,-0.0002003183
171.2012,-0.000200146
171.3013,-0.0002000989
171.4013,-0.0001999209
171.5013,-0.000199758
171.6013,-0.0001996346
171.7013,-0.0001995075
171.8013,-0.0001993351
171.9013,-0.0001991411
172.0013,-0.0001990215
172.1013,-0.0001989151
172.2013,-0.0001987579
172.3013,-0.0001986241
172.4013,-0.0001984734
172.5013,-0.0001982776
172.6013,-0.0001981184
172.7013,-0.0001979847
172.8013,-0.0001978246
172.9014,-0.0001976654
173.0014,-0.0001975355
173.1014,-0.0001973744
173.2014,-0.0001972134
173.3014,-0.0001970543
173.4014,-0.0001969318
173.5014,-0.000196751
173.6014,-0.0001966041
173.7014,-0.0001964826
173.8014,-0.0001963508
173.9014,-0.0001961662
174.0014,-0.0001960372
174.1014,-0.0001958997
174.2014,-0.0001957339
174.3014,-0.000195587
174.4014,-0.0001954354
174.5014,-0.0001952876
174.6015,-0.0001951501
174.7015,-0.0001949947
174.8015,-0.0001948478
174.9015,-0.0001946698
175.0015,-0.0001945426
175.1015,-0.0001943703
175.2015,-0.0001942187
175.3015,-0.0001940709
175.4015,-0.0001939268
175.5015,-0.0001937817
175.6015,-0.0001936169
175.7015,-0.0001935407
175.8015,-0.0001934163
175.9015,-0.0001932497
176.0015,-0.0001930896
176.1015,-0.0001929747
176.2016,-0.0001928231
176.3016,-0.0001926771
176.4016,-0.0001925245
176.5016,-0.0001923917
176.6016,-0.0001923625
176.7016,-0.0001922816
176.8016,-0.0001920876
176.9016,-0.0001919359
177.0016,-0.0001918465
177.1016,-0.0001916572
177.2016,-0.0001914914
177.3016,-0.0001914114
177.4016,-0.0001912438
177.5016,-0.0001910714
177.6016,-0.0001909396
177.7016,-0.0001907974
177.8017,-0.0001906382
177.9017,-0.0001905271
178.0017,-0.0001903237
178.1017,-0.000190141
178.2017,-0.0001900271
178.3017,-0.0001898783
178.4017,-0.0001896927
178.5017,-0.0001895637
178.6017,-0.0001894027
178.7017,-0.0001892633
178.8017,-0.0001891079
178.9017,-0.0001889921
179.0017,-0.0001888198
179.1017,-0.000188686
179.2017,-0.0001885777
179.3017,-0.0001884148
179.4017,-0.0001882557
179.5018,-0.0001881445
179.6018,-0.0001880362
179.7018,-0.0001878799
179.8018,-0.0001877518
179.9018,-0.0001876219
180.0018,-0.0001874467
180.1018,-0.0001873346
180.2018,-0.0001871868
180.3018,-0.0001870276
180.4018,-0.000186909
180.5018,-0.0001867894
180.6018,-0.0001866349
180.7018,-0.0001865229
180.8018,-0.0001863552
180.9018,-0.00018623
181.0018,-0.0001860916
181.1019,-0.0001859258
181.2019,-0.0001857883
181.3019,-0.0001856584
181.4019,-0.0001855162
181.5019,-0.0001853758
181.6019,-0.0001852308
181.7019,-0.000185115
181.8019,-0.0001849473
181.9019,-0.0001847844
182.0019,-0.0001846865
182.1019,-0.0001845368
182.2019,-0.0001843842
182.3019,-0.0001842345
182.4019,-0.0001841243
182.5019,-0.0001839614
182.6019,-0.0001838314
182.702,-0.0001837052
182.802,-0.0001835592
182.902,-0.0001834095
183.002,-0.000183289
183.102,-0.0001831251
183.202,-0.0001829754
183.302,-0.0001828812
183.402,-0.0001827286
183.502,-0.0001825648
183.602,-0.0001824772
183.702,-0.000182367
183.802,-0.0001821928
183.902,-0.0001820299
184.002,-0.0001819724
184.102,-0.000181801
184.202,-0.0001816475
184.302,-0.0001815053
184.4021,-0.0001813801
184.5021,-0.0001812247
184.6021,-0.0001811136
184.7021,-0.0001809365
184.8021,-0.0001807802
184.9021,-0.0001806474
185.0021,-0.0001805193
185.1021,-0.0001803687
185.2021,-0.0001802443
185.3021,-0.0001800993
185.4021,-0.0001799496
185.5021,-0.0001798177
185.6021,-0.0001796906
185.7021,-0.0001795757
185.8021,-0.0001794448
185.9021,-0.0001793167
186.0022,-0.0001791915
186.1022,-0.0001790417
186.2022,-0.0001789099
186.3022,-0.000178796
186.4022,-0.0001786406
186.5022,-0.0001785021
186.6022,-0.0001783769
186.7022,-0.000178213
186.8022,-0.0001780925
186.9022,-0.0001779748
187.0022,-0.0001777987
187.1022,-0.0001776471
187.2022,-0.0001775472
187.3022,-0.0001774286
187.4022,-0.0001772666
187.5022,-0.0001771291
187.6022,-0.0001770142
187.7023,-0.0001768805
187.8023,-0.0001767816
187.9023,-0.0001766526
188.0023,-0.0001764925
188.1023,-0.0001763974
188.2023,-0.0001762806
188.3023,-0.000176097
188.4023,-0.0001759915
188.5023,-0.0001758823
188.6023,-0.0001757476
188.7023,-0.0001755894
188.8023,-0.0001754952
188.9023,-0.0001753426
189.0023,-0.0001751891
189.1023,-0.0001750714
189.2023,-0.0001749358
189.3024,-0.0001747757
189.4024,-0.0001746439
189.5024,-0.0001745101
189.6024,-0.0001743548
189.7024,-0.0001742201
189.8024,-0.0001741118
189.9024,-0.0001739856
190.0024,-0.0001738293
190.1024,-0.0001736937
190.2024,-0.0001735599
190.3024,-0.0001734394
190.4024,-0.0001733217
190.5024,-0.0001731399
190.6024,-0.0001730505
190.7024,-0.0001729751
190.8024,-0.0001728753
190.9025,-0.0001727133
191.0025,-0.0001725956
191.1025,-0.000172493
191.2025,-0.000172331
191.3025,-0.0001722029
191.4025,-0.0001721012
191.5025,-0.0001719533
191.6025,-0.0001718262
191.7025,-0.0001717179
191.8025,-0.0001715654
191.9025,-0.0001714326
192.0025,-0.0001713054
192.1025,-0.0001711774
192.2025,-0.0001709918
192.3025,-0.0001708845
192.4025,-0.0001707668
192.5025,-0.0001706161
192.6026,-0.0001704833
192.7026,-0.0001703929
192.8026,-0.0001702563
192.9026,-0.0001700972
193.0026,-0.0001699964
193.1026,-0.000169858
193.2026,-0.0001697083
193.3026,-0.0001695877
193.4026,-0.0001694728
193.5026,-0.0001693664
193.6026,-0.000169228
193.7026,-0.0001690942
193.8026,-0.0001689944
193.9026,-0.0001688805
194.0026,-0.0001687675
194.1026,-0.0001686328
194.2027,-0.0001684981
194.3027,-0.0001683823
194.4027,-0.0001682721
194.5027,-0.0001680979
194.6027,-0.0001679886
194.7027,-0.0001678531
194.8027,-0.0001677014
194.9027,-0.0001675705
195.0027,-0.0001674519
195.1027,-0.0001673389
195.2027,-0.0001671976
195.3027,-0.0001670601
195.4027,-0.0001669386
195.5027,-0.0001668096
195.6027,-0.0001667032
195.7027,-0.0001665704
195.8027,-0.0001664273
195.9028,-0.000166318
196.0028,-0.000166189
196.1028,-0.0001660619
196.2028,-0.0001659385
196.3028,-0.000165802
196.4028,-0.0001656758
196.5028,-0.000165542
196.6028,-0.0001654479
196.7028,-0.0001653066
196.8028,-0.0001651757
196.9028,-0.0001650457
197.0028,-0.0001649299
197.1028,-0.0001648405
197.2028,-0.0001646935
197.3028,-0.0001645589
197.4028,-0.0001644355
197.5029,-0.0001643451
197.6029,-0.0001642217
197.7029,-0.000164056
197.8029,-0.0001639486
197.9029,-0.0001638554
198.0029,-0.0001636953
198.1029,-0.0001635588
198.2029,-0.0001635126
198.3029,-0.0001633892
198.4029,-0.0001632282
198.5029,-0.0001631585
198.6029,-0.0001630851
198.7029,-0.0001629118
198.8029,-0.0001628525
198.9029,-0.000162747
199.0029,-0.0001625822
199.103,-0.0001624682
199.203,-0.0001624136
199.303,-0.0001623128
199.403,-0.0001621622
199.503,-0.0001620087
199.603,-0.000161874
199.703,-0.0001617233
199.803,-0.0001616461
199.903,-0.0001615039
200.003,-0.0001613523
200.103,-0.0001612647
200.203,-0.0001611451
200.303,-0.0001609624
200.403,-0.0001609228
200.503,-0.0001608145
200.603,-0.000160662
200.703,-0.0001605772
200.8031,-0.0001604793
200.9031,-0.0001603795
201.0031,-0.0001602203
201.1031,-0.0001600998
201.2031,-0.0001599783
201.3031,-0.0001598625
201.4031,-0.0001597664
201.5031,-0.0001596364
201.6031,-0.0001594782
201.7031,-0.0001593822
201.8031,-0.0001592767
201.9031,-0.000159159
202.0031,-0.0001590055
202.1031,-0.0001589
202.2031,-0.0001587936
202.3031,-0.0001586721
202.4032,-0.0001585403
202.5032,-0.0001584348
202.6032,-0.0001583698
202.7032,-0.000158222
202.8032,-0.000158108
202.9032,-0.0001580261
203.0032,-0.0001579347
203.1032,-0.0001577775
203.2032,-0.0001576795
203.3032,-0.000157542
203.4032,-0.0001574592
203.5032,-0.0001573075
203.6032,-0.0001571879
203.7032,-0.0001570693
203.8032,-0.0001569139
203.9032,-0.0001568075
204.0033,-0.0001567406
204.1033,-0.0001566078
204.2033,-0.0001564647
204.3033,-0.0001563611
204.4033,-0.0001562509
204.5033,-0.0001561078
204.6033,-0.0001559957
204.7033,-0.0001558667
204.8033,-0.0001557424
204.9033,-0.0001556473
205.0033,-0.0001555314
205.1033,-0.0001553996
205.2033,-0.0001553299
205.3033,-0.000155247
205.4033,-0.0001551029
205.5033,-0.0001549739
205.6033,-0.000154859
205.7034,-0.0001547385
205.8034,-0.000154617
205.9034,-0.000154488
206.0034,-0.0001543995
206.1034,-0.0001542874
206.2034,-0.0001541622
206.3034,-0.0001540482
206.4034,-0.000153939
206.5034,-0.0001538194
206.6034,-0.0001537054
206.7034,-0.0001535726
206.8034,-0.0001534558
206.9034,-0.0001533711
207.0034,-0.0001532826
207.1034,-0.0001531818
207.2034,-0.0001530669
207.3035,-0.0001530038
207.4035,-0.0001529031
207.5035,-0.0001527788
207.6035,-0.0001526733
207.7035,-0.0001525424
207.8035,-0.0001524266
207.9035,-0.0001523446
208.0035,-0.0001522062
208.1035,-0.0001520724
208.2035,-0.0001519689
208.3035,-0.0001518351
208.4035,-0.0001517118
208.5035,-0.0001515828
208.6035,-0.0001515065
208.7035,-0.0001513944
208.8035,-0.0001512691
208.9035,-0.0001511552
209.0036,-0.0001510545
209.1036,-0.0001509292
209.2036,-0.0001508388
209.3036,-0.0001506966
209.4036,-0.0001505902
209.5036,-0.0001505384
209.6036,-0.0001504225
209.7036,-0.0001502756
209.8036,-0.0001502332
209.9036,-0.0001501315
210.0036,-0.0001499846
210.1036,-0.0001498641
210.2036,-0.0001497869
210.3036,-0.0001496513
210.4036,-0.0001495486
210.5036,-0.0001494412
210.6037,-0.0001492877
210.7037,-0.0001491879
210.8037,-0.0001490956
210.9037,-0.0001489732
211.0037,-0.0001488254
211.1037,-0.0001487152
211.2037,-0.0001486116
211.3037,-0.0001485005
211.4037,-0.0001483865
211.5037,-0.0001482867
211.6037,-0.0001481633
211.7037,-0.0001480522
211.8037,-0.000147974
211.9037,-0.0001478478
212.0037,-0.0001477122
212.1037,-0.0001476529
212.2038,-0.0001475616
212.3038,-0.0001474391
212.4038,-0.0001473873
212.5038,-0.0001472847
212.6038,-0.0001471651
212.7038,-0.0001470332
212.8038,-0.0001469513
212.9038,-0.0001468233
213.0038,-0.0001467065
213.1038,-0.0001465803
213.2038,-0.000146487
213.3038,-0.0001463797
213.4038,-0.0001462864
213.5038,-0.0001461226
213.6038,-0.000146003
213.7038,-0.0001459239
213.8038,-0.0001458015
213.9039,-0.0001456941
214.0039,-0.0001455933
214.1039,-0.000145485
214.2039,-0.0001453711
214.3039,-0.0001452741
214.4039,-0.0001451743
214.5039,-0.0001450377
214.6039,-0.0001449737
214.7039,-0.0001448861
214.8039,-0.0001447392
214.9039,-0.0001446695
215.0039,-0.0001445857
215.1039,-0.0001444444
215.2039,-0.0001443126
215.3039,-0.0001442335
215.4039,-0.0001441431
215.504,-0.0001440112
215.604,-0.0001438587
215.704,-0.0001438238
215.804,-0.0001436986
215.904,-0.0001435422
216.004,-0.000143465
216.104,-0.0001433746
216.204,-0.0001432362
216.304,-0.0001431232
216.404,-0.0001430366
216.504,-0.0001429066
216.604,-0.0001427804
216.704,-0.0001426928
216.804,-0.0001425892
216.904,-0.00014248
217.004,-0.0001423698
217.104,-0.0001422417
217.2041,-0.0001421457
217.3041,-0.0001420675
217.4041,-0.0001419394
217.5041,-0.0001418339
217.6041,-0.0001417643
217.7041,-0.0001416644
217.8041,-0.0001415439
217.9041,-0.0001414657
218.0041,-0.0001413537
218.1041,-0.0001412557
218.2041,-0.000141154
218.3041,-0.0001410165
218.4041,-0.0001409327
218.5041,-0.0001408206
218.6041,-0.0001407001
218.7041,-0.000140588
218.8042,-0.0001405005
218.9042,-0.0001403931
219.0042,-0.0001403083
219.1042,-0.0001402208
219.2042,-0.0001400805
219.3042,-0.000139975
219.4042,-0.0001398978
219.5042,-0.00013978
219.6042,-0.0001396755
219.7042,-0.000139555
219.8042,-0.0001394561
219.9042,-0.0001393845
220.0042,-0.0001392555
220.1042,-0.0001391538
220.2042,-0.0001390615
220.3042,-0.000138973
220.4043,-0.0001388684
220.5043,-0.0001387809
220.6043,-0.0001386763
220.7043,-0.0001385417
220.8043,-0.0001384409
220.9043,-0.0001383712
221.0043,-0.0001382686
221.1043,-0.0001381339
221.2043,-0.000138051
221.3043,-0.0001379747
221.4043,-0.0001378146
221.5043,-0.000137744
221.6043,-0.0001376404
221.7043,-0.0001375274
221.8043,-0.0001374257
221.9043,-0.0001373362
222.0043,-0.0001372261
222.1044,-0.0001371385
222.2044,-0.000137017
222.3044,-0.0001369106
222.4044,-0.0001367938
222.5044,-0.0001367222
222.6044,-0.000136629
222.7044,-0.0001364849
222.8044,-0.0001364068
222.9044,-0.000136323
223.0044,-0.0001361845
223.1044,-0.0001361045
223.2044,-0.000136031
223.3044,-0.0001358973
223.4044,-0.0001357843
223.5044,-0.0001356901
223.6044,-0.0001356034
223.7045,-0.0001354923
223.8045,-0.0001353831
223.9045,-0.0001352993
224.0045,-0.0001352108
224.1045,-0.0001351316
224.2045,-0.0001350083
224.3045,-0.0001349047
224.4045,-0.000134819
224.5045,-0.0001346862
224.6045,-0.0001345854
224.7045,-0.0001345233
224.8045,-0.0001344103
224.9045,-0.0001342775
225.0045,-0.0001342022
225.1045,-0.0001341099
225.2045,-0.0001339978
225.3046,-0.0001339178
225.4046,-0.0001338528
225.5046,-0.0001337351
225.6046,-0.0001336315
225.7046,-0.0001335665
225.8046,-0.0001334591
225.9046,-0.0001333621
226.0046,-0.0001332642
226.1046,-0.0001331945
226.2046,-0.0001330881
226.3046,-0.0001329723
226.4046,-0.0001328762
226.5046,-0.0001327651
226.6046,-0.0001326643
226.7046,-0.0001325805
226.8046,-0.0001324345
226.9046,-0.000132363
227.0047,-0.0001323046
227.1047,-0.0001322029
227.2047,-0.000132088
227.3047,-0.0001319853
227.4047,-0.0001319024
227.5047,-0.0001317894
227.6047,-0.0001316529
227.7047,-0.0001316171
227.8047,-0.0001314937
227.9047,-0.0001313534
228.0047,-0.0001312781
228.1047,-0.0001311811
228.2047,-0.0001310775
228.3047,-0.0001309739
228.4047,-0.0001308816
228.5047,-0.0001307988
228.6048,-0.000130698
228.7048,-0.0001305699
228.8048,-0.0001305143
228.9048,-0.0001304305
229.0048,-0.0001303345
229.1048,-0.000130213
229.2048,-0.0001301537
229.3048,-0.0001300576
229.4048,-0.0001299267
229.5048,-0.0001298071
229.6048,-0.0001297619
229.7048,-0.0001296715
229.8048,-0.0001295171
229.9048,-0.0001294568
230.0048,-0.0001293918
230.1048,-0.0001292487
230.2048,-0.000129179
230.3049,-0.0001291441
230.4049,-0.0001290546
230.5049,-0.0001289379
230.6049,-0.0001289153
230.7049,-0.000128807
230.8049,-0.000128661
230.9049,-0.0001285847
231.0049,-0.0001285254
231.1049,-0.0001283889
231.2049,-0.0001283107
231.3049,-0.0001282269
231.4049,-0.0001280997
231.5049,-0.0001280075
231.6049,-0.0001279331
231.7049,-0.0001278521
231.8049,-0.0001277466
231.905,-0.0001276609
232.005,-0.0001275837
232.105,-0.0001274961
232.205,-0.0001274321
232.305,-0.0001273143
232.405,-0.0001272531
232.505,-0.000127207
232.605,-0.0001271392
232.705,-0.0001270553
232.805,-0.0001269602
232.905,-0.000126915
233.005,-0.0001268209
233.105,-0.0001266956
233.205,-0.0001266363
233.305,-0.0001265054
233.405,-0.0001263877
233.5051,-0.0001262954
233.6051,-0.0001262163
233.7051,-0.0001260957
233.8051,-0.00012601
233.9051,-0.0001259319
234.0051,-0.0001258415
234.1051,-0.0001257501
234.2051,-0.0001256597
234.3051,-0.0001255816
234.4051,-0.0001254544
234.5051,-0.0001253885
234.6051,-0.0001253113
234.7051,-0.0001252115
234.8051,-0.0001251163
234.9051,-0.0001250391
235.0051,-0.0001249496
235.1051,-0.0001247905
235.2052,-0.0001247735
235.3052,-0.0001246728
235.4052,-0.0001245551
235.5052,-0.0001244524
235.6052,-0.0001244063
235.7052,-0.0001242951
235.8052,-0.0001242255
235.9052,-0.000124119
236.0052,-0.0001240475
236.1052,-0.000123942
236.2052,-0.0001238563
236.3052,-0.0001237235
236.4052,-0.0001236378
236.5052,-0.0001235888
236.6052,-0.0001234824
236.7052,-0.0001233807
236.8053,-0.0001233092
236.9053,-0.0001232536
237.0053,-0.0001231528
237.1053,-0.0001230737
237.2053,-0.000123004
237.3053,-0.0001228995
237.4053,-0.0001227978
237.5053,-0.000122698
237.6053,-0.0001226
237.7053,-0.0001225266
237.8053,-0.0001224296
237.9053,-0.0001223109
238.0053,-0.0001222648
238.1053,-0.0001221668
238.2053,-0.0001220614
238.3053,-0.0001220265
238.4053,-0.0001219229
238.5054,-0.0001218071
238.6054,-0.0001217355
238.7054,-0.0001216715
238.8054,-0.0001215641
238.9054,-0.0001214624
239.0054,-0.000121388
239.1054,-0.000121308
239.2054,-0.0001211931
239.3054,-0.0001211262
239.4054,-0.0001210433
239.5054,-0.00012092
239.6054,-0.0001208192
239.7054,-0.0001207778
239.8054,-0.0001206902
239.9054,-0.0001205894
240.0054,-0.0001205226
240.1055,-0.0001204585
240.2055,-0.0001203728
240.3055,-0.0001202758
240.4055,-0.0001202043
240.5055,-0.0001200997
240.6055,-0.0001200338
240.7055,-0.0001199745
240.8055,-0.0001198455
240.9055,-0.0001197475
241.0055,-0.000119691
241.1055,-0.0001196326
241.2055,-0.0001195196
241.3055,-0.000119465
241.4055,-0.0001194095
241.5055,-0.0001192908
241.6055,-0.0001191844
241.7056,-0.0001191081
241.8056,-0.0001190271
241.9056,-0.0001189273
242.0056,-0.0001188171
242.1056,-0.0001187342
242.2056,-0.0001186353
242.3056,-0.000118544
242.4056,-0.000118447
242.5056,-0.0001183698
242.6056,-0.0001183349
242.7056,-0.000118204
242.8056,-0.0001181183
242.9056,-0.0001180675
243.0056,-0.0001179959
243.1056,-0.0001178791
243.2056,-0.0001178038
243.3056,-0.0001177501
243.4057,-0.0001176465
243.5057,-0.0001175307
243.6057,-0.0001174883
243.7057,-0.0001174073
243.8057,-0.0001173122
243.9057,-0.0001172482
244.0057,-0.0001171483
244.1057,-0.0001170721
244.2057,-0.0001169788
244.3057,-0.0001169091
244.4057,-0.0001168395
244.5057,-0.0001167349
244.6057,-0.0001166436
244.7057,-0.0001165456
244.8057,-0.0001164722
244.9057,-0.0001164006
245.0058,-0.0001163064
245.1058,-0.0001162226
245.2058,-0.0001161558
245.3058,-0.0001160541
245.4058,-0.000115941
245.5058,-0.0001159043
245.6058,-0.0001158045
245.7058,-0.0001156755
245.8058,-0.0001156096
245.9058,-0.0001155276
246.0058,-0.0001154353
246.1058,-0.0001153487
246.2058,-0.0001152847
246.3058,-0.0001151914
246.4058,-0.0001150897
246.5058,-0.0001150332
246.6059,-0.0001149673
246.7059,-0.0001148496
246.8059,-0.0001147639
246.9059,-0.0001147215
247.0059,-0.0001146198
247.1059,-0.0001145332
247.2059,-0.0001144475
247.3059,-0.0001143938
247.4059,-0.0001143288
247.5059,-0.000114228
247.6059,-0.0001141292
247.7059,-0.000114083
247.8059,-0.0001140048
247.9059,-0.000113873
248.0059,-0.0001137817
248.1059,-0.0001137845
248.2059,-0.0001136592
248.306,-0.0001135622
248.406,-0.0001135142
248.506,-0.0001134285
248.606,-0.0001133419
248.706,-0.0001132505
248.806,-0.0001131912
248.906,-0.0001131206
249.006,-0.0001130094
249.106,-0.0001129595
249.206,-0.0001128625
249.306,-0.0001127825
249.406,-0.0001126864
249.506,-0.0001126196
249.606,-0.0001125367
249.706,-0.000112434
249.806,-0.0001123521
249.9061,-0.0001122749
250.0061,-0.0001122052
250.1061,-0.000112111
250.2061,-0.00011203
250.3061,-0.0001119255
250.4061,-0.0001118841
250.5061,-0.0001117842
250.6061,-0.0001116891
250.7061,-0.0001116044
250.8061,-0.0001115328
250.9061,-0.0001114226
251.0061,-0.0001113501
251.1061,-0.0001112861
251.2061,-0.0001112286
251.3061,-0.0001110949
251.4061,-0.0001110506
251.5061,-0.0001109838
251.6062,-0.0001108849
251.7062,-0.0001108162
251.8062,-0.0001107455
251.9062,-0.0001106589
252.0062,-0.0001105732
252.1062,-0.0001105044
252.2062,-0.0001104357
252.3062,-0.0001103283
252.4062,-0.0001102615
252.5062,-0.0001101833
252.6062,-0.0001101042
252.7062,-0.0001100336
252.8062,-0.0001099667
252.9062,-0.0001099027
253.0062,-0.0001098226
253.1062,-0.0001097426
253.2063,-0.0001096682
253.3063,-0.0001095928
253.4063,-0.0001095118
253.5063,-0.0001094233
253.6063,-0.0001093404
253.7063,-0.0001092463
253.8063,-0.0001091785
253.9063,-0.000109121
254.0063,-0.000109025
254.1063,-0.000108943
254.2063,-0.0001088856
254.3063,-0.0001087961
254.4063,-0.0001087104
254.5063,-0.000108653
254.6063,-0.0001085805
254.7063,-0.0001084656
254.8064,-0.0001084063
254.9064,-0.0001083441
255.0064,-0.0001082735
255.1064,-0.0001081774
255.2064,-0.0001081171
255.3064,-0.0001080625
255.4064,-0.0001079712
255.5064,-0.0001078808
255.6064,-0.0001078017
255.7064,-0.0001077414
255.8064,-0.0001076416
255.9064,-0.00010757
256.0064,-0.0001074749
256.1064,-0.0001073873
256.2064,-0.00010736
256.3064,-0.0001072555
256.4064,-0.0001071641
256.5064,-0.0001070812
256.6064,-0.0001070294
256.7065,-0.0001069381
256.8065,-0.0001068825
256.9065,-0.0001067846
257.0065,-0.0001067036
257.1065,-0.0001066339
257.2065,-0.0001065831
257.3065,-0.0001064879
257.4065,-0.0001064022
257.5065,-0.0001063279
257.6065,-0.0001062572
257.7065,-0.0001061696
257.8065,-0.0001061112
257.9065,-0.000106018
258.0065,-0.0001059436
258.1065,-0.0001058589
258.2065,-0.0001057958
258.3065,-0.0001057242
258.4066,-0.0001056366
258.5066,-0.0001055773
258.6066,-0.0001055048
258.7066,-0.000105421
258.8066,-0.0001053701
258.9066,-0.0001052778
259.0066,-0.0001052354
259.1066,-0.0001051384
259.2066,-0.000105033
259.3066,-0.0001049718
259.4066,-0.0001049162
259.5066,-0.0001048258
259.6066,-0.0001047307
259.7066,-0.0001046798
259.8066,-0.0001046318
259.9066,-0.000104531
260.0067,-0.0001044698
260.1067,-0.0001043935
260.2067,-0.000104337
260.3067,-0.0001042673
260.4067,-0.0001041845
260.5067,-0.000104112
260.6067,-0.00010403
260.7067,-0.0001039726
260.8067,-0.0001038775
260.9067,-0.000103821
261.0067,-0.0001037635
261.1067,-0.0001036957
261.2067,-0.0001036157
261.3067,-0.0001035686
261.4067,-0.000103529
261.5067,-0.000103448
261.6068,-0.0001033567
261.7068,-0.0001033256
261.8068,-0.0001032277
261.9068,-0.0001031533
262.0068,-0.0001031194
262.1068,-0.0001030356
262.2068,-0.0001029225
262.3068,-0.0001028472
262.4068,-0.0001027945
262.5068,-0.0001026965
262.6068,-0.000102592
262.7068,-0.0001025487
262.8068,-0.0001024809
262.9068,-0.0001023716
263.0068,-0.000102318
263.1068,-0.0001022662
263.2068,-0.0001021616
263.3069,-0.0001020967
263.4069,-0.0001020354
263.5069,-0.0001019658
263.6069,-0.0001018697
263.7069,-0.0001018245
263.8069,-0.0001017755
263.9069,-0.0001016616
264.0069,-0.0001016248
264.1069,-0.0001015523
264.2069,-0.0001014478
264.3069,-0.0001014035
264.4069,-0.000101347
264.5069,-0.0001012274
264.6069,-0.0001012133
264.7069,-0.0001011342
264.8069,-0.0001010306
264.907,-0.000101008
265.007,-0.0001009619
265.107,-0.0001008686
265.207,-0.0001007679
265.307,-0.0001007556
265.407,-0.0001006652
265.507,-0.0001005673
265.607,-0.0001005183
265.707,-0.000100458
265.807,-0.0001003667
265.907,-0.0001002942
266.007,-0.0001002471
266.107,-0.0001001736
266.207,-0.0001000729
266.307,-0.0001000135
266.407,-9.993538E-05
266.507,-9.987606E-05
266.6071,-9.979882E-05
266.7071,-9.971784E-05
266.8071,-9.967264E-05
266.9071,-9.959071E-05
267.0071,-9.950784E-05
267.1071,-9.9489E-05
267.2071,-9.941366E-05
267.3071,-9.935151E-05
267.4071,-9.926675E-05
267.5071,-9.919612E-05
267.6071,-9.914715E-05
267.7071,-9.907369E-05
267.8071,-9.899271E-05
267.9071,-9.891736E-05
268.0071,-9.883544E-05
268.1071,-9.876857E-05
268.2072,-9.871584E-05
268.3072,-9.864804E-05
268.4072,-9.855198E-05
268.5072,-9.849077E-05
268.6072,-9.843143E-05
268.7072,-9.835986E-05
268.8072,-9.8293E-05
268.9072,-9.825251E-05
269.0072,-9.821202E-05
269.1072,-9.811219E-05
269.2072,-9.80538E-05
269.3072,-9.79973E-05
269.4072,-9.790407E-05
269.5072,-9.783908E-05
269.6072,-9.777693E-05
269.7072,-9.768747E-05
269.8073,-9.763473E-05
269.9073,-9.757729E-05
270.0073,-9.746334E-05
270.1073,-9.738329E-05
270.2073,-9.73767E-05
270.3073,-9.734467E-05
270.4073,-9.723544E-05
270.5073,-9.719777E-05
270.6073,-9.71488E-05
270.7073,-9.70405E-05
270.8073,-9.697929E-05
270.9073,-9.695104E-05
271.0073,-9.686533E-05
271.1073,-9.679847E-05
271.2073,-9.675233E-05
271.3073,-9.669489E-05
271.4073,-9.659788E-05
271.5074,-9.655739E-05
271.6074,-9.648393E-05
271.7074,-9.643214E-05
271.8074,-9.635492E-05
271.9074,-9.626734E-05
272.0074,-9.619765E-05
272.1074,-9.614585E-05
272.2074,-9.607711E-05
272.3074,-9.598105E-05
272.4074,-9.591701E-05
272.5074,-9.585862E-05
272.6074,-9.580495E-05
272.7074,-9.573337E-05
272.8074,-9.566651E-05
272.9074,-9.562413E-05
273.0074,-9.555256E-05
273.1075,-9.552808E-05
273.2075,-9.544614E-05
273.3075,-9.537175E-05
273.4075,-9.533502E-05
273.5075,-9.523143E-05
273.6075,-9.514573E-05
273.7075,-9.509959E-05
273.8075,-9.503367E-05
273.9075,-9.493573E-05
274.0075,-9.488394E-05
274.1075,-9.483214E-05
274.2075,-9.473514E-05
274.3075,-9.466262E-05
274.4075,-9.462496E-05
274.5075,-9.456374E-05
274.6075,-9.449876E-05
274.7076,-9.442155E-05
274.8076,-9.437164E-05
274.9076,-9.429723E-05
275.0076,-9.425109E-05
275.1076,-9.417198E-05
275.2076,-9.409006E-05
275.3076,-9.408347E-05
275.4076,-9.400718E-05
275.5076,-9.391583E-05
275.6076,-9.388099E-05
275.7076,-9.380377E-05
275.8076,-9.37482E-05
275.9076,-9.365968E-05
276.0076,-9.363897E-05
276.1076,-9.355139E-05
276.2076,-9.346192E-05
276.3076,-9.34299E-05
276.4077,-9.337716E-05
276.5077,-9.330182E-05
276.6077,-9.324344E-05
276.7077,-9.319541E-05
276.8077,-9.311253E-05
276.9077,-9.30438E-05
277.0077,-9.298352E-05
277.1077,-9.293361E-05
277.2077,-9.286486E-05
277.3077,-9.276975E-05
277.4077,-9.27123E-05
277.5077,-9.26558E-05
277.6077,-9.259271E-05
277.7077,-9.25183E-05
277.8077,-9.243543E-05
277.9077,-9.238929E-05
278.0078,-9.23535E-05
278.1078,-9.223296E-05
278.2078,-9.217646E-05
278.3078,-9.214633E-05
278.4078,-9.208039E-05
278.5078,-9.200318E-05
278.6078,-9.195045E-05
278.7078,-9.189299E-05
278.8078,-9.183084E-05
278.9078,-9.175268E-05
279.0078,-9.167075E-05
279.1078,-9.161801E-05
279.2078,-9.155586E-05
279.3078,-9.149464E-05
279.4078,-9.141836E-05
279.5078,-9.137504E-05
279.6078,-9.129971E-05
279.7079,-9.122907E-05
279.8079,-9.116504E-05
279.9079,-9.112736E-05
280.0079,-9.105862E-05
280.1079,-9.100871E-05
280.2079,-9.093431E-05
280.3079,-9.087216E-05
280.4079,-9.084108E-05
280.5079,-9.076291E-05
280.6079,-9.070359E-05
280.7079,-9.072054E-05
280.8079,-9.064143E-05
280.9079,-9.055479E-05
281.0079,-9.055103E-05
281.1079,-9.052183E-05
281.2079,-9.041165E-05
281.308,-9.037209E-05
281.408,-9.033349E-05
281.508,-9.025815E-05
281.608,-9.016303E-05
281.708,-9.012913E-05
281.808,-9.006038E-05
281.908,-8.994644E-05
282.008,-8.991253E-05
282.108,-8.986922E-05
282.208,-8.978257E-05
282.308,-8.973078E-05
282.408,-8.968652E-05
282.508,-8.96027E-05
282.608,-8.952736E-05
282.708,-8.949911E-05
282.808,-8.943319E-05
282.9081,-8.938422E-05
283.0081,-8.932583E-05
283.1081,-8.930983E-05
283.2081,-8.921754E-05
283.3081,-8.913372E-05
283.4081,-8.910924E-05
283.5081,-8.901412E-05
283.6081,-8.89642E-05
283.7081,-8.886533E-05
283.8081,-8.883708E-05
283.9081,-8.878433E-05
284.0081,-8.873442E-05
284.1081,-8.868263E-05
284.2081,-8.863273E-05
284.3081,-8.858281E-05
284.4081,-8.850652E-05
284.5081,-8.84293E-05
284.6082,-8.8402E-05
284.7082,-8.830971E-05
284.8082,-8.82645E-05
284.9082,-8.818822E-05
285.0082,-8.815055E-05
285.1082,-8.808746E-05
285.2082,-8.798198E-05
285.3082,-8.793396E-05
285.4082,-8.79057E-05
285.5082,-8.784166E-05
285.6082,-8.776067E-05
285.7082,-8.775973E-05
285.8082,-8.770888E-05
285.9082,-8.76326E-05
286.0082,-8.760059E-05
286.1082,-8.755538E-05
286.2083,-8.74904E-05
286.3083,-8.741695E-05
286.4083,-8.734067E-05
286.5083,-8.730017E-05
286.6083,-8.725685E-05
286.7083,-8.717963E-05
286.8083,-8.711089E-05
286.9083,-8.70751E-05
287.0083,-8.702801E-05
287.1083,-8.693572E-05
287.2083,-8.686604E-05
287.3083,-8.686321E-05
287.4083,-8.677374E-05
287.5083,-8.672572E-05
287.6083,-8.668898E-05
287.7083,-8.662212E-05
287.8083,-8.655432E-05
287.9084,-8.651006E-05
288.0084,-8.642719E-05
288.1084,-8.638576E-05
288.2084,-8.634148E-05
288.3084,-8.628592E-05
288.4084,-8.620211E-05
288.5084,-8.616068E-05
288.6084,-8.612677E-05
288.7084,-8.605991E-05
288.8084,-8.599116E-05
288.9084,-8.598645E-05
289.0084,-8.590264E-05
289.1084,-8.584707E-05
289.2084,-8.579811E-05
289.3084,-8.573595E-05
289.4084,-8.567097E-05
289.5085,-8.560318E-05
289.6085,-8.556832E-05
289.7085,-8.553254E-05
289.8085,-8.545249E-05
289.9085,-8.539882E-05
290.0085,-8.534984E-05
290.1085,-8.527638E-05
290.2085,-8.521706E-05
290.3085,-8.517091E-05
290.4085,-8.512854E-05
290.5085,-8.506356E-05
290.6085,-8.5008E-05
290.7085,-8.495621E-05
290.8085,-8.492889E-05
290.9085,-8.486203E-05
291.0085,-8.479611E-05
291.1086,-8.473866E-05
291.2086,-8.470382E-05
291.3086,-8.462942E-05
291.4086,-8.456633E-05
291.5086,-8.455784E-05
291.6086,-8.447215E-05
291.7086,-8.439494E-05
291.8086,-8.43695E-05
291.9086,-8.4329E-05
292.0086,-8.425084E-05
292.1086,-8.417833E-05
292.2086,-8.416703E-05
292.3086,-8.410864E-05
292.4086,-8.403989E-05
292.5086,-8.397586E-05
292.6086,-8.39316E-05
292.7086,-8.389111E-05
292.8087,-8.385719E-05
292.9087,-8.374137E-05
293.0087,-8.369146E-05
293.1087,-8.366792E-05
293.2087,-8.360199E-05
293.3087,-8.351535E-05
293.4087,-8.349086E-05
293.5087,-8.34532E-05
293.6087,-8.340046E-05
293.7087,-8.333831E-05
293.8087,-8.328557E-05
293.9087,-8.324131E-05
294.0087,-8.318858E-05
294.1087,-8.314148E-05
294.2087,-8.307368E-05
294.3087,-8.302754E-05
294.4088,-8.298233E-05
294.5088,-8.291358E-05
294.6088,-8.285332E-05
294.7088,-8.282882E-05
294.8088,-8.275161E-05
294.9088,-8.269134E-05
295.0088,-8.266309E-05
295.1088,-8.260941E-05
295.2088,-8.255008E-05
295.3088,-8.248792E-05
295.4088,-8.246156E-05
295.5088,-8.240882E-05
295.6088,-8.235043E-05
295.7088,-8.231747E-05
295.8088,-8.223177E-05
295.9088,-8.224401E-05
296.0089,-8.21941E-05
296.1089,-8.2131E-05
296.2089,-8.206697E-05
296.3089,-8.203684E-05
296.4089,-8.196432E-05
296.5089,-8.18984E-05
296.6089,-8.187014E-05
296.7089,-8.182494E-05
296.8089,-8.174677E-05
296.9089,-8.168368E-05
297.0089,-8.166579E-05
297.1089,-8.159233E-05
297.2089,-8.152453E-05
297.3089,-8.149157E-05
297.4089,-8.142471E-05
297.5089,-8.13974E-05
297.6089,-8.13343E-05
297.709,-8.128062E-05
297.809,-8.122883E-05
297.909,-8.119022E-05
298.009,-8.114595E-05
298.109,-8.111206E-05
298.209,-8.105367E-05
298.309,-8.099999E-05
298.409,-8.094255E-05
298.509,-8.090958E-05
298.609,-8.086438E-05
298.709,-8.079752E-05
298.809,-8.075043E-05
298.909,-8.071841E-05
299.009,-8.064212E-05
299.109,-8.057526E-05
299.209,-8.05536E-05
299.3091,-8.053854E-05
299.4091,-8.042647E-05
299.5091,-8.038504E-05
299.6091,-8.035773E-05
299.7091,-8.030593E-05
299.8091,-8.022776E-05
299.9091,-8.0208E-05
300.0091,-8.01675E-05
300.1091,-8.008274E-05
300.2091,-8.003753E-05
300.3091,-8.001494E-05
300.4091,-7.996032E-05
300.5091,-7.990476E-05
300.6091,-7.987462E-05
300.7091,-7.983977E-05
300.8091,-7.979081E-05
300.9091,-7.972676E-05
301.0092,-7.969945E-05
301.1092,-7.965331E-05
301.2092,-7.959022E-05
301.3092,-7.953277E-05
301.4092,-7.949416E-05
301.5092,-7.944518E-05
301.6092,-7.937738E-05
301.7092,-7.931523E-05
301.8092,-7.931523E-05
301.9092,-7.925402E-05
302.0092,-7.91928E-05
302.1092,-7.915043E-05
302.2092,-7.910805E-05
302.3092,-7.906473E-05
302.4092,-7.898845E-05
302.5092,-7.900446E-05
302.6093,-7.891876E-05
302.7093,-7.885754E-05
302.8093,-7.884907E-05
302.9093,-7.87954E-05
303.0093,-7.871346E-05
303.1093,-7.868427E-05
303.2093,-7.865884E-05
303.3093,-7.854772E-05
303.4093,-7.853548E-05
303.5093,-7.854018E-05
303.6093,-7.84818E-05
303.7093,-7.838763E-05
303.8093,-7.839422E-05
303.9093,-7.832736E-05
304.0093,-7.826237E-05
304.1093,-7.822095E-05
304.2094,-7.818986E-05
304.3094,-7.815219E-05
304.4094,-7.807874E-05
304.5094,-7.807403E-05
304.6094,-7.801753E-05
304.7094,-7.794501E-05
304.8094,-7.790735E-05
304.9094,-7.785931E-05
305.0094,-7.77981E-05
305.1094,-7.773878E-05
305.2094,-7.77077E-05
305.3094,-7.764648E-05
305.4094,-7.758998E-05
305.5094,-7.754007E-05
305.6094,-7.750052E-05
305.7094,-7.745342E-05
305.8094,-7.740634E-05
305.9095,-7.734889E-05
306.0095,-7.735455E-05
306.1095,-7.728957E-05
306.2095,-7.722458E-05
306.3095,-7.721423E-05
306.4095,-7.716055E-05
306.5095,-7.707956E-05
306.6095,-7.703718E-05
306.7095,-7.703718E-05
306.8095,-7.694489E-05
306.9095,-7.689781E-05
307.0095,-7.686579E-05
307.1095,-7.682623E-05
307.2095,-7.675467E-05
307.3095,-7.672076E-05
307.4095,-7.668215E-05
307.5096,-7.661623E-05
307.6096,-7.65908E-05
307.7096,-7.656537E-05
307.8096,-7.649569E-05
307.9096,-7.642035E-05
308.0096,-7.641658E-05
308.1096,-7.640717E-05
308.2096,-7.632241E-05
308.3096,-7.626403E-05
308.4096,-7.625931E-05
308.5096,-7.621504E-05
308.6096,-7.616042E-05
308.7096,-7.611052E-05
308.8096,-7.60672E-05
308.9096,-7.602576E-05
309.0096,-7.598339E-05
309.1096,-7.591934E-05
309.2097,-7.58958E-05
309.3097,-7.584777E-05
309.4097,-7.578374E-05
309.5097,-7.571594E-05
309.6097,-7.571122E-05
309.7097,-7.569051E-05
309.8097,-7.562836E-05
309.9097,-7.557562E-05
310.0097,-7.55502E-05
310.1097,-7.549275E-05
310.2097,-7.545884E-05
310.3097,-7.542964E-05
310.4097,-7.536937E-05
310.5097,-7.530157E-05
310.6097,-7.528932E-05
310.7097,-7.524413E-05
310.8098,-7.516596E-05
310.9098,-7.513677E-05
311.0098,-7.509344E-05
311.1098,-7.503788E-05
311.2098,-7.497762E-05
311.3098,-7.494748E-05
311.4098,-7.494936E-05
311.5098,-7.487874E-05
311.6098,-7.482882E-05
311.7098,-7.47742E-05
311.8098,-7.474877E-05
311.9098,-7.471676E-05
312.0098,-7.464424E-05
312.1098,-7.460187E-05
312.2098,-7.461317E-05
312.3098,-7.460187E-05
312.4099,-7.451334E-05
312.5099,-7.448886E-05
312.6099,-7.448038E-05
312.7099,-7.442765E-05
312.8099,-7.43815E-05
312.9099,-7.435701E-05
313.0099,-7.433158E-05
313.1099,-7.426472E-05
313.2099,-7.422517E-05
313.3099,-7.417244E-05
313.4099,-7.413288E-05
313.5099,-7.409428E-05
313.6099,-7.405849E-05
313.7099,-7.398503E-05
313.8099,-7.394171E-05
313.9099,-7.390875E-05
314.0099,-7.384754E-05
314.11,-7.379951E-05
314.21,-7.375808E-05
314.31,-7.370722E-05
314.41,-7.366956E-05
314.51,-7.363471E-05
314.61,-7.357631E-05
314.71,-7.355655E-05
314.81,-7.350193E-05
314.91,-7.344542E-05
315.01,-7.341717E-05
315.11,-7.339645E-05
315.21,-7.332487E-05
315.31,-7.328344E-05
315.41,-7.326555E-05
315.51,-7.323259E-05
315.61,-7.316102E-05
315.7101,-7.313182E-05
315.8101,-7.309038E-05
315.9101,-7.303765E-05
316.0101,-7.302918E-05
316.1101,-7.298867E-05
316.2101,-7.291805E-05
316.3101,-7.28559E-05
316.4101,-7.284931E-05
316.5101,-7.280787E-05
316.6101,-7.274383E-05
316.7101,-7.270616E-05
316.8101,-7.268733E-05
316.9101,-7.261293E-05
317.0101,-7.258938E-05
317.1101,-7.255549E-05
317.2101,-7.252911E-05
317.3102,-7.252911E-05
317.4102,-7.245471E-05
317.5102,-7.241798E-05
317.6102,-7.237562E-05
317.7102,-7.237656E-05
317.8102,-7.231157E-05
317.9102,-7.224659E-05
318.0102,-7.226544E-05
318.1102,-7.221929E-05
318.2102,-7.212041E-05
318.3102,-7.210911E-05
318.4102,-7.210534E-05
318.5102,-7.204883E-05
318.6102,-7.200174E-05
318.7102,-7.200362E-05
318.8102,-7.19443E-05
318.9102,-7.189628E-05
319.0103,-7.188873E-05
319.1103,-7.185295E-05
319.2103,-7.177855E-05
319.3103,-7.175406E-05
319.4103,-7.172111E-05
319.5103,-7.16712E-05
319.6103,-7.162223E-05
319.7103,-7.157608E-05
319.8103,-7.154406E-05
319.9103,-7.151392E-05
320.0103,-7.149226E-05
320.1103,-7.141788E-05
320.2103,-7.137925E-05
320.3103,-7.136608E-05
320.4103,-7.135289E-05
320.5103,-7.12785E-05
320.6104,-7.123141E-05
320.7104,-7.121445E-05
320.8104,-7.116171E-05
320.9104,-7.113158E-05
321.0104,-7.107414E-05
321.1104,-7.104401E-05
321.2104,-7.102046E-05
321.3104,-7.099786E-05
321.4104,-7.096584E-05
321.5104,-7.088391E-05
321.6104,-7.088202E-05
321.7104,-7.085755E-05
321.8104,-7.078032E-05
321.9104,-7.076243E-05
322.0104,-7.072852E-05
322.1104,-7.071817E-05
322.2104,-7.070122E-05
322.3105,-7.062116E-05
322.4105,-7.059668E-05
322.5105,-7.054772E-05
322.6105,-7.05496E-05
322.7105,-7.044977E-05
322.8105,-7.041587E-05
322.9105,-7.040174E-05
323.0105,-7.036784E-05
323.1105,-7.032452E-05
323.2105,-7.028497E-05
323.3105,-7.022469E-05
323.4105,-7.022564E-05
323.5105,-7.020021E-05
323.6105,-7.013053E-05
323.7105,-7.008344E-05
323.8105,-7.008155E-05
323.9106,-7.006366E-05
324.0106,-6.997984E-05
324.1106,-6.996196E-05
324.2106,-6.99403E-05
324.3106,-6.990922E-05
324.4106,-6.990075E-05
324.5106,-6.983199E-05
324.6106,-6.98367E-05
324.7106,-6.978773E-05
324.8106,-6.973877E-05
324.9106,-6.971051E-05
325.0106,-6.966719E-05
325.1106,-6.964836E-05
325.2106,-6.96041E-05
325.3106,-6.954289E-05
325.4106,-6.95363E-05
325.5107,-6.949485E-05
325.6107,-6.944306E-05
325.7107,-6.941198E-05
325.8107,-6.936018E-05
325.9107,-6.933852E-05
326.0107,-6.930839E-05
326.1107,-6.926601E-05
326.2107,-6.922175E-05
326.3107,-6.918973E-05
326.4107,-6.919256E-05
326.5107,-6.910309E-05
326.6107,-6.90852E-05
326.7107,-6.910875E-05
326.8107,-6.908803E-05
326.9107,-6.901364E-05
327.0107,-6.901269E-05
327.1107,-6.901834E-05
327.2108,-6.89364E-05
327.3108,-6.894018E-05
327.4108,-6.894771E-05
327.5108,-6.883187E-05
327.6108,-6.882152E-05
327.7108,-6.886012E-05
327.8108,-6.881211E-05
327.9108,-6.876972E-05
328.0108,-6.874806E-05
328.1108,-6.87556E-05
328.2108,-6.86812E-05
328.3108,-6.862282E-05
328.4108,-6.862093E-05
328.5108,-6.857102E-05
328.6108,-6.853523E-05
328.7108,-6.849285E-05
328.8109,-6.849379E-05
328.9109,-6.847591E-05
329.0109,-6.841375E-05
329.1109,-6.837608E-05
329.2109,-6.835253E-05
329.3109,-6.829508E-05
329.4109,-6.824989E-05
329.5109,-6.818396E-05
329.6109,-6.820657E-05
329.7109,-6.813028E-05
329.8109,-6.809921E-05
329.9109,-6.809168E-05
330.0109,-6.805777E-05
330.1109,-6.800221E-05
330.2109,-6.795135E-05
330.3109,-6.796737E-05
330.4109,-6.791275E-05
330.511,-6.785342E-05
330.611,-6.784024E-05
330.711,-6.781951E-05
330.811,-6.776207E-05
330.911,-6.772535E-05
331.011,-6.768485E-05
331.111,-6.766978E-05
331.211,-6.766036E-05
331.311,-6.75982E-05
331.411,-6.756995E-05
331.511,-6.755018E-05
331.611,-6.751722E-05
331.711,-6.746448E-05
331.811,-6.741457E-05
331.911,-6.743247E-05
332.011,-6.736371E-05
332.1111,-6.729403E-05
332.2111,-6.730721E-05
332.3111,-6.728649E-05
332.4111,-6.719044E-05
332.5111,-6.717726E-05
332.6111,-6.71669E-05
332.7111,-6.711134E-05
332.8111,-6.705953E-05
332.9111,-6.708025E-05
333.0111,-6.705483E-05
333.1111,-6.700114E-05
333.2111,-6.700209E-05
333.3111,-6.695501E-05
333.4111,-6.692298E-05
333.5111,-6.689379E-05
333.6111,-6.684953E-05
333.7112,-6.680715E-05
333.8112,-6.681375E-05
333.9112,-6.679585E-05
334.0112,-6.674218E-05
334.1112,-6.673935E-05
334.2112,-6.674406E-05
334.3112,-6.66706E-05
334.4112,-6.664517E-05
334.5112,-6.664517E-05
334.6112,-6.658867E-05
334.7112,-6.653876E-05
334.8112,-6.653218E-05
334.9112,-6.649262E-05
335.0112,-6.644176E-05
335.1112,-6.640315E-05
335.2112,-6.637207E-05
335.3112,-6.634006E-05
335.4113,-6.632028E-05
335.5113,-6.624588E-05
335.6113,-6.623364E-05
335.7113,-6.621292E-05
335.8113,-6.618373E-05
335.9113,-6.6147E-05
336.0113,-6.611592E-05
336.1113,-6.611027E-05
336.2113,-6.603211E-05
336.3113,-6.603306E-05
336.4113,-6.601986E-05
336.5113,-6.596996E-05
336.6113,-6.592569E-05
336.7113,-6.592664E-05
336.8113,-6.588049E-05
336.9113,-6.583623E-05
337.0114,-6.583152E-05
337.1114,-6.581175E-05
337.2114,-6.578631E-05
337.3114,-6.574299E-05
337.4114,-6.570533E-05
337.5114,-6.567989E-05
337.6114,-6.565918E-05
337.7114,-6.560173E-05
337.8114,-6.558008E-05
337.9114,-6.557442E-05
338.0114,-6.55377E-05
338.1114,-6.548308E-05
338.2114,-6.544824E-05
338.3114,-6.542752E-05
338.4114,-6.538043E-05
338.5114,-6.53277E-05
338.6115,-6.533993E-05
338.7115,-6.528814E-05
338.8115,-6.524859E-05
338.9115,-6.5242E-05
339.0115,-6.522222E-05
339.1115,-6.515913E-05
339.2115,-6.514029E-05
339.3115,-6.514783E-05
339.4115,-6.506589E-05
339.5115,-6.505553E-05
339.6115,-6.503105E-05
339.7115,-6.499056E-05
339.8115,-6.493781E-05
339.9115,-6.492557E-05
340.0115,-6.488414E-05
340.1115,-6.486342E-05
340.2115,-6.485118E-05
340.3116,-6.47862E-05
340.4116,-6.474759E-05
340.5116,-6.474947E-05
340.6116,-6.47071E-05
340.7116,-6.465812E-05
340.8116,-6.466283E-05
340.9116,-6.462517E-05
341.0116,-6.456584E-05
341.1116,-6.451781E-05
341.2116,-6.456207E-05
341.3116,-6.450085E-05
341.4116,-6.444811E-05
341.5116,-6.446601E-05
341.6116,-6.445942E-05
341.7116,-6.436901E-05
341.8116,-6.434642E-05
341.9117,-6.436148E-05
342.0117,-6.432287E-05
342.1117,-6.427483E-05
342.2117,-6.423717E-05
342.3117,-6.42221E-05
342.4117,-6.420798E-05
342.5117,-6.416936E-05
342.6117,-6.410439E-05
342.7117,-6.408273E-05
342.8117,-6.409497E-05
342.9117,-6.401116E-05
343.0117,-6.396501E-05
343.1117,-6.398855E-05
343.2117,-6.395088E-05
343.3117,-6.388778E-05
343.4117,-6.38699E-05
343.5117,-6.385765E-05
343.6118,-6.37889E-05
343.7118,-6.374653E-05
343.8118,-6.377101E-05
343.9118,-6.374182E-05
344.0118,-6.36759E-05
344.1118,-6.365612E-05
344.2118,-6.364294E-05
344.3118,-6.36015E-05
344.4118,-6.357043E-05
344.5118,-6.355536E-05
344.6118,-6.352804E-05
344.7118,-6.349886E-05
344.8118,-6.344612E-05
344.9118,-6.341692E-05
345.0118,-6.339997E-05
345.1118,-6.337925E-05
345.2119,-6.333311E-05
345.3119,-6.329449E-05
345.4119,-6.330769E-05
345.5119,-6.325871E-05
345.6119,-6.321822E-05
345.7119,-6.320786E-05
345.8119,-6.320032E-05
345.9119,-6.313063E-05
346.0119,-6.311275E-05
346.1119,-6.310238E-05
346.2119,-6.307601E-05
346.3119,-6.303552E-05
346.4119,-6.300727E-05
346.5119,-6.299126E-05
346.6119,-6.293758E-05
346.7119,-6.289897E-05
346.812,-6.290462E-05
346.912,-6.286036E-05
347.012,-6.282835E-05
347.112,-6.278408E-05
347.212,-6.276053E-05
347.312,-6.274453E-05
347.412,-6.270121E-05
347.512,-6.265129E-05
347.612,-6.265789E-05
347.712,-6.263246E-05
347.812,-6.258537E-05
347.912,-6.25317E-05
348.012,-6.256748E-05
348.112,-6.253075E-05
348.212,-6.248649E-05
348.312,-6.247896E-05
348.412,-6.244505E-05
348.5121,-6.241775E-05
348.6121,-6.238667E-05
348.7121,-6.236971E-05
348.8121,-6.231227E-05
348.9121,-6.231792E-05
349.0121,-6.230379E-05
349.1121,-6.22294E-05
349.2121,-6.219173E-05
349.3121,-6.220491E-05
349.4121,-6.219456E-05
349.5121,-6.213993E-05
349.6121,-6.212298E-05
349.7121,-6.214652E-05
349.8121,-6.208437E-05
349.9121,-6.204764E-05
350.0121,-6.20307E-05
350.1122,-6.200621E-05
350.2122,-6.198643E-05
350.3122,-6.194312E-05
350.4122,-6.192616E-05
350.5122,-6.191674E-05
350.6122,-6.187907E-05
350.7122,-6.182163E-05
350.8122,-6.183481E-05
350.9122,-6.179149E-05
351.0122,-6.173499E-05
351.1122,-6.171804E-05
351.2122,-6.172651E-05
351.3122,-6.167754E-05
351.4122,-6.164081E-05
351.5122,-6.16314E-05
351.6122,-6.161162E-05
351.7122,-6.155229E-05
351.8123,-6.152969E-05
351.9123,-6.154005E-05
352.0123,-6.151463E-05
352.1123,-6.145624E-05
352.2123,-6.144776E-05
352.3123,-6.142045E-05
352.4123,-6.138937E-05
352.5123,-6.133946E-05
352.6123,-6.131498E-05
352.7123,-6.128578E-05
352.8123,-6.126224E-05
352.9123,-6.126412E-05
353.0123,-6.123587E-05
353.1123,-6.118784E-05
353.2123,-6.116901E-05
353.3123,-6.115865E-05
353.4124,-6.110215E-05
353.5124,-6.108049E-05
353.6124,-6.107201E-05
353.7124,-6.103434E-05
353.8124,-6.098254E-05
353.9124,-6.096654E-05
354.0124,-6.096842E-05
354.1124,-6.093452E-05
354.2124,-6.09025E-05
354.3124,-6.09025E-05
354.4124,-6.085918E-05
354.5124,-6.086295E-05
354.6124,-6.083187E-05
354.7124,-6.07942E-05
354.8124,-6.076595E-05
354.9124,-6.075371E-05
355.0125,-6.06972E-05
355.1125,-6.064258E-05
355.2125,-6.06341E-05
355.3125,-6.062469E-05
355.4125,-6.057195E-05
355.5125,-6.053899E-05
355.6125,-6.054558E-05
355.7125,-6.050415E-05
355.8125,-6.050509E-05
355.9125,-6.045329E-05
356.0125,-6.042504E-05
356.1125,-6.039867E-05
356.2125,-6.036477E-05
356.3125,-6.035535E-05
356.4125,-6.031392E-05
356.5125,-6.028661E-05
356.6125,-6.024235E-05
356.7126,-6.02527E-05
356.8126,-6.021409E-05
356.9126,-6.017078E-05
357.0126,-6.014723E-05
357.1126,-6.014346E-05
357.2126,-6.009167E-05
357.3126,-6.006247E-05
357.4126,-6.004364E-05
357.5126,-6.002951E-05
357.6126,-6.000032E-05
357.7126,-5.996265E-05
357.8126,-5.993628E-05
357.9126,-5.992404E-05
358.0126,-5.99005E-05
358.1126,-5.988449E-05
358.2126,-5.984117E-05
358.3127,-5.98487E-05
358.4127,-5.98148E-05
358.5127,-5.976959E-05
358.6127,-5.977336E-05
358.7127,-5.976771E-05
358.8127,-5.96952E-05
358.9127,-5.967542E-05
359.0127,-5.968767E-05
359.1127,-5.963681E-05
359.2127,-5.957748E-05
359.3127,-5.95982E-05
359.4127,-5.957372E-05
359.5127,-5.948425E-05
359.6127,-5.950214E-05
359.7127,-5.950591E-05
359.8127,-5.944187E-05
359.9128,-5.939761E-05
360.0128,-5.940138E-05
360.1128,-5.942775E-05
360.2128,-5.93703E-05
360.3128,-5.936088E-05
360.4128,-5.934111E-05
360.5128,-5.931756E-05
360.6128,-5.930344E-05
360.7128,-5.925729E-05
360.8128,-5.921868E-05
360.9128,-5.924411E-05
361.0128,-5.922716E-05
361.1128,-5.919043E-05
361.2128,-5.91829E-05
361.3128,-5.919137E-05
361.4128,-5.914523E-05
361.5128,-5.90859E-05
361.6129,-5.909249E-05
361.7129,-5.906895E-05
361.8129,-5.899832E-05
361.9129,-5.898796E-05
362.0129,-5.895877E-05
362.1129,-5.89258E-05
362.2129,-5.891356E-05
362.3129,-5.888908E-05
362.4129,-5.883916E-05
362.5129,-5.883822E-05
362.6129,-5.879867E-05
362.7129,-5.875347E-05
362.8129,-5.8761E-05
362.9129,-5.876477E-05
363.0129,-5.869508E-05
363.1129,-5.867719E-05
363.213,-5.866212E-05
363.313,-5.86367E-05
363.413,-5.862163E-05
363.513,-5.858961E-05
363.613,-5.8551E-05
363.713,-5.853499E-05
363.813,-5.852368E-05
363.913,-5.848884E-05
364.013,-5.846153E-05
364.113,-5.845306E-05
364.213,-5.842857E-05
364.313,-5.837018E-05
364.413,-5.837018E-05
364.513,-5.836453E-05
364.613,-5.829578E-05
364.713,-5.829767E-05
364.813,-5.826471E-05
364.9131,-5.824964E-05
365.0131,-5.823269E-05
365.1131,-5.82374E-05
365.2131,-5.823175E-05
365.3131,-5.817901E-05
365.4131,-5.818561E-05
365.5131,-5.816583E-05
365.6131,-5.811309E-05
365.7131,-5.809614E-05
365.8131,-5.80547E-05
365.9131,-5.806035E-05
366.0131,-5.803399E-05
366.1131,-5.80208E-05
366.2131,-5.79577E-05
366.3131,-5.79756E-05
366.4131,-5.798784E-05
366.5132,-5.792004E-05
366.6132,-5.788707E-05
366.7132,-5.790685E-05
366.8132,-5.790026E-05
366.9132,-5.783905E-05
367.0132,-5.784752E-05
367.1132,-5.784941E-05
367.2132,-5.779949E-05
367.3132,-5.77929E-05
367.4132,-5.775429E-05
367.5132,-5.773734E-05
367.6132,-5.773357E-05
367.7132,-5.770909E-05
367.8132,-5.768649E-05
367.9132,-5.766577E-05
368.0132,-5.763469E-05
368.1133,-5.762433E-05
368.2133,-5.756595E-05
368.3133,-5.755276E-05
368.4133,-5.751038E-05
368.5133,-5.749908E-05
368.6133,-5.747554E-05
368.7133,-5.745105E-05
368.8133,-5.741903E-05
368.9133,-5.742092E-05
369.0133,-5.737383E-05
369.1133,-5.735029E-05
369.2133,-5.737195E-05
369.3133,-5.735405E-05
369.4133,-5.729472E-05
369.5133,-5.729944E-05
369.6133,-5.729284E-05
369.7133,-5.725706E-05
369.8134,-5.722221E-05
369.9134,-5.720621E-05
370.0134,-5.719773E-05
370.1134,-5.715535E-05
370.2134,-5.713181E-05
370.3134,-5.711109E-05
370.4134,-5.711297E-05
370.5134,-5.708189E-05
370.6134,-5.707719E-05
370.7134,-5.70301E-05
370.8134,-5.703292E-05
370.9134,-5.699902E-05
371.0134,-5.694534E-05
371.1134,-5.693687E-05
371.2134,-5.693499E-05
371.3134,-5.690956E-05
371.4135,-5.685211E-05
371.5135,-5.686624E-05
371.6135,-5.685211E-05
371.7135,-5.679938E-05
371.8135,-5.680973E-05
371.9135,-5.682292E-05
372.0135,-5.675982E-05
372.1135,-5.67278E-05
372.2135,-5.673345E-05
372.3135,-5.668071E-05
372.4135,-5.664211E-05
372.5135,-5.666659E-05
372.6135,-5.663457E-05
372.7135,-5.658466E-05
372.8135,-5.658843E-05
372.9135,-5.655547E-05
373.0135,-5.651874E-05
373.1136,-5.652533E-05
373.2136,-5.648766E-05
373.3136,-5.645282E-05
373.4136,-5.645753E-05
373.5136,-5.642833E-05
373.6136,-5.63982E-05
373.7136,-5.64095E-05
373.8136,-5.639443E-05
373.9136,-5.635205E-05
374.0136,-5.634169E-05
374.1136,-5.635582E-05
374.2136,-5.633134E-05
374.3136,-5.628331E-05
374.4136,-5.632004E-05
374.5136,-5.630685E-05
374.6136,-5.623622E-05
374.7137,-5.623057E-05
374.8137,-5.625317E-05
374.9137,-5.619007E-05
375.0137,-5.613168E-05
375.1137,-5.61703E-05
375.2137,-5.614016E-05
375.3137,-5.604882E-05
375.4137,-5.603563E-05
375.5137,-5.608554E-05
375.6137,-5.60328E-05
375.7137,-5.598101E-05
375.8137,-5.599419E-05
375.9137,-5.600079E-05
376.0137,-5.593863E-05
376.1137,-5.592922E-05
376.2137,-5.594334E-05
376.3138,-5.592074E-05
376.4138,-5.589249E-05
376.5138,-5.587553E-05
376.6138,-5.58972E-05
376.7138,-5.586141E-05
376.8138,-5.583598E-05
376.9138,-5.582657E-05
377.0138,-5.581998E-05
377.1138,-5.579643E-05
377.2138,-5.575782E-05
377.3138,-5.57258E-05
377.4138,-5.573522E-05
377.5138,-5.568531E-05
377.6138,-5.566365E-05
377.7138,-5.566553E-05
377.8138,-5.564387E-05
377.9138,-5.560244E-05
378.0139,-5.56175E-05
378.1139,-5.558925E-05
378.2139,-5.555064E-05
378.3139,-5.556759E-05
378.4139,-5.55431E-05
378.5139,-5.549319E-05
378.6139,-5.546494E-05
378.7139,-5.547624E-05
378.8139,-5.548189E-05
378.9139,-5.541315E-05
379.0139,-5.538866E-05
379.1139,-5.539714E-05
379.2139,-5.535287E-05
379.3139,-5.530861E-05
379.4139,-5.532839E-05
379.5139,-5.532462E-05
379.614,-5.527E-05
379.714,-5.525682E-05
379.814,-5.525211E-05
379.914,-5.522009E-05
380.014,-5.519749E-05
380.114,-5.516924E-05
380.214,-5.517583E-05
380.314,-5.517206E-05
380.414,-5.516547E-05
380.514,-5.515323E-05
380.614,-5.510897E-05
380.714,-5.510708E-05
380.814,-5.512027E-05
380.914,-5.507036E-05
381.014,-5.506094E-05
381.114,-5.505717E-05
381.2141,-5.501197E-05
381.3141,-5.498654E-05
381.4141,-5.493192E-05
381.5141,-5.493569E-05
381.6141,-5.493381E-05
381.7141,-5.489237E-05
381.8141,-5.486223E-05
381.9141,-5.483398E-05
382.0141,-5.484246E-05
382.1141,-5.480856E-05
382.2141,-5.477371E-05
382.3141,-5.476053E-05
382.4141,-5.47398E-05
382.5141,-5.472945E-05
382.6141,-5.472286E-05
382.7141,-5.469272E-05
382.8141,-5.465411E-05
382.9142,-5.467672E-05
383.0142,-5.464375E-05
383.1142,-5.458819E-05
383.2142,-5.459384E-05
383.3142,-5.458913E-05
383.4142,-5.453168E-05
383.5142,-5.450908E-05
383.6142,-5.451568E-05
383.7142,-5.451003E-05
383.8142,-5.446294E-05
383.9142,-5.443657E-05
384.0142,-5.444693E-05
384.1142,-5.441585E-05
384.2142,-5.438854E-05
384.3142,-5.438384E-05
384.4142,-5.438007E-05
384.5143,-5.433204E-05
384.6143,-5.432357E-05
384.7143,-5.431038E-05
384.8143,-5.432074E-05
384.9143,-5.4268E-05
385.0143,-5.428307E-05
385.1143,-5.426894E-05
385.2143,-5.42454E-05
385.3143,-5.420585E-05
385.4143,-5.420679E-05
385.5143,-5.419266E-05
385.6143,-5.414934E-05
385.7143,-5.410791E-05
385.8143,-5.413334E-05
385.9143,-5.409755E-05
386.0143,-5.404669E-05
386.1143,-5.406553E-05
386.2144,-5.406365E-05
386.3144,-5.401091E-05
386.4144,-5.401468E-05
386.5144,-5.404764E-05
386.6144,-5.402033E-05
386.7144,-5.39836E-05
386.8144,-5.398548E-05
386.9144,-5.40175E-05
387.0144,-5.397889E-05
387.1144,-5.391956E-05
387.2144,-5.39431E-05
387.3144,-5.395629E-05
387.4144,-5.393745E-05
387.5144,-5.39431E-05
387.6144,-5.392427E-05
387.7144,-5.391485E-05
387.8145,-5.388566E-05
387.9145,-5.387624E-05
388.0145,-5.383198E-05
388.1145,-5.381032E-05
388.2145,-5.379996E-05
388.3145,-5.375193E-05
388.4145,-5.374157E-05
388.5145,-5.373875E-05
388.6145,-5.371897E-05
388.7145,-5.371614E-05
388.8145,-5.365305E-05
388.9145,-5.365305E-05
389.0145,-5.362762E-05
389.1145,-5.361256E-05
389.2145,-5.361162E-05
389.3145,-5.358242E-05
389.4146,-5.357394E-05
389.5146,-5.353816E-05
389.6146,-5.35052E-05
389.7146,-5.352403E-05
389.8146,-5.349013E-05
389.9146,-5.34534E-05
390.0146,-5.34647E-05
390.1146,-5.345435E-05
390.2146,-5.339878E-05
390.3146,-5.339596E-05
390.4146,-5.337807E-05
390.5146,-5.336488E-05
390.6146,-5.336676E-05
390.7146,-5.335075E-05
390.8146,-5.33404E-05
390.9146,-5.329237E-05
391.0146,-5.333098E-05
391.1147,-5.329425E-05
391.2147,-5.326035E-05
391.3147,-5.32773E-05
391.4147,-5.328295E-05
391.5147,-5.325941E-05
391.6147,-5.320667E-05
391.7147,-5.322268E-05
391.8147,-5.322739E-05
391.9147,-5.32029E-05
392.0147,-5.3169E-05
392.1147,-5.318689E-05
392.2147,-5.315488E-05
392.3147,-5.312474E-05
392.4147,-5.312097E-05
392.5147,-5.311815E-05
392.6147,-5.307954E-05
392.7148,-5.306729E-05
392.8148,-5.305128E-05
392.9148,-5.305505E-05
393.0148,-5.302021E-05
393.1148,-5.298065E-05
393.2148,-5.2975E-05
393.3148,-5.29703E-05
393.4148,-5.292039E-05
393.5148,-5.293545E-05
393.6148,-5.291944E-05
393.7148,-5.286765E-05
393.8148,-5.287518E-05
393.9148,-5.287895E-05
394.0148,-5.283563E-05
394.1148,-5.282244E-05
394.2148,-5.281397E-05
394.3148,-5.282056E-05
394.4149,-5.276311E-05
394.5149,-5.277724E-05
394.6149,-5.278101E-05
394.7149,-5.277159E-05
394.8149,-5.272827E-05
394.9149,-5.271791E-05
395.0149,-5.273298E-05
395.1149,-5.270002E-05
395.2149,-5.266046E-05
395.3149,-5.267271E-05
395.4149,-5.264728E-05
395.5149,-5.262562E-05
395.6149,-5.261809E-05
395.7149,-5.260679E-05
395.8149,-5.258042E-05
395.9149,-5.258042E-05
396.015,-5.257194E-05
396.115,-5.258042E-05
396.215,-5.253051E-05
396.315,-5.250602E-05
396.415,-5.250226E-05
396.515,-5.251732E-05
396.615,-5.245328E-05
396.715,-5.243539E-05
396.815,-5.246458E-05
396.915,-5.239961E-05
397.015,-5.237418E-05
397.115,-5.238924E-05
397.215,-5.238736E-05
397.315,-5.230732E-05
397.415,-5.23092E-05
397.515,-5.233463E-05
397.6151,-5.229319E-05
397.7151,-5.226682E-05
397.8151,-5.227435E-05
397.9151,-5.226776E-05
398.0151,-5.225552E-05
398.1151,-5.223763E-05
398.2151,-5.222727E-05
398.3151,-5.223104E-05
398.4151,-5.219055E-05
398.5151,-5.218207E-05
398.6151,-5.217453E-05
398.7151,-5.215005E-05
398.8151,-5.216135E-05
398.9151,-5.214722E-05
399.0151,-5.212745E-05
399.1151,-5.210108E-05
399.2151,-5.207659E-05
399.3152,-5.209166E-05
399.4152,-5.207376E-05
399.5152,-5.202574E-05
399.6152,-5.20069E-05
399.7152,-5.205117E-05
399.8152,-5.202103E-05
399.9152,-5.199466E-05
400.0152,-5.198807E-05
400.1152,-5.201538E-05
400.2152,-5.198336E-05
400.3152,-5.193816E-05
400.4152,-5.195417E-05
400.5152,-5.193533E-05
400.6152,-5.189201E-05
400.7152,-5.188824E-05
400.8152,-5.187977E-05
400.9153,-5.184681E-05
401.0153,-5.183174E-05
401.1153,-5.181385E-05
401.2153,-5.180349E-05
401.3153,-5.180255E-05
401.4153,-5.178842E-05
401.5153,-5.17743E-05
401.6153,-5.176112E-05
401.7153,-5.17743E-05
401.8153,-5.174699E-05
401.9153,-5.170931E-05
402.0153,-5.174322E-05
402.1153,-5.171591E-05
402.2153,-5.168483E-05
402.3153,-5.168671E-05
402.4153,-5.167353E-05
402.5154,-5.163492E-05
402.6154,-5.163492E-05
402.7154,-5.164905E-05
402.8154,-5.161232E-05
402.9154,-5.158501E-05
403.0154,-5.16029E-05
403.1154,-5.155958E-05
403.2154,-5.15464E-05
403.3154,-5.154169E-05
403.4154,-5.153416E-05
403.5154,-5.150402E-05
403.6154,-5.149178E-05
403.7154,-5.148236E-05
403.8154,-5.14607E-05
403.9154,-5.145034E-05
404.0154,-5.141455E-05
404.1154,-5.142115E-05
404.2155,-5.142962E-05
404.3155,-5.138348E-05
404.4155,-5.135711E-05
404.5155,-5.136558E-05
404.6155,-5.136841E-05
404.7155,-5.132886E-05
404.8155,-5.130626E-05
404.9155,-5.133827E-05
405.0155,-5.131473E-05
405.1155,-5.126388E-05
405.2155,-5.128271E-05
405.3155,-5.127423E-05
405.4155,-5.121585E-05
405.5155,-5.121773E-05
405.6155,-5.124033E-05
405.7155,-5.118666E-05
405.8156,-5.116971E-05
405.9156,-5.119325E-05
406.0156,-5.11584E-05
406.1156,-5.113769E-05
406.2156,-5.115746E-05
406.3156,-5.114993E-05
406.4156,-5.11019E-05
406.5156,-5.111508E-05
406.6156,-5.111038E-05
406.7156,-5.109625E-05
406.8156,-5.105858E-05
406.9156,-5.107835E-05
407.0156,-5.104634E-05
407.1156,-5.103033E-05
407.2156,-5.104539E-05
407.3156,-5.103221E-05
407.4156,-5.100678E-05
407.5157,-5.101056E-05
407.6157,-5.098795E-05
407.7157,-5.097382E-05
407.8157,-5.097759E-05
407.9157,-5.095687E-05
408.0157,-5.093804E-05
408.1157,-5.093898E-05
408.2157,-5.092956E-05
408.3157,-5.090131E-05
408.4157,-5.08853E-05
408.5157,-5.088342E-05
408.6157,-5.088248E-05
408.7157,-5.082974E-05
408.8157,-5.083633E-05
408.9157,-5.081844E-05
409.0157,-5.080996E-05
409.1158,-5.079678E-05
409.2158,-5.0777E-05
409.3158,-5.076099E-05
409.4158,-5.075723E-05
409.5158,-5.071108E-05
409.6158,-5.071862E-05
409.7158,-5.072615E-05
409.8158,-5.068848E-05
409.9158,-5.067718E-05
410.0158,-5.066588E-05
410.1158,-5.066023E-05
410.2158,-5.063574E-05
410.3158,-5.062727E-05
410.4158,-5.061408E-05
410.5158,-5.057924E-05
410.6158,-5.057924E-05
410.7159,-5.058301E-05
410.8159,-5.053404E-05
410.9159,-5.051614E-05
411.0159,-5.055099E-05
411.1159,-5.056794E-05
411.2159,-5.050201E-05
411.3159,-5.053216E-05
411.4159,-5.054157E-05
411.5159,-5.049542E-05
411.6159,-5.050484E-05
411.7159,-5.049448E-05
411.8159,-5.047E-05
411.9159,-5.047942E-05
412.0159,-5.048036E-05
412.1159,-5.042668E-05
412.2159,-5.04248E-05
412.3159,-5.044175E-05
412.416,-5.041067E-05
412.516,-5.037959E-05
412.616,-5.037017E-05
412.716,-5.038618E-05
412.816,-5.035228E-05
412.916,-5.033439E-05
413.016,-5.031367E-05
413.116,-5.030896E-05
413.216,-5.030143E-05
413.316,-5.029201E-05
413.416,-5.030143E-05
413.516,-5.026847E-05
413.616,-5.025811E-05
413.716,-5.025529E-05
413.816,-5.025152E-05
413.916,-5.022609E-05
414.0161,-5.021197E-05
414.1161,-5.021008E-05
414.2161,-5.020537E-05
414.3161,-5.018371E-05
414.4161,-5.017241E-05
414.5161,-5.016771E-05
414.6161,-5.013286E-05
414.7161,-5.012438E-05
414.8161,-5.011497E-05
414.9161,-5.009519E-05
415.0161,-5.004716E-05
415.1161,-5.00594E-05
415.2161,-5.005281E-05
415.3161,-5.000667E-05
415.4161,-5.000478E-05
415.5161,-5.001985E-05
415.6161,-4.998972E-05
415.7162,-4.998124E-05
415.8162,-4.995487E-05
415.9162,-4.995864E-05
416.0162,-4.996052E-05
416.1162,-4.99464E-05
416.2162,-4.993509E-05
416.3162,-4.993792E-05
416.4162,-4.992944E-05
416.5162,-4.990873E-05
416.6162,-4.987765E-05
416.7162,-4.987577E-05
416.8162,-4.9872E-05
416.9162,-4.98494E-05
417.0162,-4.985222E-05
417.1162,-4.981455E-05
417.2162,-4.980231E-05
417.3163,-4.97863E-05
417.4163,-4.978536E-05
417.5163,-4.975428E-05
417.6163,-4.973827E-05
417.7163,-4.979007E-05
417.8163,-4.97185E-05
417.9163,-4.969119E-05
418.0163,-4.971473E-05
418.1163,-4.971379E-05
418.2163,-4.965823E-05
418.3163,-4.966199E-05
418.4163,-4.965916E-05
418.5163,-4.965728E-05
418.6163,-4.962809E-05
418.7163,-4.959231E-05
418.8163,-4.957818E-05
418.9164,-4.958665E-05
419.0164,-4.958006E-05
419.1164,-4.952733E-05
419.2164,-4.953392E-05
419.3164,-4.955746E-05
419.4164,-4.951226E-05
419.5164,-4.946423E-05
419.6164,-4.952356E-05
419.7164,-4.951132E-05
419.8164,-4.941526E-05
419.9164,-4.945481E-05
420.0164,-4.947176E-05
420.1164,-4.940113E-05
420.2164,-4.937759E-05
420.3164,-4.940772E-05
420.4164,-4.938889E-05
420.5164,-4.939831E-05
420.6165,-4.936629E-05
420.7165,-4.936158E-05
420.8165,-4.935593E-05
420.9165,-4.934557E-05
421.0165,-4.932109E-05
421.1165,-4.929943E-05
421.2165,-4.93079E-05
421.3165,-4.928718E-05
421.4165,-4.924669E-05
421.5165,-4.92514E-05
421.6165,-4.924481E-05
421.7165,-4.920431E-05
421.8165,-4.921279E-05
421.9165,-4.919489E-05
422.0165,-4.915817E-05
422.1165,-4.91883E-05
422.2166,-4.920713E-05
422.3166,-4.913839E-05
422.4166,-4.916287E-05
422.5166,-4.916759E-05
422.6166,-4.911108E-05
422.7166,-4.909601E-05
422.8166,-4.911579E-05
422.9166,-4.91026E-05
423.0166,-4.90687E-05
423.1166,-4.905175E-05
423.2166,-4.908E-05
423.3166,-4.902632E-05
423.4166,-4.900561E-05
423.5166,-4.901785E-05
423.6166,-4.902444E-05
423.7166,-4.901126E-05
423.8167,-4.899242E-05
423.9167,-4.899524E-05
424.0167,-4.900279E-05
424.1167,-4.898018E-05
424.2167,-4.895098E-05
424.3167,-4.894628E-05
424.4167,-4.896417E-05
424.5167,-4.894345E-05
424.6167,-4.891332E-05
424.7167,-4.89265E-05
424.8167,-4.892273E-05
424.9167,-4.888036E-05
425.0167,-4.886906E-05
425.1167,-4.890484E-05
425.2167,-4.886717E-05
425.3167,-4.882385E-05
425.4167,-4.88474E-05
425.5168,-4.883515E-05
425.6168,-4.880125E-05
425.7168,-4.87956E-05
425.8168,-4.879654E-05
425.9168,-4.879278E-05
426.0168,-4.878995E-05
426.1168,-4.875228E-05
426.2168,-4.876076E-05
426.3168,-4.874286E-05
426.4168,-4.872214E-05
426.5168,-4.873815E-05
426.6168,-4.873156E-05
426.7168,-4.872591E-05
426.8168,-4.870236E-05
426.9168,-4.868353E-05
427.0168,-4.86939E-05
427.1169,-4.865999E-05
427.2169,-4.865999E-05
427.3169,-4.866941E-05
427.4169,-4.865057E-05
427.5169,-4.860349E-05
427.6169,-4.861573E-05
427.7169,-4.862232E-05
427.8169,-4.859407E-05
427.9169,-4.856487E-05
428.0169,-4.857806E-05
428.1169,-4.854887E-05
428.2169,-4.851873E-05
428.3169,-4.853097E-05
428.4169,-4.851967E-05
428.5169,-4.851214E-05
428.6169,-4.847824E-05
428.7169,-4.84999E-05
428.817,-4.850272E-05
428.917,-4.844716E-05
429.017,-4.844245E-05
429.117,-4.845564E-05
429.217,-4.844057E-05
429.317,-4.840384E-05
429.417,-4.841043E-05
429.517,-4.84142E-05
429.617,-4.839348E-05
429.717,-4.836617E-05
429.817,-4.839348E-05
429.917,-4.83624E-05
430.017,-4.834922E-05
430.117,-4.83577E-05
430.217,-4.836523E-05
430.317,-4.831249E-05
430.4171,-4.829271E-05
430.5171,-4.834828E-05
430.6171,-4.832473E-05
430.7171,-4.827294E-05
430.8171,-4.825693E-05
430.9171,-4.827011E-05
431.0171,-4.827011E-05
431.1171,-4.826352E-05
431.2171,-4.82315E-05
431.3171,-4.822679E-05
431.4171,-4.823245E-05
431.5171,-4.823527E-05
431.6171,-4.820702E-05
431.7171,-4.821079E-05
431.8171,-4.821832E-05
431.9171,-4.818065E-05
432.0172,-4.81637E-05
432.1172,-4.817029E-05
432.2172,-4.815899E-05
432.3172,-4.814863E-05
432.4172,-4.8175E-05
432.5172,-4.812885E-05
432.6172,-4.812791E-05
432.7172,-4.812697E-05
432.8172,-4.810531E-05
432.9172,-4.810154E-05
433.0172,-4.808742E-05
433.1172,-4.809119E-05
433.2172,-4.807329E-05
433.3172,-4.805069E-05
433.4172,-4.804504E-05
433.5172,-4.803186E-05
433.6172,-4.800455E-05
433.7173,-4.799701E-05
433.8173,-4.802715E-05
433.9173,-4.795652E-05
434.0173,-4.796217E-05
434.1173,-4.797818E-05
434.2173,-4.795181E-05
434.3173,-4.792544E-05
434.4173,-4.791979E-05
434.5173,-4.79245E-05
434.6173,-4.791132E-05
434.7173,-4.790378E-05
434.8173,-4.790566E-05
434.9173,-4.788306E-05
435.0173,-4.792167E-05
435.1173,-4.78906E-05
435.2173,-4.787835E-05
435.3174,-4.788118E-05
435.4174,-4.788965E-05
435.5174,-4.785952E-05
435.6174,-4.784257E-05
435.7174,-4.784822E-05
435.8174,-4.784539E-05
435.9174,-4.781432E-05
436.0174,-4.778794E-05
436.1174,-4.781526E-05
436.2174,-4.779266E-05
436.3174,-4.779454E-05
436.4174,-4.77484E-05
436.5174,-4.774651E-05
436.6174,-4.777288E-05
436.7174,-4.774745E-05
436.8174,-4.775405E-05
436.9174,-4.772862E-05
437.0175,-4.773898E-05
437.1175,-4.772014E-05
437.2175,-4.769001E-05
437.3175,-4.769189E-05
437.4175,-4.768718E-05
437.5175,-4.764292E-05
437.6175,-4.766458E-05
437.7175,-4.765799E-05
437.8175,-4.76175E-05
437.9175,-4.760431E-05
438.0175,-4.761844E-05
438.1175,-4.758171E-05
438.2175,-4.756287E-05
438.3175,-4.759866E-05
438.4175,-4.7577E-05
438.5175,-4.756852E-05
438.6176,-4.754122E-05
438.7176,-4.753274E-05
438.8176,-4.754404E-05
438.9176,-4.751861E-05
439.0176,-4.750354E-05
439.1176,-4.749601E-05
439.2176,-4.749978E-05
439.3176,-4.745363E-05
439.4176,-4.747247E-05
439.5176,-4.74913E-05
439.6176,-4.750072E-05
439.7176,-4.749601E-05
439.8176,-4.747058E-05
439.9176,-4.747906E-05
440.0176,-4.748377E-05
440.1176,-4.747058E-05
440.2177,-4.746493E-05
440.3177,-4.745269E-05
440.4177,-4.742726E-05
440.5177,-4.744892E-05
440.6177,-4.739995E-05
440.7177,-4.738394E-05
440.8177,-4.739148E-05
440.9177,-4.735852E-05
441.0177,-4.73086E-05
441.1177,-4.734722E-05
441.2177,-4.734345E-05
441.3177,-4.729448E-05
441.4177,-4.731143E-05
441.5177,-4.73039E-05
441.6177,-4.727376E-05
441.7177,-4.730578E-05
441.8177,-4.730013E-05
441.9178,-4.725116E-05
442.0178,-4.728035E-05
442.1178,-4.728035E-05
442.2178,-4.723327E-05
442.3178,-4.721726E-05
442.4178,-4.722856E-05
442.5178,-4.721067E-05
442.6178,-4.717582E-05
442.7178,-4.720125E-05
442.8178,-4.719089E-05
442.9178,-4.713815E-05
443.0178,-4.714851E-05
443.1178,-4.715605E-05
443.2178,-4.713815E-05
443.3178,-4.711273E-05
443.4178,-4.710896E-05
443.5179,-4.708165E-05
443.6179,-4.707411E-05
443.7179,-4.710237E-05
443.8179,-4.706941E-05
443.9179,-4.706376E-05
444.0179,-4.707883E-05
444.1179,-4.706753E-05
444.2179,-4.701479E-05
444.3179,-4.701572E-05
444.4179,-4.701008E-05
444.5179,-4.699878E-05
444.6179,-4.698936E-05
444.7179,-4.69903E-05
444.8179,-4.697618E-05
444.9179,-4.695263E-05
445.0179,-4.695452E-05
445.118,-4.694886E-05
445.218,-4.689707E-05
445.318,-4.69046E-05
445.418,-4.691214E-05
445.518,-4.687729E-05
445.618,-4.687823E-05
445.718,-4.688389E-05
445.818,-4.68481E-05
445.918,-4.685469E-05
446.018,-4.683869E-05
446.118,-4.68076E-05
446.218,-4.680478E-05
446.318,-4.68368E-05
446.418,-4.678218E-05
446.518,-4.675864E-05
446.618,-4.67624E-05
446.718,-4.677465E-05
446.8181,-4.673603E-05
446.9181,-4.675204E-05
447.0181,-4.673038E-05
447.1181,-4.672096E-05
447.2181,-4.670872E-05
447.3181,-4.67172E-05
447.4181,-4.668518E-05
447.5181,-4.666446E-05
447.6181,-4.668047E-05
447.7181,-4.665504E-05
447.8181,-4.663245E-05
447.9181,-4.666164E-05
448.0181,-4.663903E-05
448.1181,-4.662491E-05
448.2181,-4.662679E-05
448.3181,-4.662302E-05
448.4182,-4.661267E-05
448.5182,-4.659007E-05
448.6182,-4.658159E-05
448.7182,-4.657123E-05
448.8182,-4.659572E-05
448.9182,-4.661172E-05
449.0182,-4.657406E-05
449.1182,-4.658536E-05
449.2182,-4.659477E-05
449.3182,-4.658536E-05
449.4182,-4.655993E-05
449.5182,-4.657876E-05
449.6182,-4.657406E-05
449.7182,-4.652697E-05
449.8182,-4.65345E-05
449.9182,-4.653921E-05
450.0182,-4.649307E-05
450.1183,-4.650249E-05
450.2183,-4.649401E-05
450.3183,-4.646199E-05
450.4183,-4.645163E-05
450.5183,-4.644221E-05
450.6183,-4.645163E-05
450.7183,-4.642809E-05
450.8183,-4.641867E-05
450.9183,-4.64102E-05
451.0183,-4.64262E-05
451.1183,-4.638853E-05
451.2183,-4.637252E-05
451.3183,-4.638288E-05
451.4183,-4.638383E-05
451.5183,-4.636217E-05
451.6183,-4.633297E-05
451.7184,-4.638853E-05
451.8184,-4.635557E-05
451.9184,-4.633203E-05
452.0184,-4.634522E-05
452.1184,-4.634333E-05
452.2184,-4.632167E-05
452.3184,-4.629531E-05
452.4184,-4.631414E-05
452.5184,-4.631696E-05
452.6184,-4.6268E-05
452.7184,-4.627553E-05
452.8184,-4.625952E-05
452.9184,-4.625669E-05
453.0184,-4.62275E-05
453.1184,-4.622562E-05
453.2184,-4.62209E-05
453.3185,-4.624916E-05
453.4185,-4.621525E-05
453.5185,-4.617099E-05
453.6185,-4.620584E-05
453.7185,-4.620019E-05
453.8185,-4.617853E-05
453.9185,-4.614463E-05
454.0185,-4.618041E-05
454.1185,-4.615969E-05
454.2185,-4.611449E-05
454.3185,-4.613709E-05
454.4185,-4.612297E-05
454.5185,-4.610319E-05
454.6185,-4.608435E-05
454.7185,-4.611355E-05
454.8185,-4.60787E-05
454.9185,-4.607117E-05
455.0186,-4.60853E-05
455.1186,-4.6074E-05
455.2186,-4.605139E-05
455.3186,-4.602879E-05
455.4186,-4.603821E-05
455.5186,-4.605139E-05
455.6186,-4.600431E-05
455.7186,-4.599866E-05
455.8186,-4.601467E-05
455.9186,-4.60109E-05
456.0186,-4.59883E-05
456.1186,-4.596287E-05
456.2186,-4.601655E-05
456.3186,-4.596664E-05
456.4186,-4.596099E-05
456.5186,-4.595534E-05
456.6187,-4.596381E-05
456.7187,-4.593462E-05
456.8187,-4.591014E-05
456.9187,-4.594875E-05
457.0187,-4.59318E-05
457.1187,-4.590072E-05
457.2187,-4.591955E-05
457.3187,-4.589695E-05
457.4187,-4.587811E-05
457.5187,-4.586964E-05
457.6187,-4.58574E-05
457.7187,-4.585269E-05
457.8187,-4.584516E-05
457.9187,-4.58461E-05
458.0187,-4.582726E-05
458.1187,-4.581219E-05
458.2188,-4.58056E-05
458.3188,-4.582161E-05
458.4188,-4.580089E-05
458.5188,-4.578865E-05
458.6188,-4.580654E-05
458.7188,-4.581219E-05
458.8188,-4.573497E-05
458.9188,-4.576417E-05
459.0188,-4.576888E-05
459.1188,-4.575852E-05
459.2188,-4.573403E-05
459.3188,-4.573968E-05
459.4188,-4.572179E-05
459.5188,-4.573215E-05
459.6188,-4.571896E-05
459.7188,-4.570672E-05
459.8188,-4.574628E-05
459.9189,-4.571237E-05
460.0189,-4.569636E-05
460.1189,-4.570672E-05
460.2189,-4.569354E-05
460.3189,-4.566434E-05
460.4189,-4.566058E-05
460.5189,-4.568506E-05
460.6189,-4.568318E-05
460.7189,-4.565587E-05
460.8189,-4.566058E-05
460.9189,-4.565399E-05
461.0189,-4.56069E-05
461.1189,-4.563139E-05
461.2189,-4.563986E-05
461.3189,-4.557865E-05
461.4189,-4.559089E-05
461.519,-4.562008E-05
461.619,-4.55551E-05
461.719,-4.551932E-05
461.819,-4.558806E-05
461.919,-4.558053E-05
462.019,-4.551178E-05
462.119,-4.556075E-05
462.219,-4.557394E-05
462.319,-4.552873E-05
462.419,-4.551461E-05
462.519,-4.55325E-05
462.619,-4.550896E-05
462.719,-4.546658E-05
462.819,-4.551367E-05
462.919,-4.550425E-05
463.019,-4.54355E-05
463.119,-4.545246E-05
463.2191,-4.545716E-05
463.3191,-4.546564E-05
463.4191,-4.542703E-05
463.5191,-4.541008E-05
463.6191,-4.542326E-05
463.7191,-4.545528E-05
463.8191,-4.54016E-05
463.9191,-4.541102E-05
464.0191,-4.540819E-05
464.1191,-4.539501E-05
464.2191,-4.537052E-05
464.3191,-4.540914E-05
464.4191,-4.538559E-05
464.5191,-4.533945E-05
464.6191,-4.53498E-05
464.7191,-4.534415E-05
464.8192,-4.533568E-05
464.9192,-4.530083E-05
465.0192,-4.532438E-05
465.1192,-4.531873E-05
465.2192,-4.52933E-05
465.3192,-4.5282E-05
465.4192,-4.530366E-05
465.5192,-4.52933E-05
465.6192,-4.53159E-05
465.7192,-4.529424E-05
465.8192,-4.528859E-05
465.9192,-4.53225E-05
466.0192,-4.528765E-05
466.1192,-4.527447E-05
466.2192,-4.528577E-05
466.3192,-4.526882E-05
466.4193,-4.524245E-05
466.5193,-4.524527E-05
466.6193,-4.526128E-05
466.7193,-4.524527E-05
466.8193,-4.52076E-05
466.9193,-4.523962E-05
467.0193,-4.521514E-05
467.1193,-4.519253E-05
467.2193,-4.519631E-05
467.3193,-4.522079E-05
467.4193,-4.515769E-05
467.5193,-4.51398E-05
467.6193,-4.521419E-05
467.7193,-4.522456E-05
467.8193,-4.514733E-05
467.9193,-4.521702E-05
468.0193,-4.520854E-05
468.1194,-4.514262E-05
468.2194,-4.516334E-05
468.3194,-4.521231E-05
468.4194,-4.516428E-05
468.5194,-4.515863E-05
468.6194,-4.517465E-05
468.7194,-4.517088E-05
468.8194,-4.513886E-05
468.9194,-4.512944E-05
469.0194,-4.515015E-05
469.1194,-4.512191E-05
469.2194,-4.510025E-05
469.3194,-4.510307E-05
469.4194,-4.507388E-05
469.5194,-4.507482E-05
469.6194,-4.506729E-05
469.7195,-4.503997E-05
469.8195,-4.504939E-05
469.9195,-4.504186E-05
470.0195,-4.503715E-05
470.1195,-4.503244E-05
470.2195,-4.500984E-05
470.3195,-4.501549E-05
470.4195,-4.500325E-05
470.5195,-4.499383E-05
470.6195,-4.496652E-05
470.7195,-4.495804E-05
470.8195,-4.497594E-05
470.9195,-4.493827E-05
471.0195,-4.496464E-05
471.1195,-4.4975E-05
471.2195,-4.495051E-05
471.3195,-4.494863E-05
471.4196,-4.494769E-05
471.5196,-4.493921E-05
471.6196,-4.49232E-05
471.7196,-4.490719E-05
471.8196,-4.494015E-05
471.9196,-4.491378E-05
472.0196,-4.488553E-05
472.1196,-4.488647E-05
472.2196,-4.486293E-05
472.3196,-4.485822E-05
472.4196,-4.487423E-05
472.5196,-4.486575E-05
472.6196,-4.48262E-05
472.7196,-4.483562E-05
472.8196,-4.486011E-05
472.9196,-4.483939E-05
473.0197,-4.478759E-05
473.1197,-4.480737E-05
473.2197,-4.482526E-05
473.3197,-4.480077E-05
473.4197,-4.478759E-05
473.5197,-4.480077E-05
473.6197,-4.478382E-05
473.7197,-4.478665E-05
473.8197,-4.478476E-05
473.9197,-4.475463E-05
474.0197,-4.478382E-05
474.1197,-4.477911E-05
474.2197,-4.473674E-05
474.3197,-4.47292E-05
474.4197,-4.477064E-05
474.5197,-4.474239E-05
474.6198,-4.473109E-05
474.7198,-4.47358E-05
474.8198,-4.470095E-05
474.9198,-4.470472E-05
475.0198,-4.47245E-05
475.1198,-4.470754E-05
475.2198,-4.467647E-05
475.3198,-4.468683E-05
475.4198,-4.467835E-05
475.5198,-4.467176E-05
475.6198,-4.467176E-05
475.7198,-4.465387E-05
475.8198,-4.463691E-05
475.9198,-4.465293E-05
476.0198,-4.465481E-05
476.1198,-4.462091E-05
476.2198,-4.464068E-05
476.3199,-4.461431E-05
476.4199,-4.461149E-05
476.5199,-4.460584E-05
476.6199,-4.460207E-05
476.7199,-4.460301E-05
476.8199,-4.460301E-05
476.9199,-4.461055E-05
477.0199,-4.457664E-05
477.1199,-4.457193E-05
477.2199,-4.458041E-05
477.3199,-4.458606E-05
477.4199,-4.458324E-05
477.5199,-4.45531E-05
477.6199,-4.457193E-05
477.7199,-4.454463E-05
477.8199,-4.452579E-05
477.92,-4.453898E-05
478.02,-4.453709E-05
478.12,-4.452767E-05
478.22,-4.451355E-05
478.32,-4.450978E-05
478.42,-4.451826E-05
478.52,-4.45013E-05
478.62,-4.449283E-05
478.72,-4.449566E-05
478.82,-4.45079E-05
478.92,-4.448624E-05
479.02,-4.445799E-05
479.12,-4.446081E-05
479.22,-4.4474E-05
479.32,-4.445234E-05
479.42,-4.443444E-05
479.5201,-4.44561E-05
479.6201,-4.445893E-05
479.7201,-4.441655E-05
479.8201,-4.443726E-05
479.9201,-4.443162E-05
480.0201,-4.44222E-05
480.1201,-4.439772E-05
480.2201,-4.445516E-05
480.3201,-4.44222E-05
480.4201,-4.441561E-05
480.5201,-4.442409E-05
480.6201,-4.444951E-05
480.7201,-4.440054E-05
480.8201,-4.441184E-05
480.9201,-4.441184E-05
481.0201,-4.440336E-05
481.1201,-4.438359E-05
481.2202,-4.440148E-05
481.3202,-4.439678E-05
481.4202,-4.434215E-05
481.5202,-4.437511E-05
481.6202,-4.436381E-05
481.7202,-4.433368E-05
481.8202,-4.434686E-05
481.9202,-4.435346E-05
482.0202,-4.433744E-05
482.1202,-4.43026E-05
482.2202,-4.431484E-05
482.3202,-4.432237E-05
482.4202,-4.431673E-05
482.5202,-4.428942E-05
482.6202,-4.429977E-05
482.7202,-4.430166E-05
482.8203,-4.428377E-05
482.9203,-4.429695E-05
483.0203,-4.43478E-05
483.1203,-4.428659E-05
483.2203,-4.426116E-05
483.3203,-4.429601E-05
483.4203,-4.429318E-05
483.5203,-4.427999E-05
483.6203,-4.425363E-05
483.7203,-4.426116E-05
483.8203,-4.426681E-05
483.9203,-4.424516E-05
484.0203,-4.425457E-05
484.1203,-4.424986E-05
484.2203,-4.425551E-05
484.3203,-4.426305E-05
484.4203,-4.421785E-05
484.5204,-4.42169E-05
484.6204,-4.421785E-05
484.7204,-4.423385E-05
484.8204,-4.421031E-05
484.9204,-4.417923E-05
485.0204,-4.419807E-05
485.1204,-4.419807E-05
485.2204,-4.417829E-05
485.3204,-4.419054E-05
485.4204,-4.419712E-05
485.5204,-4.416887E-05
485.6204,-4.41425E-05
485.7204,-4.416605E-05
485.8204,-4.417076E-05
485.9204,-4.414816E-05
486.0204,-4.414816E-05
486.1205,-4.414439E-05
486.2205,-4.41491E-05
486.3205,-4.41086E-05
486.4205,-4.41152E-05
486.5205,-4.412744E-05
486.6205,-4.411331E-05
486.7205,-4.412273E-05
486.8205,-4.41265E-05
486.9205,-4.410578E-05
487.0205,-4.409448E-05
487.1205,-4.411425E-05
487.2205,-4.408883E-05
487.3205,-4.410012E-05
487.4205,-4.409542E-05
487.5205,-4.40973E-05
487.6205,-4.405022E-05
487.7206,-4.406434E-05
487.8206,-4.407658E-05
487.9206,-4.410012E-05
488.0206,-4.405869E-05
488.1206,-4.405964E-05
488.2206,-4.405869E-05
488.3206,-4.406152E-05
488.4206,-4.404551E-05
488.5206,-4.403327E-05
488.6206,-4.405304E-05
488.7206,-4.403986E-05
488.8206,-4.401349E-05
488.9206,-4.403609E-05
489.0206,-4.404739E-05
489.1206,-4.402196E-05
489.2206,-4.402761E-05
489.3206,-4.40003E-05
489.4207,-4.402008E-05
489.5207,-4.401632E-05
489.6207,-4.400596E-05
489.7207,-4.40003E-05
489.8207,-4.398335E-05
489.9207,-4.399842E-05
490.0207,-4.398241E-05
490.1207,-4.397393E-05
490.2207,-4.3973E-05
490.3207,-4.39617E-05
490.4207,-4.394945E-05
490.5207,-4.391461E-05
490.6207,-4.393815E-05
490.7207,-4.394003E-05
490.8207,-4.392214E-05
490.9207,-4.39099E-05
491.0208,-4.3876E-05
491.1208,-4.388824E-05
491.2208,-4.390707E-05
491.3208,-4.387129E-05
491.4208,-4.383644E-05
491.5208,-4.388541E-05
491.6208,-4.391649E-05
491.7208,-4.385528E-05
491.8208,-4.384774E-05
491.9208,-4.387505E-05
492.0208,-4.386564E-05
492.1208,-4.386658E-05
492.2208,-4.384397E-05
492.3208,-4.385528E-05
492.4208,-4.386658E-05
492.5208,-4.384397E-05
492.6208,-4.382703E-05
492.7209,-4.386658E-05
492.8209,-4.385245E-05
492.9209,-4.379689E-05
493.0209,-4.381102E-05
493.1209,-4.381572E-05
493.2209,-4.378653E-05
493.3209,-4.382043E-05
493.4209,-4.383079E-05
493.5209,-4.380348E-05
493.6209,-4.38016E-05
493.7209,-4.382232E-05
493.8209,-4.382891E-05
493.9209,-4.379972E-05
494.0209,-4.376204E-05
494.1209,-4.379501E-05
494.2209,-4.379783E-05
494.321,-4.379501E-05
494.421,-4.378935E-05
494.521,-4.376582E-05
494.621,-4.376958E-05
494.721,-4.375357E-05
494.821,-4.374981E-05
494.921,-4.374039E-05
495.021,-4.376676E-05
495.121,-4.375169E-05
495.221,-4.371496E-05
495.321,-4.374321E-05
495.421,-4.371402E-05
495.521,-4.372155E-05
495.621,-4.371402E-05
495.721,-4.370366E-05
495.821,-4.372155E-05
495.9211,-4.369424E-05
496.0211,-4.370366E-05
496.1211,-4.367352E-05
496.2211,-4.366787E-05
496.3211,-4.368482E-05
496.4211,-4.367164E-05
496.5211,-4.362644E-05
496.6211,-4.364527E-05
496.7211,-4.367635E-05
496.8211,-4.365375E-05
496.9211,-4.361043E-05
497.0211,-4.365751E-05
497.1211,-4.365563E-05
497.2211,-4.362832E-05
497.3211,-4.3682E-05
497.4211,-4.367447E-05
497.5211,-4.366034E-05
497.6212,-4.365751E-05
497.7212,-4.363115E-05
497.8212,-4.364715E-05
497.9212,-4.366128E-05
498.0212,-4.363774E-05
498.1212,-4.363868E-05
498.2212,-4.36189E-05
498.3212,-4.361702E-05
498.4212,-4.361043E-05
498.5212,-4.359065E-05
498.6212,-4.361043E-05
498.7212,-4.359442E-05
498.8212,-4.356899E-05
498.9212,-4.358124E-05
499.0212,-4.357653E-05
499.1212,-4.355487E-05
499.2213,-4.352944E-05
499.3213,-4.355581E-05
499.4213,-4.354639E-05
499.5213,-4.352284E-05
499.6213,-4.349647E-05
499.7213,-4.350966E-05
499.8213,-4.351155E-05
499.9213,-4.351249E-05
500.0213,-4.347953E-05
500.1213,-4.347858E-05
500.2213,-4.348706E-05
500.3213,-4.346258E-05
500.4213,-4.346163E-05
500.5213,-4.348706E-05
500.6213,-4.344657E-05
500.7213,-4.342773E-05
500.8214,-4.345787E-05
500.9214,-4.346163E-05
501.0214,-4.341455E-05
501.1214,-4.342396E-05
501.2214,-4.34362E-05
501.3214,-4.342679E-05
501.4214,-4.343244E-05
501.5214,-4.340984E-05
501.6214,-4.342302E-05
501.7214,-4.341737E-05
501.8214,-4.343432E-05
501.9214,-4.342208E-05
502.0214,-4.339383E-05
502.1214,-4.341361E-05
502.2214,-4.341172E-05
502.3214,-4.339854E-05
502.4214,-4.341737E-05
502.5215,-4.340607E-05
502.6215,-4.337405E-05
502.7215,-4.337876E-05
502.8215,-4.342585E-05
502.9215,-4.340231E-05
503.0215,-4.338724E-05
503.1215,-4.339383E-05
503.2215,-4.33684E-05
503.3215,-4.335427E-05
503.4215,-4.338535E-05
503.5215,-4.338159E-05
503.6215,-4.331849E-05
503.7215,-4.334109E-05
503.8215,-4.336652E-05
503.9215,-4.332696E-05
504.0215,-4.331096E-05
504.1216,-4.333544E-05
504.2216,-4.333544E-05
504.3216,-4.332885E-05
504.4216,-4.330813E-05
504.5216,-4.331755E-05
504.6216,-4.331001E-05
504.7216,-4.329777E-05
504.8216,-4.329495E-05
504.9216,-4.33006E-05
505.0216,-4.330154E-05
505.1216,-4.330248E-05
505.2216,-4.329871E-05
505.3216,-4.330625E-05
505.4216,-4.328741E-05
505.5216,-4.328176E-05
505.6216,-4.327329E-05
505.7216,-4.329118E-05
505.8217,-4.325163E-05
505.9217,-4.326952E-05
506.0217,-4.32667E-05
506.1217,-4.324504E-05
506.2217,-4.32149E-05
506.3217,-4.32601E-05
506.4217,-4.323562E-05
506.5217,-4.318948E-05
506.6217,-4.321301E-05
506.7217,-4.323656E-05
506.8217,-4.320172E-05
506.9217,-4.320454E-05
507.0217,-4.318853E-05
507.1217,-4.318665E-05
507.2217,-4.317535E-05
507.3217,-4.319136E-05
507.4218,-4.321019E-05
507.5218,-4.317629E-05
507.6218,-4.320266E-05
507.7218,-4.32036E-05
507.8218,-4.318948E-05
507.9218,-4.317064E-05
508.0218,-4.317346E-05
508.1218,-4.3181E-05
508.2218,-4.315934E-05
508.3218,-4.318382E-05
508.4218,-4.319701E-05
508.5218,-4.316405E-05
508.6218,-4.318759E-05
508.7218,-4.319324E-05
508.8218,-4.31857E-05
508.9218,-4.317441E-05
509.0219,-4.31471E-05
509.1219,-4.317723E-05
509.2219,-4.319701E-05
509.3219,-4.316028E-05
509.4219,-4.316781E-05
509.5219,-4.31697E-05
509.6219,-4.31857E-05
509.7219,-4.31471E-05
509.8219,-4.312732E-05
509.9219,-4.315275E-05
510.0219,-4.315086E-05
510.1219,-4.314898E-05
510.2219,-4.311979E-05
510.3219,-4.311319E-05
510.4219,-4.312732E-05
510.5219,-4.314616E-05
510.6219,-4.310943E-05
510.722,-4.309907E-05
510.822,-4.309812E-05
510.922,-4.308965E-05
511.022,-4.308024E-05
511.122,-4.307081E-05
511.222,-4.313109E-05
511.322,-4.309154E-05
511.422,-4.307269E-05
511.522,-4.308588E-05
511.622,-4.309436E-05
511.722,-4.305293E-05
511.822,-4.304539E-05
511.922,-4.306987E-05
512.022,-4.306705E-05
512.122,-4.306046E-05
512.222,-4.302843E-05
512.322,-4.305669E-05
512.4219,-4.305198E-05
512.5219,-4.302373E-05
512.6219,-4.30162E-05
512.7219,-4.30388E-05
512.8218,-4.30388E-05
512.9218,-4.300772E-05
513.0218,-4.300584E-05
513.1218,-4.302373E-05
513.2217,-4.300584E-05
513.3217,-4.2987E-05
513.4217,-4.301902E-05
513.5217,-4.301902E-05
513.6216,-4.299171E-05
513.7216,-4.300112E-05
513.8216,-4.301149E-05
513.9216,-4.2987E-05
514.0215,-4.299924E-05
514.1215,-4.297759E-05
514.2215,-4.295592E-05
514.3215,-4.297853E-05
514.4214,-4.297664E-05
514.5214,-4.295969E-05
514.6214,-4.293709E-05
514.7214,-4.296063E-05
514.8214,-4.294556E-05
514.9213,-4.288623E-05
515.0213,-4.29305E-05
515.1213,-4.29531E-05
515.2213,-4.291731E-05
515.3212,-4.289283E-05
515.4212,-4.290131E-05
515.5212,-4.290036E-05
515.6212,-4.289094E-05
515.7211,-4.291166E-05
515.8211,-4.289942E-05
515.9211,-4.288623E-05
516.0211,-4.289188E-05
516.121,-4.289188E-05
516.221,-4.289942E-05
516.321,-4.286552E-05
516.421,-4.284857E-05
516.5209,-4.287588E-05
516.6209,-4.285704E-05
516.7209,-4.285045E-05
516.8209,-4.28674E-05
516.9208,-4.285233E-05
517.0208,-4.284574E-05
517.1208,-4.282314E-05
517.2208,-4.283256E-05
517.3207,-4.285516E-05
517.4207,-4.281466E-05
517.5207,-4.281278E-05
517.6207,-4.282879E-05
517.7206,-4.282219E-05
517.8206,-4.281278E-05
517.9206,-4.280713E-05
518.0206,-4.283632E-05
518.1205,-4.280902E-05
518.2205,-4.282409E-05
518.3205,-4.282597E-05
518.4205,-4.277888E-05
518.5204,-4.279959E-05
518.6204,-4.281561E-05
518.7204,-4.280242E-05
518.8204,-4.276005E-05
518.9203,-4.280713E-05
519.0203,-4.281843E-05
519.1203,-4.274968E-05
519.2203,-4.276287E-05
519.3203,-4.277135E-05
519.4202,-4.279677E-05
519.5202,-4.274968E-05
519.6202,-4.274215E-05
519.7202,-4.274968E-05
519.8201,-4.27591E-05
519.9201,-4.27365E-05
520.0201,-4.272237E-05
520.1201,-4.273273E-05
520.22,-4.274027E-05
520.32,-4.27073E-05
520.42,-4.272143E-05
520.52,-4.274027E-05
520.6199,-4.268941E-05
520.7199,-4.267058E-05
520.8199,-4.274309E-05
520.9199,-4.27026E-05
521.0198,-4.269601E-05
521.1198,-4.271108E-05
521.2198,-4.271578E-05
521.3198,-4.269601E-05
521.4197,-4.269412E-05
521.5197,-4.268847E-05
521.6197,-4.270825E-05
521.7197,-4.269224E-05
521.8196,-4.267905E-05
521.9196,-4.267246E-05
522.0196,-4.268377E-05
522.1196,-4.269036E-05
522.2195,-4.267435E-05
522.3195,-4.265363E-05
522.4195,-4.269412E-05
522.5195,-4.266399E-05
522.6194,-4.264704E-05
522.7194,-4.26913E-05
522.8194,-4.26913E-05
522.9194,-4.264704E-05
523.0193,-4.267905E-05
523.1193,-4.269036E-05
523.2193,-4.263009E-05
523.3193,-4.264044E-05
523.4193,-4.269977E-05
523.5192,-4.269883E-05
523.6192,-4.263197E-05
523.7192,-4.264139E-05
523.8192,-4.26687E-05
523.9191,-4.264986E-05
524.0191,-4.267435E-05
524.1191,-4.264892E-05
524.2191,-4.26282E-05
524.319,-4.265551E-05
524.419,-4.264986E-05
524.519,-4.259618E-05
524.619,-4.266022E-05
524.7189,-4.265928E-05
524.8189,-4.260089E-05
524.9189,-4.259242E-05
525.0189,-4.263479E-05
525.1188,-4.259995E-05
525.2188,-4.258865E-05
525.3188,-4.258394E-05
525.4188,-4.256981E-05
525.5187,-4.25764E-05
525.6187,-4.259901E-05
525.7187,-4.256134E-05
525.8187,-4.259712E-05
525.9186,-4.257358E-05
526.0186,-4.256887E-05
526.1186,-4.258488E-05
526.2186,-4.256793E-05
526.3185,-4.259335E-05
526.4185,-4.255852E-05
526.5185,-4.255381E-05
526.6185,-4.256322E-05
526.7184,-4.255663E-05
526.8184,-4.254533E-05
526.9184,-4.256793E-05
527.0184,-4.255381E-05
527.1183,-4.250766E-05
527.2183,-4.255192E-05
527.3183,-4.255192E-05
527.4183,-4.253121E-05
527.5182,-4.253026E-05
527.6182,-4.254533E-05
527.7182,-4.252084E-05
527.8182,-4.247941E-05
527.9182,-4.249636E-05
528.0181,-4.249165E-05
528.1181,-4.246717E-05
528.2181,-4.247282E-05
528.3181,-4.250295E-05
528.418,-4.247282E-05
528.518,-4.243891E-05
528.618,-4.246622E-05
528.718,-4.247847E-05
528.8179,-4.244645E-05
528.9179,-4.248129E-05
529.0179,-4.248977E-05
529.1179,-4.243985E-05
529.2178,-4.245586E-05
529.3178,-4.247187E-05
529.4178,-4.245774E-05
529.5178,-4.245869E-05
529.6177,-4.24521E-05
529.7177,-4.243044E-05
529.8177,-4.24568E-05
529.9177,-4.243985E-05
530.0176,-4.239465E-05
530.1176,-4.24182E-05
530.2176,-4.242196E-05
530.3176,-4.240501E-05
530.4175,-4.238335E-05
530.5175,-4.242667E-05
530.6175,-4.24182E-05
530.7175,-4.23551E-05
530.8174,-4.239465E-05
530.9174,-4.241726E-05
531.0174,-4.23664E-05
531.1174,-4.233344E-05
531.2173,-4.241254E-05
531.3173,-4.242479E-05
531.4173,-4.236358E-05
531.5173,-4.242667E-05
531.6172,-4.245492E-05
531.7172,-4.238147E-05
531.8172,-4.240878E-05
531.9172,-4.246152E-05
532.0172,-4.241726E-05
532.1171,-4.241726E-05
532.2171,-4.243703E-05
532.3171,-4.24116E-05
532.4171,-4.240219E-05
532.517,-4.238617E-05
532.617,-4.241537E-05
532.717,-4.242196E-05
532.817,-4.238053E-05
532.9169,-4.237958E-05
533.0169,-4.240501E-05
533.1169,-4.239654E-05
533.2169,-4.236828E-05
533.3168,-4.239371E-05
533.4168,-4.238994E-05
533.5168,-4.237394E-05
533.6168,-4.235228E-05
533.7167,-4.240784E-05
533.8167,-4.23777E-05
533.9167,-4.233721E-05
534.0167,-4.237299E-05
534.1166,-4.239183E-05
534.2166,-4.233438E-05
534.3166,-4.233438E-05
534.4166,-4.238617E-05
534.5165,-4.239654E-05
534.6165,-4.235792E-05
534.7165,-4.239371E-05
534.8165,-4.24182E-05
534.9164,-4.237016E-05
535.0164,-4.239654E-05
535.1164,-4.239936E-05
535.2164,-4.235698E-05
535.3163,-4.237016E-05
535.4163,-4.239465E-05
535.5163,-4.231743E-05
535.6163,-4.236546E-05
535.7162,-4.242008E-05
535.8162,-4.238901E-05
535.9162,-4.233062E-05
536.0162,-4.235792E-05
536.1161,-4.236734E-05
536.2161,-4.235039E-05
536.3161,-4.233627E-05
536.4161,-4.233909E-05
536.5161,-4.233909E-05
536.616,-4.232025E-05
536.716,-4.233627E-05
536.816,-4.232025E-05
536.916,-4.23212E-05
537.0159,-4.231932E-05
537.1159,-4.23146E-05
537.2159,-4.230425E-05
537.3159,-4.231932E-05
537.4158,-4.229765E-05
537.5158,-4.229483E-05
537.6158,-4.230896E-05
537.7158,-4.228541E-05
537.8157,-4.228541E-05
537.9157,-4.228824E-05
538.0157,-4.227599E-05
538.1157,-4.230142E-05
538.2156,-4.227976E-05
538.3156,-4.227128E-05
538.4156,-4.227976E-05
538.5156,-4.228447E-05
538.6155,-4.227788E-05
538.7155,-4.226846E-05
538.8155,-4.224774E-05
538.9155,-4.22694E-05
539.0154,-4.228164E-05
539.1154,-4.225057E-05
539.2154,-4.227128E-05
539.3154,-4.227882E-05
539.4153,-4.222514E-05
539.5153,-4.224115E-05
539.6153,-4.226658E-05
539.7153,-4.225528E-05
539.8152,-4.223927E-05
539.9152,-4.223079E-05
540.0152,-4.224868E-05
540.1152,-4.220913E-05
540.2151,-4.224586E-05
540.3151,-4.224209E-05
540.4151,-4.222231E-05
540.5151,-4.222137E-05
540.6151,-4.218935E-05
540.715,-4.220725E-05
540.815,-4.222137E-05
540.915,-4.220819E-05
541.015,-4.219218E-05
541.1149,-4.219689E-05
541.2149,-4.221101E-05
541.3149,-4.217805E-05
541.4149,-4.216864E-05
541.5148,-4.219124E-05
541.6148,-4.219783E-05
541.7148,-4.219124E-05
541.8148,-4.218559E-05
541.9147,-4.220065E-05
542.0147,-4.217805E-05
542.1147,-4.218182E-05
542.2147,-4.219218E-05
542.3146,-4.219595E-05
542.4146,-4.21903E-05
542.5146,-4.217146E-05
542.6146,-4.217994E-05
542.7145,-4.215639E-05
542.8145,-4.217617E-05
542.9145,-4.218559E-05
543.0145,-4.21611E-05
543.1144,-4.217429E-05
543.2144,-4.216487E-05
543.3144,-4.212532E-05
543.4144,-4.215357E-05
543.5143,-4.216204E-05
543.6143,-4.210554E-05
543.7143,-4.215357E-05
543.8143,-4.215451E-05
543.9142,-4.214039E-05
544.0142,-4.211401E-05
544.1142,-4.215169E-05
544.2142,-4.214132E-05
544.3141,-4.212061E-05
544.4141,-4.216204E-05
544.5141,-4.216864E-05
544.6141,-4.215074E-05
544.7141,-4.216204E-05
544.814,-4.21385E-05
544.914,-4.21611E-05
545.014,-4.21677E-05
545.114,-4.216675E-05
545.2139,-4.213944E-05
545.3139,-4.216204E-05
545.4139,-4.21611E-05
545.5139,-4.213285E-05
545.6138,-4.210554E-05
545.7138,-4.216204E-05
545.8138,-4.214321E-05
545.9138,-4.213473E-05
546.0137,-4.215074E-05
546.1137,-4.213944E-05
546.2137,-4.212061E-05
546.3137,-4.212249E-05
546.4136,-4.212438E-05
546.5136,-4.215169E-05
546.6136,-4.211496E-05
546.7136,-4.211873E-05
546.8135,-4.21272E-05
546.9135,-4.210178E-05
547.0135,-4.213097E-05
547.1135,-4.211778E-05
547.2134,-4.208106E-05
547.3134,-4.210931E-05
547.4134,-4.210648E-05
547.5134,-4.206316E-05
547.6133,-4.206599E-05
547.7133,-4.208482E-05
547.8133,-4.210178E-05
547.9133,-4.20707E-05
548.0132,-4.208388E-05
548.1132,-4.208576E-05
548.2132,-4.210178E-05
548.3132,-4.209047E-05
548.4131,-4.206693E-05
548.5131,-4.20707E-05
548.6131,-4.211401E-05
548.7131,-4.210648E-05
548.813,-4.209047E-05
548.913,-4.207728E-05
549.013,-4.209047E-05
549.113,-4.207728E-05
549.213,-4.207352E-05
549.3129,-4.210743E-05
549.4129,-4.209518E-05
549.5129,-4.20528E-05
549.6129,-4.207728E-05
549.7128,-4.208576E-05
549.8128,-4.205469E-05
549.9128,-4.205469E-05
550.0128,-4.207352E-05
550.1127,-4.206505E-05
550.2127,-4.20594E-05
550.3127,-4.20528E-05
550.4127,-4.20528E-05
550.5126,-4.205469E-05
550.6126,-4.204056E-05
550.7126,-4.203962E-05
550.8126,-4.204244E-05
550.9125,-4.207728E-05
551.0125,-4.204809E-05
551.1125,-4.203209E-05
551.2125,-4.20528E-05
551.3124,-4.20754E-05
551.4124,-4.202832E-05
551.5124,-4.204527E-05
551.6124,-4.206316E-05
551.7123,-4.19784E-05
551.8123,-4.201796E-05
551.9123,-4.209235E-05
552.0123,-4.204809E-05
552.1122,-4.203868E-05
552.2122,-4.205375E-05
552.3122,-4.204997E-05
552.4122,-4.201608E-05
552.5121,-4.202267E-05
552.6121,-4.204339E-05
552.7121,-4.203679E-05
552.8121,-4.200949E-05
552.912,-4.201043E-05
553.012,-4.199912E-05
553.112,-4.200855E-05
553.212,-4.202832E-05
553.312,-4.200195E-05
553.4119,-4.196993E-05
553.5119,-4.203303E-05
553.6119,-4.199159E-05
553.7119,-4.195581E-05
553.8118,-4.200101E-05
553.9118,-4.20076E-05
554.0118,-4.196146E-05
554.1118,-4.193038E-05
554.2117,-4.200007E-05
554.3117,-4.206128E-05
554.4117,-4.200101E-05
554.5117,-4.204621E-05
554.6116,-4.209141E-05
554.7116,-4.204244E-05
554.8116,-4.204527E-05
554.9116,-4.208106E-05
555.0115,-4.208576E-05
555.1115,-4.206222E-05
555.2115,-4.208576E-05
555.3115,-4.20933E-05
555.4114,-4.20641E-05
555.5114,-4.204904E-05
555.6114,-4.20641E-05
555.7114,-4.208388E-05
555.8113,-4.204056E-05
555.9113,-4.204997E-05
556.0113,-4.205563E-05
556.1113,-4.203303E-05
556.2112,-4.202267E-05
556.3112,-4.20189E-05
556.4112,-4.202549E-05
556.5112,-4.201513E-05
556.6111,-4.201796E-05
556.7111,-4.201608E-05
556.8111,-4.200666E-05
556.9111,-4.19784E-05
557.011,-4.200007E-05
557.111,-4.200195E-05
557.211,-4.200101E-05
557.311,-4.19784E-05
557.4109,-4.197935E-05
557.5109,-4.196899E-05
557.6109,-4.197558E-05
557.7109,-4.197558E-05
557.8109,-4.193508E-05
557.9108,-4.193603E-05
558.0108,-4.198312E-05
558.1108,-4.199536E-05
558.2108,-4.195204E-05
558.3107,-4.197276E-05
558.4107,-4.200571E-05
558.5107,-4.196711E-05
558.6107,-4.196428E-05
558.7106,-4.199065E-05
558.8106,-4.199818E-05
558.9106,-4.196522E-05
559.0106,-4.196711E-05
559.1105,-4.198971E-05
559.2105,-4.196805E-05
559.3105,-4.195015E-05
559.4105,-4.196334E-05
559.5104,-4.192755E-05
559.6104,-4.193508E-05
559.7104,-4.196993E-05
559.8104,-4.197087E-05
559.9103,-4.194921E-05
560.0103,-4.196616E-05
560.1103,-4.196334E-05
560.2103,-4.194639E-05
560.3102,-4.194168E-05
560.4102,-4.19398E-05
560.5102,-4.193132E-05
560.6102,-4.192755E-05
560.7101,-4.192378E-05
560.8101,-4.192567E-05
560.9101,-4.193038E-05
561.0101,-4.192473E-05
561.11,-4.19219E-05
561.21,-4.194262E-05
561.31,-4.190213E-05
561.41,-4.189459E-05
561.5099,-4.191437E-05
561.6099,-4.194451E-05
561.7099,-4.190589E-05
561.8099,-4.1888E-05
561.9099,-4.192473E-05
562.0098,-4.19172E-05
562.1098,-4.190495E-05
562.2098,-4.193038E-05
562.3098,-4.19285E-05
562.4097,-4.188329E-05
562.5097,-4.19172E-05
562.6097,-4.194639E-05
562.7097,-4.194921E-05
562.8096,-4.195769E-05
562.9096,-4.196146E-05
563.0096,-4.196805E-05
563.1096,-4.197087E-05
563.2095,-4.196051E-05
563.3095,-4.195957E-05
563.4095,-4.196711E-05
563.5095,-4.196334E-05
563.6094,-4.196428E-05
563.7094,-4.194168E-05
563.8094,-4.19332E-05
563.9094,-4.196334E-05
564.0093,-4.196051E-05
564.1093,-4.193038E-05
564.2093,-4.192096E-05
564.3093,-4.195015E-05
564.4092,-4.193603E-05
564.5092,-4.192096E-05
564.6092,-4.189554E-05
564.7092,-4.191437E-05
564.8091,-4.194545E-05
564.9091,-4.191437E-05
565.0091,-4.189177E-05
565.1091,-4.189648E-05
565.209,-4.192567E-05
565.309,-4.189271E-05
565.409,-4.188894E-05
565.509,-4.190024E-05
565.6089,-4.189648E-05
565.7089,-4.186257E-05
565.8089,-4.188235E-05
565.9089,-4.191343E-05
566.0089,-4.192096E-05
566.1088,-4.188047E-05
566.2088,-4.186446E-05
566.3088,-4.190307E-05
566.4088,-4.192285E-05
566.5087,-4.18993E-05
566.6087,-4.189177E-05
566.7087,-4.190777E-05
566.8087,-4.191814E-05
566.9086,-4.192002E-05
567.0086,-4.193132E-05
567.1086,-4.193414E-05
567.2086,-4.193697E-05
567.3085,-4.196616E-05
567.4085,-4.193508E-05
567.5085,-4.193414E-05
567.6085,-4.194168E-05
567.7084,-4.196051E-05
567.8084,-4.192285E-05
567.9084,-4.190589E-05
568.0084,-4.194733E-05
568.1083,-4.192002E-05
568.2083,-4.190213E-05
568.3083,-4.190495E-05
568.4083,-4.191155E-05
568.5082,-4.192096E-05
568.6082,-4.189082E-05
568.7082,-4.187952E-05
568.8082,-4.189082E-05
568.9081,-4.187387E-05
569.0081,-4.188517E-05
569.1081,-4.186069E-05
569.2081,-4.185598E-05
569.308,-4.188141E-05
569.408,-4.186446E-05
569.508,-4.183526E-05
569.608,-4.185033E-05
569.7079,-4.185504E-05
569.8079,-4.184563E-05
569.9079,-4.183338E-05
570.0079,-4.181266E-05
570.1078,-4.182867E-05
570.2078,-4.183903E-05
570.3078,-4.181643E-05
570.4078,-4.182302E-05
570.5078,-4.18023E-05
570.6077,-4.183998E-05
570.7077,-4.182396E-05
570.8077,-4.18202E-05
570.9077,-4.184845E-05
571.0076,-4.18362E-05
571.1076,-4.182773E-05
571.2076,-4.183903E-05
571.3076,-4.185598E-05
571.4075,-4.181643E-05
571.5075,-4.180607E-05
571.6075,-4.185692E-05
571.7075,-4.182773E-05
571.8074,-4.179288E-05
571.9074,-4.182585E-05
572.0074,-4.184656E-05
572.1074,-4.179665E-05
572.2073,-4.181266E-05
572.3073,-4.184186E-05
572.4073,-4.181455E-05
572.5073,-4.181266E-05
572.6072,-4.182113E-05
572.7072,-4.18428E-05
572.8072,-4.181643E-05
572.9072,-4.18136E-05
573.0071,-4.183244E-05
573.1071,-4.183244E-05
573.2071,-4.182113E-05
573.3071,-4.181455E-05
573.407,-4.183903E-05
573.507,-4.183432E-05
573.607,-4.181266E-05
573.707,-4.182867E-05
573.8069,-4.182396E-05
573.9069,-4.180042E-05
574.0069,-4.180042E-05
574.1069,-4.181172E-05
574.2068,-4.177876E-05
574.3068,-4.179665E-05
574.4068,-4.180136E-05
574.5068,-4.180042E-05
574.6068,-4.176275E-05
574.7067,-4.178064E-05
574.8067,-4.179006E-05
574.9067,-4.17684E-05
575.0067,-4.175993E-05
575.1066,-4.179665E-05
575.2066,-4.179288E-05
575.3066,-4.174297E-05
575.4066,-4.174768E-05
575.5065,-4.177594E-05
575.6065,-4.174768E-05
575.7065,-4.172508E-05
575.8065,-4.175333E-05
575.9064,-4.175804E-05
576.0064,-4.174392E-05
576.1064,-4.176181E-05
576.2064,-4.174109E-05
576.3063,-4.171943E-05
576.4063,-4.173732E-05
576.5063,-4.175804E-05
576.6063,-4.17345E-05
576.7062,-4.170813E-05
576.8062,-4.174392E-05
576.9062,-4.172791E-05
577.0062,-4.169024E-05
577.1061,-4.16893E-05
577.2061,-4.171755E-05
577.3061,-4.171001E-05
577.4061,-4.16714E-05
577.506,-4.168741E-05
577.606,-4.167893E-05
577.706,-4.169212E-05
577.806,-4.167046E-05
577.9059,-4.166575E-05
578.0059,-4.16893E-05
578.1059,-4.168647E-05
578.2059,-4.166105E-05
578.3058,-4.167799E-05
578.4058,-4.168553E-05
578.5058,-4.164974E-05
578.6058,-4.16488E-05
578.7057,-4.170342E-05
578.8057,-4.168553E-05
578.9057,-4.166481E-05
579.0057,-4.169118E-05
579.1057,-4.169683E-05
579.2056,-4.16827E-05
579.3056,-4.166198E-05
579.4056,-4.170813E-05
579.5056,-4.170154E-05
579.6055,-4.167893E-05
579.7055,-4.169212E-05
579.8055,-4.168458E-05
579.9055,-4.167329E-05
580.0054,-4.169401E-05
580.1054,-4.169024E-05
580.2054,-4.165257E-05
580.3054,-4.166858E-05
580.4053,-4.170342E-05
580.5053,-4.16601E-05
580.6053,-4.163185E-05
580.7053,-4.166387E-05
580.8052,-4.166952E-05
580.9052,-4.163467E-05
581.0052,-4.163844E-05
581.1052,-4.16667E-05
581.2051,-4.165539E-05
581.3051,-4.163091E-05
581.4051,-4.163374E-05
581.5051,-4.163844E-05
581.605,-4.164598E-05
581.705,-4.162244E-05
581.805,-4.162997E-05
581.905,-4.166575E-05
582.0049,-4.163467E-05
582.1049,-4.163279E-05
582.2049,-4.170531E-05
582.3049,-4.165257E-05
582.4048,-4.160831E-05
582.5048,-4.163655E-05
582.6048,-4.167046E-05
582.7048,-4.164786E-05
582.8047,-4.159606E-05
582.9047,-4.163844E-05
583.0047,-4.166198E-05
583.1047,-4.163185E-05
583.2047,-4.16262E-05
583.3046,-4.16714E-05
583.4046,-4.165822E-05
583.5046,-4.163655E-05
583.6046,-4.16441E-05
583.7045,-4.163562E-05
583.8045,-4.161301E-05
583.9045,-4.162997E-05
584.0045,-4.16375E-05
584.1044,-4.164032E-05
584.2044,-4.162902E-05
584.3044,-4.163279E-05
584.4044,-4.161961E-05
584.5043,-4.16422E-05
584.6043,-4.166293E-05
584.7043,-4.161301E-05
584.8043,-4.161584E-05
584.9042,-4.166952E-05
585.0042,-4.170436E-05
585.1042,-4.164032E-05
585.2042,-4.166575E-05
585.3041,-4.170342E-05
585.4041,-4.168553E-05
585.5041,-4.16441E-05
585.6041,-4.171001E-05
585.704,-4.169589E-05
585.804,-4.167235E-05
585.904,-4.168553E-05
586.004,-4.169589E-05
586.1039,-4.166575E-05
586.2039,-4.164786E-05
586.3039,-4.166858E-05
586.4039,-4.165539E-05
586.5038,-4.162902E-05
586.6038,-4.162714E-05
586.7038,-4.164692E-05
586.8038,-4.16441E-05
586.9037,-4.163655E-05
587.0037,-4.165822E-05
587.1037,-4.164503E-05
587.2037,-4.165916E-05
587.3036,-4.16441E-05
587.4036,-4.16488E-05
587.5036,-4.164598E-05
587.6036,-4.165633E-05
587.7036,-4.163279E-05
587.8035,-4.16714E-05
587.9035,-4.166105E-05
588.0035,-4.162902E-05
588.1035,-4.16441E-05
588.2034,-4.168553E-05
588.3034,-4.166575E-05
588.4034,-4.164503E-05
588.5034,-4.165539E-05
588.6033,-4.166575E-05
588.7033,-4.165916E-05
588.8033,-4.165163E-05
588.9033,-4.161679E-05
589.0032,-4.16441E-05
589.1032,-4.16667E-05
589.2032,-4.164127E-05
589.3032,-4.164503E-05
589.4031,-4.164315E-05
589.5031,-4.164503E-05
589.6031,-4.164503E-05
589.7031,-4.16036E-05
589.803,-4.165916E-05
589.903,-4.16375E-05
590.003,-4.160172E-05
590.103,-4.162149E-05
590.2029,-4.161019E-05
590.3029,-4.159701E-05
590.4029,-4.161207E-05
590.5029,-4.160642E-05
590.6028,-4.157441E-05
590.7028,-4.15857E-05
590.8028,-4.161961E-05
590.9028,-4.16036E-05
591.0027,-4.157535E-05
591.1027,-4.161301E-05
591.2027,-4.159512E-05
591.3027,-4.160172E-05
591.4026,-4.160454E-05
591.5026,-4.159041E-05
591.6026,-4.155369E-05
591.7026,-4.159889E-05
591.8026,-4.160548E-05
591.9025,-4.156969E-05
592.0025,-4.161301E-05
592.1025,-4.158947E-05
592.2025,-4.158664E-05
592.3024,-4.157441E-05
592.4024,-4.156969E-05
592.5024,-4.160548E-05
592.6024,-4.157535E-05
592.7023,-4.156122E-05
592.8023,-4.158947E-05
592.9023,-4.15923E-05
593.0023,-4.156781E-05
593.1022,-4.160831E-05
593.2022,-4.161772E-05
593.3022,-4.154238E-05
593.4022,-4.155557E-05
593.5021,-4.158382E-05
593.6021,-4.155275E-05
593.7021,-4.155463E-05
593.8021,-4.158947E-05
593.902,-4.156593E-05
594.002,-4.157535E-05
594.102,-4.157911E-05
594.202,-4.157629E-05
594.3019,-4.157252E-05
594.4019,-4.158476E-05
594.5019,-4.158194E-05
594.6019,-4.156028E-05
594.7018,-4.156498E-05
594.8018,-4.158853E-05
594.9018,-4.156969E-05
595.0018,-4.156028E-05
595.1017,-4.154238E-05
595.2017,-4.15584E-05
595.3017,-4.156593E-05
595.4017,-4.155745E-05
595.5016,-4.15518E-05
595.6016,-4.15857E-05
595.7016,-4.153391E-05
595.8016,-4.152167E-05
595.9016,-4.155651E-05
596.0015,-4.155086E-05
596.1015,-4.151413E-05
596.2015,-4.155463E-05
596.3015,-4.155463E-05
596.4014,-4.152449E-05
596.5014,-4.153109E-05
596.6014,-4.15471E-05
596.7014,-4.154992E-05
596.8013,-4.151602E-05
596.9013,-4.151131E-05
597.0013,-4.153485E-05
597.1013,-4.149718E-05
597.2012,-4.148871E-05
597.3012,-4.151413E-05
597.4012,-4.148776E-05
597.5012,-4.152355E-05
597.6011,-4.1484E-05
597.7011,-4.15066E-05
597.8011,-4.148306E-05
597.9011,-4.146893E-05
598.001,-4.148588E-05
598.101,-4.145104E-05
598.201,-4.148776E-05
598.301,-4.147458E-05
598.4009,-4.144256E-05
598.5009,-4.148871E-05
598.6009,-4.145574E-05
598.7009,-4.146516E-05
598.8008,-4.143314E-05
598.9008,-4.144444E-05
599.0008,-4.147741E-05
599.1008,-4.144444E-05
599.2007,-4.143691E-05
599.3007,-4.143879E-05
599.4007,-4.144068E-05
599.5007,-4.146234E-05
599.6006,-4.14162E-05
599.7006,-4.140207E-05
599.8006,-4.145574E-05
599.9006,-4.147552E-05
600.0005,-4.145104E-05
