EXPID. 0733
[电化学]: i-t : @ 0(V) X 600(sec)
起始电位 (V),0
静置时间 (秒),0
运行时间 (秒),600
记录间隔,0.1
电解液 信息:
HNO3,0.4
0.1,-0.01005814
0.2,-0.01005814
0.3,-0.01005814
0.4,-0.01005814
0.5,-0.01005814
0.6,-0.01005814
0.7,-0.01005814
0.8000001,-0.01005814
0.9000001,-0.01005814
1,-0.01005814
1.1,-0.01005814
1.2,-0.01005814
1.3,-0.01005814
1.4,-0.01005814
1.5,-0.01005814
1.6,-0.01005814
1.7,-0.01005814
1.8,-0.01005814
1.9,-0.01005814
2,-0.01005814
2.1,-0.01005814
2.2,-0.01005814
2.3,-0.01005814
2.4,-0.01005814
2.5,-0.01005814
2.6,-0.01005814
2.7,-0.01005814
2.799999,-0.01005814
2.899999,-0.01005814
2.999999,-0.01005814
3.099999,-0.01005814
3.199999,-0.01005814
3.299999,-0.01005814
3.399999,-0.01005814
3.499999,-0.01005814
3.599999,-0.01005814
3.699999,-0.01005814
3.799999,-0.01005814
3.899998,-0.01005814
3.999998,-0.01005814
4.099998,-0.01005814
4.199998,-0.01005814
4.299998,-0.01005814
4.399998,-0.01005814
4.499998,-0.01005814
4.599998,-0.01005814
4.699998,-0.01005814
4.799998,-0.01005814
4.899998,-0.01005814
4.999998,-0.01005814
5.099998,-0.01005814
5.199997,-0.01005814
5.299997,-0.01005814
5.399997,-0.01005814
5.499997,-0.01005814
5.599997,-0.01005814
5.699997,-0.01005814
5.799997,-0.01005814
5.899997,-0.01005814
5.999997,-0.01005814
6.099997,-0.01005814
6.199996,-0.01005814
6.299996,-0.01005814
6.399996,-0.01005814
6.499996,-0.01005814
6.599996,-0.01005814
6.699996,-0.01005814
6.799996,-0.01005814
6.899996,-0.01005814
6.999996,-0.01005814
7.099996,-0.01005814
7.199996,-0.01005814
7.299995,-0.01005814
7.399995,-0.01005814
7.499995,-0.01005814
7.599995,-0.01005814
7.699995,-0.01005814
7.799995,-0.01005814
7.899995,-0.01005814
7.999995,-0.01005814
8.099995,-0.01005814
8.199995,-0.01005814
8.299995,-0.01005814
8.399996,-0.01005814
8.499996,-0.01005814
8.599997,-0.01005814
8.699997,-0.01005814
8.799997,-0.01005814
8.899998,-0.01005469
8.999998,-0.009923194
9.099998,-0.009789873
9.199999,-0.009646459
9.299999,-0.009505387
9.4,-0.009381413
9.5,-0.009259571
9.6,-0.009132539
9.700001,-0.009021536
9.800001,-0.00890945
9.900002,-0.008793091
10,-0.008689051
10.1,-0.008589363
10.2,-0.008478466
10.3,-0.008386102
10.4,-0.008291993
10.5,-0.008184696
10.6,-0.00809443
10.7,-0.008001742
10.8,-0.007904271
10.90001,-0.007817038
11.00001,-0.007727596
11.10001,-0.007636402
11.20001,-0.007553323
11.30001,-0.007468014
11.40001,-0.00738528
11.50001,-0.007304887
11.60001,-0.007226576
11.70001,-0.00714839
11.80001,-0.007074873
11.90001,-0.007003478
12.00001,-0.006931735
12.10001,-0.00686542
12.20001,-0.00679888
12.30001,-0.006735296
12.40001,-0.006674032
12.50001,-0.006614015
12.60001,-0.006555233
12.70001,-0.006496135
12.80001,-0.006441136
12.90001,-0.00638679
13.00001,-0.006333298
13.10001,-0.006282848
13.20001,-0.006231978
13.30001,-0.006184414
13.40001,-0.00613766
13.50002,-0.006091828
13.60002,-0.006047884
13.70002,-0.006004258
13.80002,-0.005962935
13.90002,-0.005921913
14.00002,-0.005882236
14.10002,-0.005843006
14.20002,-0.00580428
14.30002,-0.005767085
14.40002,-0.005730659
14.50002,-0.005694753
14.60002,-0.005659998
14.70002,-0.005625724
14.80002,-0.005592541
14.90002,-0.005560638
15.00002,-0.005528906
15.10002,-0.005496374
15.20002,-0.005466864
15.30002,-0.005436205
15.40002,-0.005405619
15.50002,-0.005376894
15.60002,-0.005348052
15.70002,-0.005318898
15.80002,-0.005291661
15.90002,-0.005264142
16.00002,-0.00523666
16.10003,-0.005210392
16.20003,-0.005184799
16.30003,-0.005158509
16.40003,-0.005134381
16.50003,-0.005109852
16.60003,-0.005084859
16.70003,-0.005060856
16.80003,-0.005037101
16.90003,-0.005013228
17.00003,-0.004990318
17.10003,-0.004967692
17.20003,-0.004944752
17.30003,-0.004923107
17.40003,-0.004901031
17.50003,-0.004878726
17.60003,-0.004857619
17.70003,-0.004836588
17.80003,-0.004815464
17.90003,-0.004795712
18.00003,-0.004775457
18.10003,-0.004754953
18.20003,-0.004735482
18.30003,-0.004716035
18.40003,-0.004696076
18.50003,-0.004677202
18.60003,-0.004658171
18.70004,-0.004639227
18.80004,-0.004620823
18.90004,-0.004602413
19.00004,-0.004584375
19.10004,-0.004566484
19.20004,-0.004548637
19.30004,-0.004530672
19.40004,-0.004513705
19.50004,-0.004496629
19.60004,-0.004478786
19.70004,-0.004462659
19.80004,-0.004445972
19.90004,-0.004429216
20.00004,-0.0044128
20.10004,-0.004396138
20.20004,-0.004380469
20.30004,-0.004364348
20.40004,-0.004348937
20.50004,-0.004332923
20.60004,-0.004317042
20.70004,-0.004301089
20.80004,-0.004285824
20.90004,-0.004270529
21.00004,-0.00425531
21.10004,-0.00424019
21.20004,-0.004225349
21.30005,-0.004210237
21.40005,-0.004195763
21.50005,-0.004181298
21.60005,-0.004166746
21.70005,-0.004152417
21.80005,-0.004138429
21.90005,-0.004124183
22.00005,-0.004110128
22.10005,-0.004096464
22.20005,-0.004081829
22.30005,-0.004068376
22.40005,-0.004054738
22.50005,-0.004041084
22.60005,-0.004027842
22.70005,-0.004014529
22.80005,-0.004000857
22.90005,-0.003987827
23.00005,-0.003974456
23.10005,-0.0039613
23.20005,-0.003948551
23.30005,-0.003935573
23.40005,-0.003922903
23.50005,-0.003910519
23.60005,-0.003897761
23.70005,-0.003885657
23.80005,-0.003873301
23.90005,-0.003860525
24.00006,-0.003848531
24.10006,-0.003836447
24.20006,-0.003824166
24.30006,-0.003812134
24.40006,-0.003800377
24.50006,-0.003787988
24.60006,-0.003776463
24.70006,-0.003764778
24.80006,-0.003753014
24.90006,-0.003741729
25.00006,-0.003730133
25.10006,-0.00371906
25.20006,-0.003708152
25.30006,-0.003696983
25.40006,-0.003685642
25.50006,-0.003674466
25.60006,-0.003663259
25.70006,-0.003651972
25.80006,-0.003640919
25.90006,-0.003629774
26.00006,-0.003618646
26.10006,-0.003607629
26.20006,-0.003596737
26.30006,-0.003586155
26.40006,-0.003575491
26.50006,-0.00356485
26.60007,-0.003554323
26.70007,-0.003543594
26.80007,-0.003533324
26.90007,-0.003522956
27.00007,-0.003512385
27.10007,-0.003501961
27.20007,-0.00349194
27.30007,-0.003481669
27.40007,-0.00347154
27.50007,-0.003461755
27.60007,-0.003451339
27.70007,-0.003441768
27.80007,-0.00343164
27.90007,-0.003421823
28.00007,-0.003412034
28.10007,-0.003402182
28.20007,-0.003392493
28.30007,-0.003382928
28.40007,-0.00337348
28.50007,-0.003364049
28.60007,-0.003354559
28.70007,-0.003345075
28.80007,-0.003335429
28.90007,-0.003326538
29.00007,-0.003317089
29.10007,-0.00330771
29.20008,-0.003298671
29.30008,-0.003289534
29.40008,-0.003280204
29.50008,-0.003271081
29.60008,-0.003261879
29.70008,-0.003252915
29.80008,-0.003243952
29.90008,-0.003235181
30.00008,-0.003225825
30.10008,-0.003217236
30.20008,-0.003207849
30.30008,-0.003198991
30.40008,-0.003190482
30.50008,-0.003181391
30.60008,-0.003172617
30.70008,-0.003164145
30.80008,-0.003155401
30.90008,-0.003146643
31.00008,-0.003138276
31.10008,-0.003129699
31.20008,-0.00312109
31.30008,-0.003112922
31.40008,-0.003104458
31.50008,-0.003096336
31.60008,-0.003087899
31.70008,-0.003079796
31.80009,-0.003071376
31.90009,-0.003063082
32.00008,-0.003054967
32.10008,-0.003046836
32.20008,-0.003038532
32.30008,-0.003030518
32.40008,-0.003022459
32.50008,-0.003014232
32.60007,-0.003006327
32.70007,-0.002998558
32.80007,-0.002990346
32.90007,-0.002982461
33.00007,-0.00297469
33.10007,-0.002966686
33.20007,-0.00295892
33.30006,-0.002951242
33.40006,-0.002943678
33.50006,-0.002935853
33.60006,-0.002928511
33.70006,-0.002920767
33.80006,-0.002913105
33.90005,-0.002905957
34.00005,-0.002898303
34.10005,-0.00289103
34.20005,-0.002883467
34.30005,-0.002875796
34.40005,-0.00286862
34.50005,-0.002861212
34.60004,-0.002853746
34.70004,-0.002846492
34.80004,-0.002839129
34.90004,-0.002831656
35.00004,-0.002824449
35.10004,-0.002816877
35.20004,-0.002809538
35.30003,-0.002802354
35.40003,-0.002794957
35.50003,-0.00278784
35.60003,-0.002780803
35.70003,-0.002773747
35.80003,-0.002766706
35.90002,-0.002759797
36.00002,-0.002752379
36.10002,-0.002745539
36.20002,-0.002738582
36.30002,-0.002731592
36.40002,-0.002724428
36.50002,-0.002717652
36.60001,-0.002710515
36.70001,-0.002703644
36.80001,-0.002696922
36.90001,-0.002690038
37.00001,-0.002683332
37.10001,-0.002676519
37.2,-0.00266981
37.3,-0.002663065
37.4,-0.002656475
37.5,-0.002649697
37.6,-0.002643189
37.7,-0.002636699
37.8,-0.002630016
37.89999,-0.002623481
37.99999,-0.002617078
38.09999,-0.002610487
38.19999,-0.002604033
38.29999,-0.002597641
38.39999,-0.002591215
38.49998,-0.002584753
38.59998,-0.002578474
38.69998,-0.00257204
38.79998,-0.00256574
38.89998,-0.002559392
38.99998,-0.002553097
39.09998,-0.002546843
39.19997,-0.002540589
39.29997,-0.002534303
39.39997,-0.002528053
39.49997,-0.002521804
39.59997,-0.002515509
39.69997,-0.002509436
39.79996,-0.002503306
39.89996,-0.00249715
39.99996,-0.002491251
40.09996,-0.00248507
40.19996,-0.002479069
40.29996,-0.002473091
40.39996,-0.002466998
40.49995,-0.002461012
40.59995,-0.002455111
40.69995,-0.002449126
40.79995,-0.002443018
40.89995,-0.002437094
40.99995,-0.002431147
41.09995,-0.002425343
41.19994,-0.002419544
41.29994,-0.002413627
41.39994,-0.002407875
41.49994,-0.00240209
41.59994,-0.002396246
41.69994,-0.002390512
41.79993,-0.002384913
41.89993,-0.00237919
41.99993,-0.002373421
42.09993,-0.002368001
42.19993,-0.002362354
42.29993,-0.002356603
42.39993,-0.002351123
42.49992,-0.002345151
42.59992,-0.002339743
42.69992,-0.002334126
42.79992,-0.002328466
42.89992,-0.002322983
42.99992,-0.002317515
43.09991,-0.002311713
43.19991,-0.002306298
43.29991,-0.002300808
43.39991,-0.002295168
43.49991,-0.002289616
43.59991,-0.002284315
43.69991,-0.002278656
43.7999,-0.002273503
43.8999,-0.002267986
43.9999,-0.002262256
44.0999,-0.002256995
44.1999,-0.002251622
44.2999,-0.002246019
44.39989,-0.002240854
44.49989,-0.002235505
44.59989,-0.00223003
44.69989,-0.002224832
44.79989,-0.002219852
44.89989,-0.002214235
44.99989,-0.002209202
45.09988,-0.002203937
45.19988,-0.002198582
45.29988,-0.002193448
45.39988,-0.002188408
45.49988,-0.002183142
45.59988,-0.002178045
45.69987,-0.002172949
45.79987,-0.002168041
45.89987,-0.002162843
45.99987,-0.002157826
46.09987,-0.002152674
46.19987,-0.002147784
46.29987,-0.002142602
46.39986,-0.002137627
46.49986,-0.002132742
46.59986,-0.002127682
46.69986,-0.002122685
46.79986,-0.002117754
46.89986,-0.002112783
46.99986,-0.00210787
47.09985,-0.00210299
47.19985,-0.002098095
47.29985,-0.002093194
47.39985,-0.002088195
47.49985,-0.002083335
47.59985,-0.002078597
47.69984,-0.002073641
47.79984,-0.00206897
47.89984,-0.002064283
47.99984,-0.002059354
48.09984,-0.002054702
48.19984,-0.00204994
48.29984,-0.002045203
48.39983,-0.002040524
48.49983,-0.002035831
48.59983,-0.002031106
48.69983,-0.002026439
48.79983,-0.002021793
48.89983,-0.002017107
48.99982,-0.002012725
49.09982,-0.00200812
49.19982,-0.002003452
49.29982,-0.001998933
49.39982,-0.001994291
49.49982,-0.001989583
49.59982,-0.001985097
49.69981,-0.001980531
49.79981,-0.001975929
49.89981,-0.001971477
49.99981,-0.001966979
50.09981,-0.001962302
50.19981,-0.001958003
50.2998,-0.001953593
50.3998,-0.001949012
50.4998,-0.001944738
50.5998,-0.001940145
50.6998,-0.00193571
50.7998,-0.001931278
50.8998,-0.001926776
50.99979,-0.001922372
51.09979,-0.001918031
51.19979,-0.001913626
51.29979,-0.001909374
51.39979,-0.00190511
51.49979,-0.00190082
51.59978,-0.001896616
51.69978,-0.001892197
51.79978,-0.001887825
51.89978,-0.001883627
51.99978,-0.001879251
52.09978,-0.001874974
52.19978,-0.001870921
52.29977,-0.001866646
52.39977,-0.001862578
52.49977,-0.001858631
52.59977,-0.001854226
52.69977,-0.00185002
52.79977,-0.001846023
52.89977,-0.001841758
52.99976,-0.001837711
53.09976,-0.001833615
53.19976,-0.001829374
53.29976,-0.001825231
53.39976,-0.001821083
53.49976,-0.001816962
53.59975,-0.001812585
53.69975,-0.001808546
53.79975,-0.001804468
53.89975,-0.001800375
53.99975,-0.001796296
54.09975,-0.001792286
54.19975,-0.001788153
54.29974,-0.001784181
54.39974,-0.001780198
54.49974,-0.00177616
54.59974,-0.001772173
54.69974,-0.001768294
54.79974,-0.001764287
54.89973,-0.001760445
54.99973,-0.001756463
55.09973,-0.00175254
55.19973,-0.001748759
55.29973,-0.00174477
55.39973,-0.001740904
55.49973,-0.00173716
55.59972,-0.001733175
55.69972,-0.001729355
55.79972,-0.001725585
55.89972,-0.001721675
55.99972,-0.00171794
56.09972,-0.001714296
56.19971,-0.001710454
56.29971,-0.001706675
56.39971,-0.001703059
56.49971,-0.001699223
56.59971,-0.001695683
56.69971,-0.001692034
56.79971,-0.001688275
56.8997,-0.001684579
56.9997,-0.001680947
57.0997,-0.001677232
57.1997,-0.001673551
57.2997,-0.001670045
57.3997,-0.00166634
57.49969,-0.00166266
57.59969,-0.001659046
57.69969,-0.00165531
57.79969,-0.00165167
57.89969,-0.001648142
57.99969,-0.001644512
58.09969,-0.001640947
58.19968,-0.001637492
58.29968,-0.001634015
58.39968,-0.001630562
58.49968,-0.001627084
58.59968,-0.001623375
58.69968,-0.001619879
58.79967,-0.001616441
58.89967,-0.0016128
58.99967,-0.001609409
59.09967,-0.001605977
59.19967,-0.001602468
59.29967,-0.00159901
59.39967,-0.00159567
59.49966,-0.001592136
59.59966,-0.001588663
59.69966,-0.0015854
59.79966,-0.001581878
59.89966,-0.001578453
59.99966,-0.001575046
60.09966,-0.00157163
60.19965,-0.001568281
60.29965,-0.001564925
60.39965,-0.001561553
60.49965,-0.001558279
60.59965,-0.001554976
60.69965,-0.00155167
60.79964,-0.00154846
60.89964,-0.001545107
60.99964,-0.001541794
61.09964,-0.001538575
61.19964,-0.001535232
61.29964,-0.001531883
61.39964,-0.001528658
61.49963,-0.001525364
61.59963,-0.001522115
61.69963,-0.001518909
61.79963,-0.001515701
61.89963,-0.001512339
61.99963,-0.001509157
62.09962,-0.001505893
62.19962,-0.001502676
62.29962,-0.001499431
62.39962,-0.001496261
62.49962,-0.00149315
62.59962,-0.001489966
62.69962,-0.001486887
62.79961,-0.001483746
62.89961,-0.001480606
62.99961,-0.001477498
63.09961,-0.001474445
63.19961,-0.00147135
63.29961,-0.001468205
63.3996,-0.001465102
63.4996,-0.00146205
63.5996,-0.001458925
63.6996,-0.001455826
63.7996,-0.001452812
63.8996,-0.00144975
63.9996,-0.00144669
64.09959,-0.001443711
64.19959,-0.00144068
64.29959,-0.001437739
64.39959,-0.001434596
64.49959,-0.001431616
64.59959,-0.001428641
64.69958,-0.001425758
64.79958,-0.001422754
64.89958,-0.001419705
64.99958,-0.001416692
65.09958,-0.001413796
65.19958,-0.001410802
65.29958,-0.001407835
65.39957,-0.001404924
65.49957,-0.001401995
65.59957,-0.001399036
65.69957,-0.001396249
65.79957,-0.00139351
65.89957,-0.001390397
65.99957,-0.001387519
66.09956,-0.001384668
66.19956,-0.001381831
66.29956,-0.00137894
66.39956,-0.00137609
66.49956,-0.001373177
66.59956,-0.00137032
66.69955,-0.001367511
66.79955,-0.001364621
66.89955,-0.001361809
66.99955,-0.001359062
67.09955,-0.001356194
67.19955,-0.001353405
67.29955,-0.001350645
67.39954,-0.001347829
67.49954,-0.001345037
67.59954,-0.00134225
67.69954,-0.001339468
67.79954,-0.001336683
67.89954,-0.001334055
67.99953,-0.001331233
68.09953,-0.001328591
68.19953,-0.001325872
68.29953,-0.001323114
68.39953,-0.00132051
68.49953,-0.001317814
68.59953,-0.001315035
68.69952,-0.001312381
68.79952,-0.001309748
68.89952,-0.001307038
68.99952,-0.00130442
69.09952,-0.00130184
69.19952,-0.001299084
69.29951,-0.001296615
69.39951,-0.001293976
69.49951,-0.001291308
69.59951,-0.00128872
69.69951,-0.001286126
69.79951,-0.001283559
69.89951,-0.001280951
69.9995,-0.0012784
70.0995,-0.001275893
70.1995,-0.001273225
70.2995,-0.00127075
70.3995,-0.001268111
70.4995,-0.001265395
70.59949,-0.00126288
70.69949,-0.001260372
70.79949,-0.001257722
70.89949,-0.001255152
70.99949,-0.001252751
71.09949,-0.001250155
71.19949,-0.001247738
71.29948,-0.001245245
71.39948,-0.00124274
71.49948,-0.001240315
71.59948,-0.001237794
71.69948,-0.001235335
71.79948,-0.001232881
71.89948,-0.001230457
71.99947,-0.001227903
72.09947,-0.001225533
72.19947,-0.001223074
72.29947,-0.00122055
72.39947,-0.001218115
72.49947,-0.001215681
72.59946,-0.001213231
72.69946,-0.001210846
72.79946,-0.001208431
72.89946,-0.001205986
72.99946,-0.001203631
73.09946,-0.001201289
73.19946,-0.001198907
73.29945,-0.001196636
73.39945,-0.001194238
73.49945,-0.001191841
73.59945,-0.001189552
73.69945,-0.001187127
73.79945,-0.001184672
73.89944,-0.001182361
73.99944,-0.001180016
74.09944,-0.001177619
74.19944,-0.001175359
74.29944,-0.001173089
74.39944,-0.00117066
74.49944,-0.001168377
74.59943,-0.001166166
74.69943,-0.001163822
74.79943,-0.001161535
74.89943,-0.001159281
74.99943,-0.001156966
75.09943,-0.001154672
75.19942,-0.001152467
75.29942,-0.001150147
75.39942,-0.001147931
75.49942,-0.001145693
75.59942,-0.001143399
75.69942,-0.00114116
75.79942,-0.001139005
75.89941,-0.001136732
75.99941,-0.001134517
76.09941,-0.001132348
76.19941,-0.001130055
76.29941,-0.001127905
76.39941,-0.001125776
76.4994,-0.001123622
76.5994,-0.001121446
76.6994,-0.001119306
76.7994,-0.001117091
76.8994,-0.001114908
76.9994,-0.001112789
77.0994,-0.001110601
77.19939,-0.001108362
77.29939,-0.001106248
77.39939,-0.001104094
77.49939,-0.001101959
77.59939,-0.001099866
77.69939,-0.00109773
77.79939,-0.00109567
77.89938,-0.001093507
77.99938,-0.001091437
78.09938,-0.001089333
78.19938,-0.00108728
78.29938,-0.001085294
78.39938,-0.001083123
78.49937,-0.001081192
78.59937,-0.001079033
78.69937,-0.001077145
78.79937,-0.001075042
78.89937,-0.001072951
78.99937,-0.001070901
79.09937,-0.00106896
79.19936,-0.001066917
79.29936,-0.001064988
79.39936,-0.00106295
79.49936,-0.001060874
79.59936,-0.00105887
79.69936,-0.001056962
79.79935,-0.0010549
79.89935,-0.001052948
79.99935,-0.001050983
80.09935,-0.001049033
80.19935,-0.00104714
80.29935,-0.001045154
80.39935,-0.001043252
80.49934,-0.00104125
80.59934,-0.001039263
80.69934,-0.001037328
80.79934,-0.001035284
80.89934,-0.001033306
80.99934,-0.001031246
81.09933,-0.001029317
81.19933,-0.001027292
81.29933,-0.001025258
81.39933,-0.001023312
81.49933,-0.001021314
81.59933,-0.001019307
81.69933,-0.001017464
81.79932,-0.001015509
81.89932,-0.001013494
81.99932,-0.00101162
82.09932,-0.00100977
82.19932,-0.001007765
82.29932,-0.001005892
82.39931,-0.001004
82.49931,-0.001002043
82.59931,-0.00100018
82.69931,-0.0009983273
82.79931,-0.0009964006
82.89931,-0.0009945962
82.99931,-0.0009927889
83.0993,-0.0009908491
83.1993,-0.0009889806
83.2993,-0.0009872083
83.3993,-0.0009853258
83.4993,-0.0009835496
83.5993,-0.0009817294
83.6993,-0.0009799249
83.79929,-0.00097813
83.89929,-0.0009762823
83.99929,-0.000974397
84.09929,-0.0009726576
84.19929,-0.000970826
84.29929,-0.0009689971
84.39928,-0.0009672417
84.49928,-0.0009654948
84.59928,-0.0009636434
84.69928,-0.0009619012
84.79928,-0.0009601975
84.89928,-0.0009583443
84.99928,-0.000956587
85.09927,-0.0009548476
85.19927,-0.000952998
85.29927,-0.0009512445
85.39927,-0.0009494741
85.49927,-0.0009476886
85.59927,-0.0009459492
85.69926,-0.0009442418
85.79926,-0.0009425128
85.89926,-0.0009407329
85.99926,-0.0009390585
86.09926,-0.0009372937
86.19926,-0.0009356033
86.29926,-0.0009339392
86.39925,-0.0009322366
86.49925,-0.000930533
86.59925,-0.0009288709
86.69925,-0.0009271193
86.79925,-0.0009254204
86.89925,-0.0009237441
86.99924,-0.0009220132
87.09924,-0.0009203652
87.19924,-0.0009187378
87.29924,-0.0009170324
87.39924,-0.0009153919
87.49924,-0.0009137099
87.59924,-0.0009121014
87.69923,-0.0009105599
87.79923,-0.0009088761
87.89923,-0.0009071847
87.99923,-0.000905627
88.09923,-0.0009039253
88.19923,-0.0009022895
88.29922,-0.0009007178
88.39922,-0.0008991121
88.49922,-0.0008976327
88.59922,-0.000896011
88.69922,-0.0008944299
88.79922,-0.0008927771
88.89922,-0.0008911733
88.99921,-0.0008895413
89.09921,-0.0008879046
89.19921,-0.0008862971
89.29921,-0.000884633
89.39921,-0.0008830585
89.49921,-0.0008814566
89.59921,-0.000879834
89.6992,-0.0008782255
89.7992,-0.0008767677
89.8992,-0.0008751856
89.9992,-0.0008735677
90.0992,-0.0008719818
90.1992,-0.0008704402
90.29919,-0.0008687997
90.39919,-0.0008672703
90.49919,-0.0008656704
90.59919,-0.0008641569
90.69919,-0.0008625701
90.79919,-0.0008610652
90.89919,-0.0008594596
90.99918,-0.0008579698
91.09918,-0.0008563829
91.19918,-0.0008548677
91.29918,-0.0008534551
91.39918,-0.0008518815
91.49918,-0.0008503437
91.59917,-0.000848852
91.69917,-0.0008473602
91.79917,-0.0008457819
91.89917,-0.0008443421
91.99917,-0.0008428626
92.09917,-0.0008413219
92.19917,-0.0008398867
92.29916,-0.000838378
92.39916,-0.0008369024
92.49916,-0.0008354738
92.59916,-0.0008340423
92.69916,-0.0008325591
92.79916,-0.0008311295
92.89915,-0.0008297565
92.99915,-0.0008283071
93.09915,-0.0008268286
93.19915,-0.0008254179
93.29915,-0.0008240148
93.39915,-0.0008225221
93.49915,-0.0008211848
93.59914,-0.0008196874
93.69914,-0.0008182739
93.79914,-0.0008168077
93.89914,-0.0008153433
93.99914,-0.0008139994
94.09914,-0.0008125689
94.19913,-0.0008111846
94.29913,-0.0008097588
94.39913,-0.000808318
94.49913,-0.0008069007
94.59913,-0.0008055229
94.69913,-0.000804131
94.79913,-0.0008027335
94.89912,-0.000801319
94.99912,-0.0007999837
95.09912,-0.0007986539
95.19912,-0.0007972291
95.29912,-0.0007958871
95.39912,-0.0007944698
95.49911,-0.0007930205
95.59911,-0.0007916926
95.69911,-0.000790377
95.79911,-0.0007889108
95.89911,-0.0007875622
95.99911,-0.0007862523
96.09911,-0.0007848745
96.1991,-0.0007834816
96.2991,-0.0007822056
96.3991,-0.0007808608
96.4991,-0.0007795519
96.5991,-0.0007783106
96.6991,-0.0007768641
96.7991,-0.0007756032
96.89909,-0.0007742932
96.99909,-0.0007729767
97.09909,-0.000771744
97.19909,-0.0007704104
97.29909,-0.0007690233
97.39909,-0.0007677707
97.49908,-0.0007664702
97.59908,-0.0007650435
97.69908,-0.0007637609
97.79908,-0.0007624631
97.89908,-0.0007611617
97.99908,-0.0007598574
98.09908,-0.0007586134
98.19907,-0.0007572158
98.29907,-0.0007559841
98.39907,-0.0007548182
98.49907,-0.0007535045
98.59907,-0.0007522331
98.69907,-0.0007509834
98.79906,-0.0007497197
98.89906,-0.0007484427
98.99906,-0.0007472091
99.09906,-0.0007458708
99.19906,-0.0007446541
99.29906,-0.00074341
99.39906,-0.0007421585
99.49905,-0.0007409615
99.59905,-0.0007397326
99.69905,-0.000738482
99.79905,-0.0007373067
99.89905,-0.000736089
99.99905,-0.0007348346
100.099,-0.0007335736
100.199,-0.0007323635
100.299,-0.0007311421
100.399,-0.0007299273
100.499,-0.0007287473
100.599,-0.0007274995
100.699,-0.0007262555
100.799,-0.0007250285
100.899,-0.0007238268
100.999,-0.0007226053
101.099,-0.0007213877
101.199,-0.0007201597
101.299,-0.0007189373
101.399,-0.0007177563
101.499,-0.0007164851
101.599,-0.0007152862
101.699,-0.0007140808
101.799,-0.0007128716
101.899,-0.0007116813
101.999,-0.0007105088
102.099,-0.0007092789
102.199,-0.0007081064
102.299,-0.0007069453
102.399,-0.000705736
102.499,-0.0007045589
102.599,-0.000703395
102.699,-0.000702262
102.799,-0.0007010886
102.899,-0.0006999332
102.999,-0.000698773
103.099,-0.0006976664
103.199,-0.0006965599
103.299,-0.000695394
103.399,-0.0006942527
103.499,-0.0006931394
103.599,-0.0006919962
103.699,-0.0006908746
103.799,-0.0006897201
103.899,-0.0006886267
103.999,-0.0006874825
104.099,-0.0006863779
104.199,-0.000685244
104.299,-0.0006841196
104.399,-0.0006829961
104.499,-0.0006818867
104.599,-0.0006808245
104.699,-0.0006796869
104.799,-0.0006785982
104.899,-0.0006774982
104.999,-0.0006764125
105.099,-0.0006753078
105.199,-0.0006742437
105.299,-0.0006731381
105.399,-0.0006720174
105.499,-0.0006709561
105.599,-0.0006698533
105.699,-0.0006687628
105.799,-0.0006677053
105.899,-0.0006666476
105.999,-0.0006655392
106.099,-0.0006644647
106.199,-0.0006633959
106.299,-0.0006622808
106.3989,-0.0006612873
106.4989,-0.0006602015
106.5989,-0.0006591072
106.6989,-0.0006580609
106.7989,-0.0006570881
106.8989,-0.0006560334
106.9989,-0.0006549796
107.0989,-0.0006539532
107.1989,-0.0006529446
107.2989,-0.0006518512
107.3989,-0.000650853
107.4989,-0.0006498114
107.5989,-0.0006487689
107.6989,-0.0006477104
107.7989,-0.0006466613
107.8989,-0.0006456555
107.9989,-0.0006445781
108.0989,-0.0006435328
108.1989,-0.0006425714
108.2989,-0.0006415129
108.3989,-0.0006404431
108.4989,-0.0006394712
108.5989,-0.0006383947
108.6989,-0.0006373184
108.7989,-0.0006363174
108.8989,-0.0006353256
108.9989,-0.0006342737
109.0989,-0.0006332962
109.1989,-0.0006322829
109.2989,-0.0006312329
109.3989,-0.0006302403
109.4989,-0.0006292854
109.5989,-0.0006282269
109.6989,-0.0006272353
109.7989,-0.0006262512
109.8989,-0.0006252492
109.9989,-0.0006242952
110.0989,-0.0006233346
110.1989,-0.0006223006
110.2989,-0.0006213532
110.3989,-0.0006203813
110.4989,-0.0006194067
110.5989,-0.00061848
110.6989,-0.0006175655
110.7989,-0.0006165513
110.8989,-0.0006156359
110.9989,-0.0006147196
111.0989,-0.0006136668
111.1989,-0.0006127702
111.2989,-0.0006117814
111.3989,-0.000610787
111.4989,-0.0006098886
111.5989,-0.0006089195
111.6989,-0.0006079364
111.7989,-0.0006070031
111.8989,-0.0006060416
111.9989,-0.000605082
112.0989,-0.0006041675
112.1989,-0.0006032258
112.2989,-0.0006022728
112.3989,-0.0006013019
112.4989,-0.0006003752
112.5989,-0.0005994881
112.6989,-0.000598567
112.7989,-0.0005976432
112.8988,-0.0005967147
112.9988,-0.0005958314
113.0988,-0.000594899
113.1988,-0.0005939639
113.2988,-0.0005930777
113.3988,-0.0005921482
113.4988,-0.0005912018
113.5988,-0.0005903768
113.6988,-0.0005894219
113.7988,-0.0005884971
113.8988,-0.0005876204
113.9988,-0.0005867116
114.0988,-0.0005857831
114.1988,-0.0005849233
114.2988,-0.000584007
114.3988,-0.0005830784
114.4988,-0.0005822157
114.5988,-0.0005813588
114.6988,-0.0005804076
114.7988,-0.000579642
114.8988,-0.0005787822
114.9988,-0.0005779008
115.0988,-0.0005770579
115.1988,-0.0005762509
115.2988,-0.0005753271
115.3988,-0.000574455
115.4988,-0.0005735689
115.5988,-0.0005726553
115.6988,-0.0005717635
115.7988,-0.0005709197
115.8988,-0.0005700185
115.9988,-0.0005691531
116.0988,-0.0005683149
116.1988,-0.0005673902
116.2988,-0.0005665944
116.3988,-0.0005657327
116.4988,-0.0005648079
116.5988,-0.0005640592
116.6988,-0.0005631975
116.7988,-0.0005623132
116.8988,-0.0005615062
116.9988,-0.0005606219
117.0988,-0.0005597065
117.1988,-0.0005588242
117.2988,-0.0005580341
117.3988,-0.0005571469
117.4988,-0.000556274
117.5988,-0.0005554546
117.6988,-0.0005546127
117.7988,-0.0005538179
117.8988,-0.0005529232
117.9988,-0.0005520879
118.0988,-0.0005512902
118.1988,-0.0005504559
118.2988,-0.0005496667
118.3988,-0.0005488239
118.4988,-0.0005480366
118.5988,-0.0005472041
118.6988,-0.0005463839
118.7988,-0.0005455909
118.8988,-0.0005447537
118.9988,-0.0005439429
119.0988,-0.0005431565
119.1988,-0.0005423466
119.2988,-0.0005415462
119.3988,-0.0005407429
119.4987,-0.0005399386
119.5987,-0.0005391184
119.6987,-0.0005383066
119.7987,-0.0005375307
119.8987,-0.0005367104
119.9987,-0.0005358986
120.0987,-0.0005351047
120.1987,-0.0005342949
120.2987,-0.0005335076
120.3987,-0.0005327212
120.4987,-0.0005319358
120.5987,-0.000531141
120.6987,-0.0005303273
120.7987,-0.0005295156
120.8987,-0.0005287791
120.9987,-0.0005279965
121.0987,-0.00052723
121.1987,-0.0005264361
121.2987,-0.0005256319
121.3987,-0.0005248644
121.4987,-0.0005241213
121.5987,-0.0005233246
121.6987,-0.0005225636
121.7987,-0.0005217745
121.8987,-0.0005209685
121.9987,-0.0005202226
122.0987,-0.000519503
122.1987,-0.0005187035
122.2987,-0.000517968
122.3987,-0.0005172279
122.4987,-0.0005164518
122.5987,-0.0005157408
122.6987,-0.0005149809
122.7987,-0.0005142209
122.8987,-0.0005135099
122.9987,-0.000512749
123.0987,-0.0005120229
123.1987,-0.0005112911
123.2987,-0.0005105473
123.3987,-0.0005097816
123.4987,-0.0005090772
123.5987,-0.0005083595
123.6987,-0.0005075751
123.7987,-0.0005068387
123.8987,-0.0005061069
123.9987,-0.0005053629
124.0987,-0.0005046483
124.1987,-0.0005039184
124.2987,-0.0005031734
124.3987,-0.0005024408
124.4987,-0.0005017542
124.5987,-0.0005010273
124.6987,-0.0005003323
124.7987,-0.0004996137
124.8987,-0.0004988594
124.9987,-0.0004981841
125.0987,-0.0004974628
125.1987,-0.0004966906
125.2987,-0.0004960352
125.3987,-0.0004953109
125.4987,-0.0004945745
125.5987,-0.0004939059
125.6987,-0.000493176
125.7987,-0.0004924933
125.8987,-0.0004918341
125.9986,-0.0004911814
126.0986,-0.0004904704
126.1986,-0.0004897689
126.2986,-0.0004891125
126.3986,-0.0004883826
126.4986,-0.000487649
126.5986,-0.0004869766
126.6986,-0.0004862986
126.7986,-0.0004855584
126.8986,-0.0004849086
126.9986,-0.0004841975
127.0986,-0.0004834847
127.1986,-0.000482801
127.2986,-0.000482138
127.3986,-0.0004813893
127.4986,-0.0004806906
127.5986,-0.000480005
127.6986,-0.000479326
127.7986,-0.0004786451
127.8986,-0.0004779671
127.9986,-0.0004772777
128.0986,-0.0004766345
128.1986,-0.0004759697
128.2986,-0.00047527
128.3986,-0.0004745571
128.4986,-0.0004739393
128.5986,-0.0004733036
128.6987,-0.0004725907
128.7987,-0.0004719908
128.8987,-0.0004712921
128.9987,-0.0004705962
129.0987,-0.0004699623
129.1987,-0.0004692852
129.2987,-0.0004686307
129.3987,-0.0004679885
129.4987,-0.0004673453
129.5987,-0.0004666748
129.6987,-0.0004660099
129.7987,-0.0004653413
129.8987,-0.0004647216
129.9987,-0.0004640878
130.0987,-0.0004634013
130.1987,-0.0004627308
130.2988,-0.000462129
130.3988,-0.0004614679
130.4988,-0.0004608398
130.5988,-0.0004601985
130.6988,-0.0004595167
130.7988,-0.0004588697
130.8988,-0.0004582425
130.9988,-0.0004576407
131.0988,-0.0004569617
131.1988,-0.0004563694
131.2988,-0.0004557818
131.3988,-0.0004551141
131.4988,-0.0004545189
131.5988,-0.0004538946
131.6988,-0.0004533172
131.7988,-0.0004526863
131.8988,-0.0004520525
131.9989,-0.0004514705
132.0989,-0.0004508537
132.1989,-0.0004501361
132.2989,-0.0004495532
132.3989,-0.0004489137
132.4989,-0.0004482442
132.5989,-0.0004476556
132.6989,-0.0004470623
132.7989,-0.00044642
132.8989,-0.0004458022
132.9989,-0.00044516
133.0989,-0.0004444791
133.1989,-0.0004438745
133.2989,-0.0004433066
133.3989,-0.0004426597
133.4989,-0.0004420871
133.599,-0.0004415861
133.699,-0.0004409486
133.799,-0.0004403967
133.899,-0.0004397714
133.999,-0.0004391084
134.099,-0.0004385565
134.199,-0.0004379727
134.299,-0.0004373483
134.399,-0.0004367861
134.499,-0.0004361852
134.599,-0.0004355506
134.699,-0.0004349799
134.799,-0.0004343998
134.899,-0.0004337858
134.999,-0.000433231
135.099,-0.0004326689
135.1991,-0.0004320332
135.2991,-0.0004314446
135.3991,-0.0004309267
135.4991,-0.0004303154
135.5991,-0.0004297626
135.6991,-0.0004291656
135.7991,-0.0004285808
135.8991,-0.0004279988
135.9991,-0.0004274554
136.0991,-0.0004268716
136.1991,-0.0004263056
136.2991,-0.0004257387
136.3991,-0.0004251397
136.4991,-0.0004246293
136.5991,-0.0004240078
136.6991,-0.0004234493
136.7991,-0.0004229106
136.8992,-0.0004223691
136.9992,-0.0004217523
137.0992,-0.0004212032
137.1992,-0.0004206655
137.2992,-0.0004200704
137.3992,-0.0004195355
137.4992,-0.0004189827
137.5992,-0.0004183272
137.6992,-0.0004178385
137.7992,-0.0004173262
137.8992,-0.0004167413
137.9992,-0.000416182
138.0992,-0.0004156037
138.1992,-0.00041505
138.2992,-0.0004145132
138.3992,-0.0004140028
138.4993,-0.0004133907
138.5993,-0.0004128398
138.6993,-0.000412334
138.7993,-0.0004117473
138.8993,-0.0004112143
138.9993,-0.0004106474
139.0993,-0.0004100861
139.1993,-0.0004095786
139.2993,-0.0004090483
139.3993,-0.0004084984
139.4993,-0.0004079427
139.5993,-0.0004074418
139.6993,-0.000406888
139.7993,-0.0004063493
139.8993,-0.0004058022
139.9993,-0.0004052099
140.0993,-0.000404706
140.1994,-0.0004041626
140.2994,-0.0004036908
140.3994,-0.0004031192
140.4994,-0.0004025334
140.5994,-0.0004019863
140.6994,-0.0004014702
140.7994,-0.0004009815
140.8994,-0.0004003938
140.9994,-0.0003999069
141.0994,-0.0003993796
141.1994,-0.0003988296
141.2994,-0.000398339
141.3994,-0.0003978182
141.4994,-0.0003972899
141.5994,-0.000396739
141.6994,-0.0003962389
141.7995,-0.0003957605
141.8995,-0.0003951955
141.9995,-0.0003947491
142.0995,-0.000394218
142.1995,-0.0003936576
142.2995,-0.0003931783
142.3995,-0.0003926679
142.4995,-0.0003921141
142.5995,-0.0003916
142.6995,-0.0003911178
142.7995,-0.000390597
142.8995,-0.0003900724
142.9995,-0.0003895865
143.0995,-0.000389045
143.1995,-0.0003885299
143.2995,-0.0003880619
143.3996,-0.000387526
143.4996,-0.0003870344
143.5996,-0.0003865184
143.6996,-0.0003859778
143.7996,-0.0003855164
143.8996,-0.0003850521
143.9996,-0.0003845436
144.0996,-0.0003840275
144.1996,-0.0003835283
144.2996,-0.0003830773
144.3996,-0.0003825998
144.4996,-0.0003821327
144.5996,-0.0003815809
144.6996,-0.0003810742
144.7996,-0.0003805949
144.8996,-0.0003801099
144.9996,-0.0003796409
145.0997,-0.0003791483
145.1997,-0.000378621
145.2997,-0.0003781662
145.3997,-0.0003777
145.4997,-0.0003771839
145.5997,-0.0003767027
145.6997,-0.0003762252
145.7997,-0.0003757186
145.8997,-0.0003752628
145.9997,-0.0003748098
146.0997,-0.0003743201
146.1997,-0.0003738653
146.2997,-0.0003733567
146.3997,-0.0003729103
146.4997,-0.0003724178
146.5997,-0.0003719498
146.6998,-0.0003714667
146.7998,-0.0003710024
146.8998,-0.0003705381
146.9998,-0.0003700776
147.0998,-0.0003696124
147.1998,-0.0003691368
147.2998,-0.0003686612
147.3998,-0.0003682215
147.4998,-0.0003677657
147.5998,-0.0003672901
147.6998,-0.0003668362
147.7998,-0.0003663126
147.8998,-0.0003658634
147.9998,-0.000365433
148.0998,-0.0003649885
148.1998,-0.000364496
148.2999,-0.0003640373
148.3999,-0.0003635778
148.4999,-0.0003631512
148.5999,-0.0003626841
148.6999,-0.0003622443
148.7999,-0.0003617443
148.8999,-0.000361376
148.9999,-0.0003609296
149.0999,-0.0003604597
149.1999,-0.0003600435
149.2999,-0.0003595764
149.3999,-0.0003591234
149.4999,-0.0003586572
149.5999,-0.0003582466
149.6999,-0.0003578285
149.7999,-0.0003573944
149.8999,-0.0003569894
150,-0.0003564969
150.1,-0.0003560392
150.2,-0.0003556211
150.3,-0.000355202
150.4,-0.000354767
150.5,-0.0003543253
150.6,-0.0003538723
150.7,-0.0003534335
150.8,-0.0003529956
150.9,-0.0003525576
151,-0.0003521564
151.1,-0.0003516837
151.2,-0.0003512129
151.3,-0.0003508013
151.4,-0.0003503681
151.5,-0.0003499528
151.6001,-0.0003495196
151.7001,-0.0003490883
151.8001,-0.0003486128
151.9001,-0.0003481937
152.0001,-0.0003477652
152.1001,-0.0003473244
152.2001,-0.000346927
152.3001,-0.0003464929
152.4001,-0.0003460258
152.5001,-0.0003456444
152.6001,-0.0003452197
152.7001,-0.0003447902
152.8001,-0.0003443815
152.9001,-0.0003439738
153.0001,-0.0003435283
153.1001,-0.0003431384
153.2001,-0.0003427326
153.3002,-0.0003422965
153.4002,-0.0003419415
153.5002,-0.0003415111
153.6002,-0.0003410666
153.7002,-0.0003406749
153.8002,-0.0003402841
153.9002,-0.000339832
154.0002,-0.0003394421
154.1002,-0.000339056
154.2002,-0.0003385889
154.3002,-0.000338216
154.4002,-0.0003378149
154.5002,-0.0003373722
154.6002,-0.0003369607
154.7002,-0.0003365708
154.8002,-0.0003361395
154.9003,-0.0003357487
155.0003,-0.0003353174
155.1003,-0.0003348917
155.2003,-0.000334515
155.3003,-0.000334127
155.4003,-0.0003336938
155.5003,-0.0003333086
155.6003,-0.0003329094
155.7003,-0.0003325185
155.8003,-0.0003321042
155.9003,-0.0003317313
156.0003,-0.0003312981
156.1003,-0.0003309129
156.2003,-0.0003305258
156.3003,-0.0003301002
156.4003,-0.0003297518
156.5004,-0.0003293807
156.6004,-0.0003289418
156.7004,-0.0003285482
156.8004,-0.0003281677
156.9004,-0.0003277628
157.0004,-0.0003274021
157.1004,-0.0003269887
157.2004,-0.0003265894
157.3004,-0.0003261873
157.4004,-0.0003258501
157.5004,-0.0003254612
157.6004,-0.0003250647
157.7004,-0.0003246626
157.8004,-0.000324221
157.9004,-0.0003238329
158.0004,-0.0003234553
158.1004,-0.0003230589
158.2005,-0.0003227038
158.3005,-0.0003223337
158.4005,-0.0003219363
158.5005,-0.0003215267
158.6005,-0.0003211773
158.7005,-0.0003207629
158.8005,-0.0003204211
158.9005,-0.0003200595
159.0005,-0.0003196695
159.1005,-0.0003192825
159.2005,-0.0003189218
159.3005,-0.000318563
159.4005,-0.0003181863
159.5005,-0.0003178577
159.6005,-0.0003174386
159.7005,-0.0003170563
159.8006,-0.0003166843
159.9006,-0.0003163311
160.0006,-0.0003159667
160.1006,-0.0003155759
160.2006,-0.0003152104
160.3006,-0.0003148639
160.4006,-0.0003144985
160.5006,-0.0003141444
160.6006,-0.00031378
160.7006,-0.0003134447
160.8006,-0.0003130633
160.9006,-0.0003126744
161.0006,-0.0003123297
161.1006,-0.0003119775
161.2006,-0.0003116112
161.3006,-0.0003112589
161.4007,-0.0003108992
161.5007,-0.0003105442
161.6007,-0.0003101477
161.7007,-0.0003097927
161.8007,-0.0003094198
161.9007,-0.000309076
162.0007,-0.0003086918
162.1007,-0.000308334
162.2007,-0.0003079912
162.3007,-0.0003075909
162.4007,-0.000307234
162.5007,-0.0003068799
162.6007,-0.0003065381
162.7007,-0.0003061859
162.8007,-0.0003058186
162.9007,-0.0003054297
163.0007,-0.0003050934
163.1008,-0.0003047667
163.2008,-0.0003044239
163.3008,-0.0003041056
163.4008,-0.0003037468
163.5008,-0.0003034105
163.6008,-0.0003030828
163.7008,-0.0003027523
163.8008,-0.000302337
163.9008,-0.0003020017
164.0008,-0.0003016712
164.1008,-0.0003013284
164.2008,-0.0003009894
164.3008,-0.0003006616
164.4008,-0.0003002577
164.5008,-0.0002999355
164.6008,-0.0002996117
164.7009,-0.0002992453
164.8009,-0.0002989016
164.9009,-0.0002985757
165.0009,-0.0002982
165.1009,-0.0002978685
165.2009,-0.0002975257
165.3009,-0.0002971556
165.4009,-0.0002968599
165.5009,-0.0002965152
165.6009,-0.0002961442
165.7009,-0.0002958183
165.8009,-0.0002955302
165.9009,-0.0002951478
166.0009,-0.0002948295
166.1009,-0.0002945027
166.2009,-0.0002941119
166.3009,-0.000293787
166.401,-0.0002934969
166.501,-0.0002931165
166.601,-0.0002927888
166.701,-0.0002924827
166.801,-0.0002921456
166.901,-0.0002918141
167.001,-0.0002915118
167.101,-0.0002911445
167.201,-0.0002908187
167.301,-0.0002905305
167.401,-0.0002901755
167.501,-0.0002898657
167.601,-0.0002895521
167.701,-0.0002892017
167.801,-0.0002889098
167.901,-0.000288616
168.0011,-0.0002882515
168.1011,-0.0002879153
168.2011,-0.0002875932
168.3011,-0.0002872637
168.4011,-0.0002869585
168.5011,-0.0002866515
168.6011,-0.0002863182
168.7011,-0.0002859895
168.8011,-0.0002856373
168.9011,-0.0002853321
169.0011,-0.0002850722
169.1011,-0.000284769
169.2011,-0.0002844582
169.3011,-0.0002841644
169.4011,-0.0002838781
169.5011,-0.0002835523
169.6012,-0.0002832632
169.7012,-0.0002829072
169.8012,-0.0002825955
169.9012,-0.0002823205
170.0012,-0.0002819985
170.1012,-0.0002816801
170.2012,-0.0002813486
170.3012,-0.0002810614
170.4012,-0.0002807591
170.5012,-0.0002804672
170.6012,-0.000280147
170.7012,-0.0002798579
170.8012,-0.0002795424
170.9012,-0.0002792401
171.0012,-0.0002789218
171.1012,-0.0002786186
171.2012,-0.0002782814
171.3013,-0.0002779565
171.4013,-0.0002776749
171.5013,-0.0002773886
171.6013,-0.0002770882
171.7013,-0.0002768208
171.8013,-0.0002765147
171.9013,-0.0002761823
172.0013,-0.0002758885
172.1013,-0.000275589
172.2013,-0.0002752603
172.3013,-0.0002749731
172.4013,-0.000274684
172.5013,-0.000274344
172.6013,-0.0002740436
172.7013,-0.0002737988
172.8013,-0.0002734569
172.9014,-0.000273149
173.0014,-0.000272857
173.1014,-0.0002725425
173.2014,-0.0002722685
173.3014,-0.0002719775
173.4014,-0.0002716601
173.5014,-0.0002713738
173.6014,-0.0002710903
173.7014,-0.0002707758
173.8014,-0.0002705008
173.9014,-0.000270192
174.0014,-0.0002698397
174.1014,-0.0002695836
174.2014,-0.0002693152
174.3014,-0.0002690006
174.4014,-0.0002687181
174.5014,-0.0002684272
174.6015,-0.0002681248
174.7015,-0.0002678433
174.8015,-0.0002675786
174.9015,-0.0002672726
175.0015,-0.0002670033
175.1015,-0.0002667245
175.2015,-0.0002664241
175.3015,-0.0002661378
175.4015,-0.0002658609
175.5015,-0.0002655643
175.6015,-0.0002652818
175.7015,-0.0002650087
175.8015,-0.0002647139
175.9015,-0.0002644248
176.0015,-0.000264146
176.1015,-0.0002638484
176.2016,-0.0002636168
176.3016,-0.0002633955
176.4016,-0.0002630668
176.5016,-0.0002627749
176.6016,-0.0002625244
176.7016,-0.0002622268
176.8016,-0.0002619678
176.9016,-0.0002616777
177.0016,-0.0002613783
177.1016,-0.0002611184
177.2016,-0.0002608273
177.3016,-0.0002605533
177.4016,-0.0002603169
177.5016,-0.0002600457
177.6016,-0.000259719
177.7016,-0.0002594552
177.8017,-0.0002591728
177.9017,-0.0002588874
178.0017,-0.0002586303
178.1017,-0.0002583572
178.2017,-0.0002580408
178.3017,-0.0002578176
178.4017,-0.000257569
178.5017,-0.000257245
178.6017,-0.0002570341
178.7017,-0.0002567591
178.8017,-0.0002564238
178.9017,-0.0002561847
179.0017,-0.0002559369
179.1017,-0.0002556347
179.2017,-0.0002553992
179.3017,-0.0002551271
179.4017,-0.0002548088
179.5018,-0.0002545658
179.6018,-0.000254336
179.7018,-0.0002540064
179.8018,-0.0002537352
179.9018,-0.0002534922
180.0018,-0.0002532295
180.1018,-0.0002529762
180.2018,-0.0002527539
180.3018,-0.0002524685
180.4018,-0.0002522011
180.5018,-0.0002519459
180.6018,-0.0002516803
180.7018,-0.000251443
180.8018,-0.0002511586
180.9018,-0.0002508478
181.0018,-0.0002506736
181.1019,-0.0002504033
181.2019,-0.0002501001
181.3019,-0.0002498835
181.4019,-0.0002496245
181.5019,-0.0002493787
181.6019,-0.0002491169
181.7019,-0.0002488212
181.8019,-0.0002485453
181.9019,-0.0002483061
182.0019,-0.0002480481
182.1019,-0.0002477646
182.2019,-0.0002475395
182.3019,-0.0002472872
182.4019,-0.0002470319
182.5019,-0.000246756
182.6019,-0.0002465206
182.702,-0.0002461702
182.802,-0.0002459809
182.902,-0.0002457098
183.002,-0.0002454056
183.102,-0.0002451683
183.202,-0.0002449262
183.302,-0.0002446795
183.402,-0.0002444469
183.502,-0.0002441898
183.602,-0.0002439214
183.702,-0.0002436539
183.802,-0.0002434082
183.902,-0.0002431539
184.002,-0.0002429006
184.102,-0.0002426453
184.202,-0.0002423977
184.302,-0.0002421566
184.4021,-0.0002419023
184.5021,-0.0002416339
184.6021,-0.0002414315
184.7021,-0.0002411894
184.8021,-0.0002409173
184.9021,-0.0002406253
185.0021,-0.0002403908
185.1021,-0.000240145
185.2021,-0.0002398917
185.3021,-0.0002396572
185.4021,-0.0002393888
185.5021,-0.0002391477
185.6021,-0.0002389208
185.7021,-0.0002386477
185.8021,-0.0002383915
185.9021,-0.0002381693
186.0022,-0.0002379405
186.1022,-0.0002376937
186.2022,-0.0002374404
186.3022,-0.0002371993
186.4022,-0.0002369413
186.5022,-0.0002367463
186.6022,-0.0002364902
186.7022,-0.0002362501
186.8022,-0.0002360014
186.9022,-0.0002357349
187.0022,-0.0002355183
187.1022,-0.0002352923
187.2022,-0.0002350522
187.3022,-0.0002347951
187.4022,-0.0002345653
187.5022,-0.0002343289
187.6022,-0.000234102
187.7023,-0.0002338863
187.8023,-0.0002336367
187.9023,-0.0002333938
188.0023,-0.0002331866
188.1023,-0.0002329804
188.2023,-0.0002327242
188.3023,-0.0002324652
188.4023,-0.0002322496
188.5023,-0.0002320076
188.6023,-0.000231807
188.7023,-0.0002315574
188.8023,-0.0002313126
188.9023,-0.0002311459
189.0023,-0.0002309566
189.1023,-0.0002306901
189.2023,-0.0002304443
189.3024,-0.0002302456
189.4024,-0.0002299631
189.5024,-0.000229737
189.6024,-0.0002295223
189.7024,-0.0002292803
189.8024,-0.0002290467
189.9024,-0.0002288104
190.0024,-0.0002286098
190.1024,-0.0002283584
190.2024,-0.0002281625
190.3024,-0.0002279336
190.4024,-0.0002277104
190.5024,-0.0002274901
190.6024,-0.0002272405
190.7024,-0.0002270352
190.8024,-0.0002268233
190.9025,-0.0002265822
191.0025,-0.0002263807
191.1025,-0.0002261349
191.2025,-0.0002259164
191.3025,-0.0002257205
191.4025,-0.0002255322
191.5025,-0.0002252996
191.6025,-0.0002250839
191.7025,-0.0002248617
191.8025,-0.0002246206
191.9025,-0.0002243984
192.0025,-0.0002241799
192.1025,-0.0002239501
192.2025,-0.0002237241
192.3025,-0.0002235009
192.4025,-0.0002232796
192.5025,-0.0002230912
192.6026,-0.0002228812
192.7026,-0.0002226684
192.8026,-0.0002224461
192.9026,-0.0002222277
193.0026,-0.0002220073
193.1026,-0.00022185
193.2026,-0.000221592
193.3026,-0.0002213745
193.4026,-0.0002211692
193.5026,-0.0002209149
193.6026,-0.0002207115
193.7026,-0.0002205505
193.8026,-0.0002202981
193.9026,-0.0002200655
194.0026,-0.000219879
194.1026,-0.0002196549
194.2027,-0.000219426
194.3027,-0.0002192217
194.4027,-0.0002189834
194.5027,-0.0002187555
194.6027,-0.00021857
194.7027,-0.0002183562
194.8027,-0.0002181312
194.9027,-0.0002179211
195.0027,-0.0002177215
195.1027,-0.0002175275
195.2027,-0.0002173118
195.3027,-0.0002170708
195.4027,-0.0002168419
195.5027,-0.0002166734
195.6027,-0.0002164539
195.7027,-0.0002162241
195.8027,-0.0002160141
195.9028,-0.0002157749
196.0028,-0.0002155715
196.1028,-0.0002153916
196.2028,-0.0002151722
196.3028,-0.0002149688
196.4028,-0.0002147936
196.5028,-0.0002146025
196.6028,-0.0002144038
196.7028,-0.0002141938
196.8028,-0.0002139725
196.9028,-0.0002137511
197.0028,-0.000213608
197.1028,-0.0002133679
197.2028,-0.0002131758
197.3028,-0.0002129761
197.4028,-0.0002127708
197.5029,-0.0002125853
197.6029,-0.0002123866
197.7029,-0.0002121775
197.8029,-0.0002120023
197.9029,-0.0002118008
198.0029,-0.0002115786
198.1029,-0.0002113601
198.2029,-0.0002111953
198.3029,-0.0002109938
198.4029,-0.0002107969
198.5029,-0.000210602
198.6029,-0.0002103628
198.7029,-0.0002101999
198.8029,-0.0002100586
198.9029,-0.0002098618
199.0029,-0.0002096207
199.103,-0.0002094239
199.203,-0.0002092346
199.303,-0.0002090114
199.403,-0.0002088532
199.503,-0.0002086733
199.603,-0.0002084275
199.703,-0.0002082467
199.803,-0.0002080452
199.903,-0.0002078333
200.003,-0.0002076544
200.103,-0.0002074821
200.203,-0.0002072777
200.303,-0.0002070677
200.403,-0.0002068916
200.503,-0.0002066693
200.603,-0.0002064904
200.703,-0.0002063209
200.8031,-0.0002060986
200.9031,-0.0002059084
201.0031,-0.0002056975
201.1031,-0.0002055308
201.2031,-0.0002053226
201.3031,-0.0002051192
201.4031,-0.0002049469
201.5031,-0.0002047473
201.6031,-0.0002045815
201.7031,-0.0002043903
201.8031,-0.0002041954
201.9031,-0.0002040033
202.0031,-0.0002038272
202.1031,-0.0002036728
202.2031,-0.0002034863
202.3031,-0.0002032734
202.4032,-0.0002031077
202.5032,-0.0002029062
202.6032,-0.000202714
202.7032,-0.000202538
202.8032,-0.0002023703
202.9032,-0.0002021462
203.0032,-0.0002019644
203.1032,-0.0002017921
203.2032,-0.0002015896
203.3032,-0.0002014437
203.4032,-0.0002012723
203.5032,-0.0002010689
203.6032,-0.0002008861
203.7032,-0.0002006884
203.8032,-0.0002005038
203.9032,-0.0002003541
204.0033,-0.0002001507
204.1033,-0.0001999491
204.2033,-0.0001997646
204.3033,-0.0001995734
204.4033,-0.00019937
204.5033,-0.0001992061
204.6033,-0.0001990272
204.7033,-0.0001988209
204.8033,-0.0001986731
204.9033,-0.0001984715
205.0033,-0.0001982832
205.1033,-0.0001981646
205.2033,-0.00019798
205.3033,-0.0001977332
205.4033,-0.0001975411
205.5033,-0.0001973904
205.6033,-0.0001971673
205.7034,-0.0001970458
205.8034,-0.0001968348
205.9034,-0.0001966446
206.0034,-0.0001964628
206.1034,-0.0001963103
206.2034,-0.0001961295
206.3034,-0.0001959421
206.4034,-0.0001957763
206.5034,-0.0001956087
206.6034,-0.0001954458
206.7034,-0.0001952715
206.8034,-0.0001950512
206.9034,-0.0001948685
207.0034,-0.0001947065
207.1034,-0.0001945398
207.2034,-0.0001943571
207.3035,-0.0001941886
207.4035,-0.0001939852
207.5035,-0.0001938025
207.6035,-0.0001936414
207.7035,-0.0001934634
207.8035,-0.0001932977
207.9035,-0.0001931122
208.0035,-0.0001929351
208.1035,-0.000192776
208.2035,-0.00019263
208.3035,-0.0001924125
208.4035,-0.0001922514
208.5035,-0.0001920932
208.6035,-0.0001919171
208.7035,-0.0001917382
208.8035,-0.0001915894
208.9035,-0.0001914189
209.0036,-0.0001912617
209.1036,-0.0001910733
209.2036,-0.0001908765
209.3036,-0.0001907136
209.4036,-0.0001905742
209.5036,-0.000190384
209.6036,-0.0001902314
209.7036,-0.0001900591
209.8036,-0.0001898641
209.9036,-0.0001897313
210.0036,-0.0001895628
210.1036,-0.0001893594
210.2036,-0.0001892106
210.3036,-0.0001890363
210.4036,-0.0001888574
210.5036,-0.0001886964
210.6037,-0.0001885466
210.7037,-0.0001883451
210.8037,-0.0001881775
210.9037,-0.0001880325
211.0037,-0.0001878469
211.1037,-0.0001877368
211.2037,-0.0001875635
211.3037,-0.0001873403
211.4037,-0.0001871962
211.5037,-0.0001870521
211.6037,-0.000186892
211.7037,-0.0001867169
211.8037,-0.0001865794
211.9037,-0.000186407
212.0037,-0.0001862517
212.1037,-0.0001860972
212.2038,-0.0001858947
212.3038,-0.0001857346
212.4038,-0.0001856066
212.5038,-0.0001854361
212.6038,-0.0001852685
212.7038,-0.0001850792
212.8038,-0.0001849417
212.9038,-0.0001848023
213.0038,-0.0001846385
213.1038,-0.0001844275
213.2038,-0.0001842891
213.3038,-0.000184129
213.4038,-0.0001839896
213.5038,-0.0001838361
213.6038,-0.000183692
213.7038,-0.0001835084
213.8038,-0.0001833775
213.9039,-0.0001832334
214.0039,-0.0001830695
214.1039,-0.0001828991
214.2039,-0.0001827785
214.3039,-0.0001826005
214.4039,-0.0001824678
214.5039,-0.0001823199
214.6039,-0.0001821514
214.7039,-0.0001820186
214.8039,-0.0001818321
214.9039,-0.0001816466
215.0039,-0.0001815044
215.1039,-0.0001813575
215.2039,-0.0001811748
215.3039,-0.0001810184
215.4039,-0.0001808348
215.504,-0.0001806596
215.604,-0.0001805287
215.704,-0.0001803847
215.804,-0.0001801803
215.904,-0.0001800136
216.004,-0.0001798865
216.104,-0.0001797029
216.204,-0.0001796049
216.304,-0.0001794429
216.404,-0.0001792423
216.504,-0.0001791312
216.604,-0.0001789862
216.704,-0.0001788054
216.804,-0.0001786651
216.904,-0.0001785294
217.004,-0.000178327
217.104,-0.0001782187
217.2041,-0.0001780511
217.3041,-0.0001778524
217.4041,-0.0001777148
217.5041,-0.0001776084
217.6041,-0.0001774173
217.7041,-0.0001772694
217.8041,-0.0001771225
217.9041,-0.0001769756
218.0041,-0.0001768438
218.1041,-0.0001766912
218.2041,-0.0001765405
218.3041,-0.0001764115
218.4041,-0.000176275
218.5041,-0.0001761177
218.6041,-0.0001759501
218.7041,-0.0001758135
218.8042,-0.00017566
218.9042,-0.0001755206
219.0042,-0.0001753596
219.1042,-0.0001751835
219.2042,-0.0001750733
219.3042,-0.0001749207
219.4042,-0.0001747531
219.5042,-0.0001746392
219.6042,-0.000174496
219.7042,-0.0001743444
219.8042,-0.0001742126
219.9042,-0.0001740732
220.0042,-0.0001739357
220.1042,-0.0001737944
220.2042,-0.0001736475
220.3042,-0.0001734902
220.4043,-0.0001733311
220.5043,-0.00017322
220.6043,-0.0001730665
220.7043,-0.0001729205
220.8043,-0.0001727736
220.9043,-0.0001726088
221.0043,-0.0001725061
221.1043,-0.000172331
221.2043,-0.0001721671
221.3043,-0.0001720343
221.4043,-0.0001719223
221.5043,-0.0001717716
221.6043,-0.0001716143
221.7043,-0.000171457
221.8043,-0.0001713205
221.9043,-0.0001711887
222.0043,-0.0001710738
222.1044,-0.0001708911
222.2044,-0.0001707762
222.3044,-0.0001706547
222.4044,-0.0001704993
222.5044,-0.0001703119
222.6044,-0.0001702055
222.7044,-0.0001700558
222.8044,-0.0001699023
222.9044,-0.0001697488
223.0044,-0.0001696122
223.1044,-0.0001694465
223.2044,-0.0001693532
223.3044,-0.0001692129
223.4044,-0.0001690104
223.5044,-0.0001689332
223.6044,-0.0001687995
223.7045,-0.000168661
223.8045,-0.0001685349
223.9045,-0.0001683757
224.0045,-0.0001682147
224.1045,-0.0001680988
224.2045,-0.0001679548
224.3045,-0.0001677918
224.4045,-0.0001676704
224.5045,-0.0001675253
224.6045,-0.0001673662
224.7045,-0.000167239
224.8045,-0.0001671053
224.9045,-0.0001669264
225.0045,-0.0001668143
225.1045,-0.0001666495
225.2045,-0.0001665036
225.3046,-0.0001663689
225.4046,-0.0001662502
225.5046,-0.0001661005
225.6046,-0.0001659555
225.7046,-0.0001658528
225.8046,-0.0001656795
225.9046,-0.0001655533
226.0046,-0.000165398
226.1046,-0.0001652755
226.2046,-0.0001651879
226.3046,-0.0001650316
226.4046,-0.0001648499
226.5046,-0.0001647369
226.6046,-0.0001646097
226.7046,-0.0001644647
226.8046,-0.000164362
226.9046,-0.0001642085
227.0047,-0.0001640513
227.1047,-0.0001639533
227.2047,-0.0001638215
227.3047,-0.0001636727
227.4047,-0.0001635588
227.5047,-0.0001634495
227.6047,-0.0001633054
227.7047,-0.0001632075
227.8047,-0.0001630766
227.9047,-0.0001629061
228.0047,-0.0001627799
228.1047,-0.0001626688
228.2047,-0.0001625219
228.3047,-0.0001623985
228.4047,-0.0001622648
228.5047,-0.0001621094
228.6048,-0.0001619974
228.7048,-0.0001618806
228.8048,-0.0001617243
228.9048,-0.0001616216
229.0048,-0.0001614775
229.1048,-0.0001613259
229.2048,-0.0001612129
229.3048,-0.000161098
229.4048,-0.0001609775
229.5048,-0.0001608428
229.6048,-0.0001607317
229.7048,-0.0001605603
229.8048,-0.000160452
229.9048,-0.0001603531
230.0048,-0.0001602137
230.1048,-0.000160112
230.2048,-0.0001599387
230.3049,-0.000159805
230.4049,-0.0001597127
230.5049,-0.000159595
230.6049,-0.0001594481
230.7049,-0.0001593285
230.8049,-0.0001592145
230.9049,-0.0001590573
231.0049,-0.0001589697
231.1049,-0.0001588586
231.2049,-0.0001586862
231.3049,-0.0001585987
231.4049,-0.0001584791
231.5049,-0.0001583406
231.6049,-0.0001582135
231.7049,-0.0001581137
231.8049,-0.0001579818
231.905,-0.0001578679
232.005,-0.0001577539
232.105,-0.0001576456
232.205,-0.0001575288
232.305,-0.0001574027
232.405,-0.0001572595
232.505,-0.0001571305
232.605,-0.000157009
232.705,-0.0001568951
232.805,-0.0001567613
232.905,-0.0001566728
233.005,-0.0001564845
233.105,-0.0001563856
233.205,-0.0001562716
233.305,-0.0001561379
233.405,-0.0001560597
233.5051,-0.0001558921
233.6051,-0.000155733
233.7051,-0.0001556256
233.8051,-0.0001555446
233.9051,-0.000155377
234.0051,-0.0001552668
234.1051,-0.0001551604
234.2051,-0.0001550257
234.3051,-0.0001549315
234.4051,-0.0001547969
234.5051,-0.0001546716
234.6051,-0.0001545577
234.7051,-0.0001544579
234.8051,-0.0001543043
234.9051,-0.0001542017
235.0051,-0.0001540699
235.1051,-0.000153955
235.2052,-0.0001538288
235.3052,-0.0001537242
235.4052,-0.0001536094
235.5052,-0.0001534785
235.6052,-0.000153373
235.7052,-0.000153227
235.8052,-0.00015313
235.9052,-0.000153033
236.0052,-0.0001528842
236.1052,-0.0001527693
236.2052,-0.0001526582
236.3052,-0.0001525207
236.4052,-0.0001524247
236.5052,-0.0001523324
236.6052,-0.0001521836
236.7052,-0.0001520621
236.8053,-0.0001519623
236.9053,-0.0001518257
237.0053,-0.0001517231
237.1053,-0.0001516289
237.2053,-0.000151482
237.3053,-0.0001513765
237.4053,-0.0001512334
237.5053,-0.0001511317
237.6053,-0.0001510337
237.7053,-0.0001509009
237.8053,-0.000150755
237.9053,-0.000150658
238.0053,-0.0001505553
238.1053,-0.0001504207
238.2053,-0.0001503218
238.3053,-0.0001502116
238.4053,-0.0001500807
238.5054,-0.0001499837
238.6054,-0.0001498679
238.7054,-0.0001497483
238.8054,-0.0001496663
238.9054,-0.0001495533
239.0054,-0.0001494431
239.1054,-0.0001493254
239.2054,-0.0001492312
239.3054,-0.0001491032
239.4054,-0.0001489713
239.5054,-0.0001488508
239.6054,-0.0001487472
239.7054,-0.0001486446
239.8054,-0.0001485513
239.9054,-0.0001484138
240.0054,-0.0001482763
240.1055,-0.0001482132
240.2055,-0.0001481115
240.3055,-0.0001479797
240.4055,-0.0001478478
240.5055,-0.0001477235
240.6055,-0.0001476322
240.7055,-0.0001475465
240.8055,-0.0001474156
240.9055,-0.0001472838
241.0055,-0.0001471698
241.1055,-0.0001470964
241.2055,-0.0001469852
241.3055,-0.0001468929
241.4055,-0.0001467413
241.5055,-0.0001466443
241.6055,-0.0001465407
241.7056,-0.00014644
241.8056,-0.0001463213
241.9056,-0.0001461998
242.0056,-0.0001461009
242.1056,-0.0001460058
242.2056,-0.0001458994
242.3056,-0.0001457808
242.4056,-0.0001456489
242.5056,-0.0001455971
242.6056,-0.0001454634
242.7056,-0.0001453202
242.8056,-0.0001452543
242.9056,-0.0001451601
243.0056,-0.0001450198
243.1056,-0.0001449511
243.2056,-0.0001447995
243.3056,-0.0001446921
243.4057,-0.0001445998
243.5057,-0.0001445339
243.6057,-0.0001443823
243.7057,-0.000144289
243.8057,-0.0001442005
243.9057,-0.0001440555
244.0057,-0.0001439886
244.1057,-0.0001439086
244.2057,-0.0001437532
244.3057,-0.0001436637
244.4057,-0.0001435347
244.5057,-0.0001434358
244.6057,-0.0001433322
244.7057,-0.0001432531
244.8057,-0.0001431251
244.9057,-0.0001430318
245.0058,-0.0001429009
245.1058,-0.0001428341
245.2058,-0.0001427418
245.3058,-0.0001425986
245.4058,-0.0001424668
245.5058,-0.0001423915
245.6058,-0.0001423001
245.7058,-0.0001421909
245.8058,-0.0001420995
245.9058,-0.0001420044
246.0058,-0.0001418895
246.1058,-0.0001418038
246.2058,-0.0001416955
246.3058,-0.0001415778
246.4058,-0.0001415251
246.5058,-0.0001414196
246.6059,-0.0001412821
246.7059,-0.0001411757
246.8059,-0.000141105
246.9059,-0.0001409742
247.0059,-0.0001408969
247.1059,-0.0001407811
247.2059,-0.0001406426
247.3059,-0.000140588
247.4059,-0.0001404826
247.5059,-0.0001403526
247.6059,-0.0001402839
247.7059,-0.0001401473
247.8059,-0.0001400343
247.9059,-0.0001399646
248.0059,-0.0001398676
248.1059,-0.0001397348
248.2059,-0.000139652
248.306,-0.0001395418
248.406,-0.0001394429
248.506,-0.0001393553
248.606,-0.0001392743
248.706,-0.0001391378
248.806,-0.0001390719
248.906,-0.000138988
249.006,-0.0001388393
249.106,-0.0001387714
249.206,-0.0001386697
249.306,-0.000138569
249.406,-0.0001384842
249.506,-0.0001383721
249.606,-0.0001382686
249.706,-0.0001381706
249.806,-0.0001381047
249.9061,-0.0001379907
250.0061,-0.0001378617
250.1061,-0.0001377996
250.2061,-0.0001377205
250.3061,-0.0001375981
250.4061,-0.000137518
250.5061,-0.0001373993
250.6061,-0.0001372957
250.7061,-0.0001372214
250.8061,-0.0001371319
250.9061,-0.0001370066
251.0061,-0.0001369087
251.1061,-0.0001368079
251.2061,-0.000136726
251.3061,-0.0001366422
251.4061,-0.0001365301
251.5061,-0.0001364303
251.6062,-0.0001363371
251.7062,-0.0001362335
251.8062,-0.0001361449
251.9062,-0.0001360517
252.0062,-0.0001359867
252.1062,-0.0001358747
252.2062,-0.0001357711
252.3062,-0.0001356581
252.4062,-0.0001355573
252.5062,-0.0001354952
252.6062,-0.0001353953
252.7062,-0.0001352899
252.8062,-0.0001351778
252.9062,-0.000135077
253.0062,-0.0001349782
253.1062,-0.0001349094
253.2063,-0.0001348086
253.3063,-0.0001347041
253.4063,-0.0001346231
253.5063,-0.0001345271
253.6063,-0.000134414
253.7063,-0.0001343622
253.8063,-0.0001342549
253.9063,-0.0001341607
254.0063,-0.0001340647
254.1063,-0.0001339695
254.2063,-0.000133882
254.3063,-0.0001338358
254.4063,-0.0001337586
254.5063,-0.0001335882
254.6063,-0.0001335288
254.7063,-0.0001334535
254.8064,-0.000133364
254.9064,-0.000133268
255.0064,-0.0001331794
255.1064,-0.000133058
255.2064,-0.0001330024
255.3064,-0.0001328903
255.4064,-0.0001327679
255.5064,-0.0001327472
255.6064,-0.0001326935
255.7064,-0.0001325343
255.8064,-0.0001324543
255.9064,-0.000132378
256.0064,-0.0001322575
256.1064,-0.0001321972
256.2064,-0.0001321115
256.3064,-0.0001320004
256.4064,-0.0001319053
256.5064,-0.0001318281
256.6064,-0.0001317282
256.7065,-0.0001316171
256.8065,-0.0001315578
256.9065,-0.0001314476
257.0065,-0.0001313732
257.1065,-0.0001312621
257.2065,-0.0001311594
257.3065,-0.0001310718
257.4065,-0.0001310012
257.5065,-0.0001308967
257.6065,-0.0001308214
257.7065,-0.0001307206
257.8065,-0.0001306198
257.9065,-0.0001305699
258.0065,-0.0001304644
258.1065,-0.0001303448
258.2065,-0.0001302827
258.3065,-0.0001301923
258.4066,-0.0001301037
258.5066,-0.0001300171
258.6066,-0.0001299323
258.7066,-0.0001298222
258.8066,-0.0001297515
258.9066,-0.000129663
259.0066,-0.0001295472
259.1066,-0.0001294954
259.2066,-0.0001294003
259.3066,-0.0001292713
259.4066,-0.0001292129
259.5066,-0.0001291319
259.6066,-0.0001290292
259.7066,-0.0001289501
259.8066,-0.0001288578
259.9066,-0.0001287411
260.0067,-0.0001286638
260.1067,-0.0001286054
260.2067,-0.0001284962
260.3067,-0.0001284171
260.4067,-0.0001283672
260.5067,-0.0001282354
260.6067,-0.0001281892
260.7067,-0.0001280922
260.8067,-0.0001279886
260.9067,-0.0001279293
261.0067,-0.0001278878
261.1067,-0.0001277748
261.2067,-0.000127707
261.3067,-0.0001276477
261.4067,-0.0001275507
261.5067,-0.0001274999
261.6068,-0.0001274377
261.7068,-0.0001273445
261.8068,-0.0001272729
261.9068,-0.0001271966
262.0068,-0.0001270902
262.1068,-0.0001270412
262.2068,-0.0001269715
262.3068,-0.0001268755
262.4068,-0.0001267964
262.5068,-0.0001267267
262.6068,-0.0001266288
262.7068,-0.0001265628
262.8068,-0.0001264583
262.9068,-0.0001263717
263.0068,-0.0001263189
263.1068,-0.0001262266
263.2068,-0.0001261381
263.3069,-0.00012606
263.4069,-0.0001259818
263.5069,-0.0001258876
263.6069,-0.0001258226
263.7069,-0.0001257539
263.8069,-0.0001256494
263.9069,-0.0001255834
264.0069,-0.0001255109
264.1069,-0.0001254139
264.2069,-0.000125332
264.3069,-0.0001252472
264.4069,-0.0001251823
264.5069,-0.0001251135
264.6069,-0.000125009
264.7069,-0.0001248922
264.8069,-0.0001248451
264.907,-0.0001247604
265.007,-0.0001246737
265.107,-0.0001245927
265.207,-0.0001245362
265.307,-0.0001244326
265.407,-0.0001243884
265.507,-0.0001242895
265.607,-0.0001241878
265.707,-0.0001241153
265.807,-0.0001240616
265.907,-0.0001239495
266.007,-0.0001238733
266.107,-0.0001238092
266.207,-0.0001237056
266.307,-0.0001236595
266.407,-0.0001235597
266.507,-0.0001234476
266.6071,-0.0001233883
266.7071,-0.0001233327
266.8071,-0.0001232244
266.9071,-0.0001231491
267.0071,-0.0001230747
267.1071,-0.0001229861
267.2071,-0.0001229202
267.3071,-0.0001228552
267.4071,-0.0001227545
267.5071,-0.0001226839
267.6071,-0.0001226179
267.7071,-0.000122519
267.8071,-0.000122439
267.9071,-0.0001223674
268.0071,-0.0001222921
268.1071,-0.0001221781
268.2072,-0.0001221263
268.3072,-0.0001220312
268.4072,-0.000121971
268.5072,-0.0001218947
268.6072,-0.0001217873
268.7072,-0.0001217167
268.8072,-0.0001216272
268.9072,-0.0001215387
269.0072,-0.0001214709
269.1072,-0.0001214191
269.2072,-0.0001212835
269.3072,-0.0001212072
269.4072,-0.0001211648
269.5072,-0.0001210707
269.6072,-0.0001209915
269.7072,-0.0001209237
269.8073,-0.0001208343
269.9073,-0.0001207759
270.0073,-0.0001207034
270.1073,-0.0001206186
270.2073,-0.0001205621
270.3073,-0.0001204887
270.4073,-0.0001203936
270.5073,-0.0001203361
270.6073,-0.0001202937
270.7073,-0.0001201845
270.8073,-0.0001201355
270.9073,-0.0001200574
271.0073,-0.0001199594
271.1073,-0.0001198982
271.2073,-0.0001198426
271.3073,-0.0001197494
271.4073,-0.0001196628
271.5074,-0.0001195846
271.6074,-0.0001195027
271.7074,-0.0001194471
271.8074,-0.0001193897
271.9074,-0.0001192936
272.0074,-0.0001192032
272.1074,-0.0001191316
272.2074,-0.0001190601
272.3074,-0.0001190073
272.4074,-0.0001189226
272.5074,-0.0001188237
272.6074,-0.0001187483
272.7074,-0.0001186994
272.8074,-0.0001186043
272.9074,-0.0001185553
273.0074,-0.0001184621
273.1075,-0.0001183754
273.2075,-0.0001183057
273.3075,-0.0001182144
273.4075,-0.0001181682
273.5075,-0.0001181004
273.6075,-0.0001180477
273.7075,-0.0001179742
273.8075,-0.0001178895
273.9075,-0.0001178377
274.0075,-0.0001177746
274.1075,-0.0001176823
274.2075,-0.0001176494
274.3075,-0.0001175693
274.4075,-0.0001174883
274.5075,-0.0001174233
274.6075,-0.0001173687
274.7076,-0.0001172689
274.8076,-0.0001172049
274.9076,-0.0001171399
275.0076,-0.0001170316
275.1076,-0.0001169732
275.2076,-0.0001168997
275.3076,-0.0001168084
275.4076,-0.0001167368
275.5076,-0.0001166737
275.6076,-0.0001166003
275.7076,-0.0001165127
275.8076,-0.000116427
275.9076,-0.0001163328
276.0076,-0.0001163168
276.1076,-0.0001162254
276.2076,-0.0001161285
276.3076,-0.0001160861
276.4077,-0.0001160041
276.5077,-0.0001159137
276.6077,-0.0001158535
276.7077,-0.0001157631
276.8077,-0.0001157018
276.9077,-0.0001156585
277.0077,-0.0001155851
277.1077,-0.0001154805
277.2077,-0.0001154033
277.3077,-0.0001153628
277.4077,-0.0001152781
277.5077,-0.0001152234
277.6077,-0.0001151914
277.7077,-0.0001150511
277.8077,-0.0001150125
277.9077,-0.0001149381
278.0078,-0.0001148552
278.1078,-0.000114811
278.2078,-0.0001147196
278.3078,-0.0001146255
278.4078,-0.0001145963
278.5078,-0.000114535
278.6078,-0.0001144399
278.7078,-0.0001143749
278.8078,-0.0001143053
278.9078,-0.0001142789
279.0078,-0.0001142422
279.1078,-0.0001141499
279.2078,-0.0001140661
279.3078,-0.000114003
279.4078,-0.0001139304
279.5078,-0.0001138551
279.6078,-0.0001137901
279.7079,-0.0001137223
279.8079,-0.0001136366
279.9079,-0.0001135867
280.0079,-0.0001135425
280.1079,-0.0001134219
280.2079,-0.0001133682
280.3079,-0.0001133014
280.4079,-0.0001132091
280.5079,-0.0001131347
280.6079,-0.0001130594
280.7079,-0.0001129812
280.8079,-0.0001129285
280.9079,-0.0001128832
281.0079,-0.0001127815
281.1079,-0.0001127071
281.2079,-0.0001126412
281.308,-0.0001125781
281.408,-0.0001125131
281.508,-0.0001124557
281.608,-0.0001123719
281.708,-0.0001123314
281.808,-0.0001122626
281.908,-0.0001121807
282.008,-0.0001121167
282.108,-0.000112047
282.208,-0.0001119848
282.308,-0.0001119264
282.408,-0.0001118332
282.508,-0.0001117645
282.608,-0.0001117268
282.708,-0.0001116618
282.808,-0.000111529
282.9081,-0.0001114763
283.0081,-0.000111433
283.1081,-0.0001113463
283.2081,-0.0001112927
283.3081,-0.0001112437
283.4081,-0.000111142
283.5081,-0.0001110845
283.6081,-0.0001110497
283.7081,-0.0001109621
283.8081,-0.0001108915
283.9081,-0.0001108416
284.0081,-0.000110753
284.1081,-0.0001106947
284.2081,-0.0001106429
284.3081,-0.0001105656
284.4081,-0.0001104903
284.5081,-0.0001104517
284.6082,-0.0001103764
284.7082,-0.0001103246
284.8082,-0.0001102624
284.9082,-0.0001101814
285.0082,-0.00011014
285.1082,-0.0001100835
285.2082,-0.0001099997
285.3082,-0.0001099356
285.4082,-0.000109881
285.5082,-0.0001097953
285.6082,-0.0001097774
285.7082,-0.0001097002
285.8082,-0.000109623
285.9082,-0.0001095589
286.0082,-0.000109526
286.1082,-0.0001094233
286.2083,-0.0001093819
286.3083,-0.0001093263
286.4083,-0.0001092491
286.5083,-0.0001091982
286.6083,-0.0001091408
286.7083,-0.0001090664
286.8083,-0.0001089835
286.9083,-0.0001089572
287.0083,-0.0001088743
287.1083,-0.0001088187
287.2083,-0.0001087246
287.3083,-0.0001086775
287.4083,-0.0001086671
287.5083,-0.0001086134
287.6083,-0.0001085117
287.7083,-0.0001084486
287.8083,-0.0001084044
287.9084,-0.0001083328
288.0084,-0.0001082923
288.1084,-0.0001082151
288.2084,-0.0001081181
288.3084,-0.0001080889
288.4084,-0.0001080456
288.5084,-0.0001079514
288.6084,-0.0001079034
288.7084,-0.000107844
288.8084,-0.0001077951
288.9084,-0.0001077583
289.0084,-0.0001076915
289.1084,-0.0001076133
289.2084,-0.0001075615
289.3084,-0.0001074692
289.4084,-0.0001074127
289.5085,-0.0001073666
289.6085,-0.0001072894
289.7085,-0.0001072272
289.8085,-0.0001071905
289.9085,-0.0001071198
290.0085,-0.0001070163
290.1085,-0.0001069918
290.2085,-0.0001069494
290.3085,-0.000106843
290.4085,-0.00010681
290.5085,-0.0001067516
290.6085,-0.000106681
290.7085,-0.000106649
290.8085,-0.000106585
290.9085,-0.0001064993
291.0085,-0.0001064107
291.1086,-0.0001063815
291.2086,-0.0001063203
291.3086,-0.0001062666
291.4086,-0.0001061922
291.5086,-0.0001061047
291.6086,-0.0001060651
291.7086,-0.0001060378
291.8086,-0.0001059389
291.9086,-0.0001058702
292.0086,-0.0001058146
292.1086,-0.0001057449
292.2086,-0.0001057129
292.3086,-0.0001056498
292.4086,-0.000105565
292.5086,-0.0001055085
292.6086,-0.0001054709
292.7086,-0.0001053833
292.8087,-0.0001053277
292.9087,-0.0001052882
293.0087,-0.0001051865
293.1087,-0.0001051855
293.2087,-0.0001050951
293.3087,-0.000105033
293.4087,-0.0001049944
293.5087,-0.0001049275
293.6087,-0.0001048569
293.7087,-0.0001048183
293.8087,-0.0001047448
293.9087,-0.0001047053
294.0087,-0.0001046346
294.1087,-0.0001045875
294.2087,-0.0001045075
294.3087,-0.00010445
294.4088,-0.0001044274
294.5088,-0.0001043493
294.6088,-0.0001042824
294.7088,-0.0001042203
294.8088,-0.0001042127
294.9088,-0.0001041477
295.0088,-0.0001040828
295.1088,-0.0001040168
295.2088,-0.000103949
295.3088,-0.0001039217
295.4088,-0.0001038577
295.5088,-0.0001037974
295.6088,-0.000103739
295.7088,-0.000103658
295.8088,-0.0001036533
295.9088,-0.0001035742
296.0089,-0.0001034349
296.1089,-0.0001034499
296.2089,-0.0001034292
296.3089,-0.0001033303
296.4089,-0.0001032729
296.5089,-0.0001032277
296.6089,-0.0001031665
296.7089,-0.0001031156
296.8089,-0.0001030657
296.9089,-0.0001029715
297.0089,-0.0001028821
297.1089,-0.0001028755
297.2089,-0.0001028048
297.3089,-0.0001027304
297.4089,-0.0001026815
297.5089,-0.000102657
297.6089,-0.000102559
297.709,-0.0001025393
297.809,-0.0001024526
297.909,-0.0001023811
298.009,-0.0001023905
298.109,-0.0001022982
298.209,-0.0001022247
298.309,-0.0001021729
298.409,-0.0001021315
298.509,-0.000102058
298.609,-0.0001020213
298.709,-0.0001019535
298.809,-0.0001018838
298.909,-0.0001018396
299.009,-0.0001018028
299.109,-0.0001017181
299.209,-0.0001016559
299.3091,-0.0001016041
299.4091,-0.0001015495
299.5091,-0.0001015476
299.6091,-0.0001014855
299.7091,-0.0001013517
299.8091,-0.000101331
299.9091,-0.000101315
300.0091,-0.000101235
300.1091,-0.0001011917
300.2091,-0.0001011351
300.3091,-0.0001010447
300.4091,-0.0001010127
300.5091,-0.0001009703
300.6091,-0.0001008903
300.7091,-0.000100846
300.8091,-0.0001007905
300.9091,-0.0001007001
301.0092,-0.0001006982
301.1092,-0.0001006341
301.2092,-0.0001005485
301.3092,-0.0001005117
301.4092,-0.0001004646
301.5092,-0.0001003855
301.6092,-0.0001003422
301.7092,-0.0001002537
301.8092,-0.0001001962
301.9092,-0.0001001774
302.0092,-0.0001001266
302.1092,-0.0001000427
302.2092,-0.0001000201
302.3092,-9.994103E-05
302.4092,-9.988358E-05
302.5092,-9.985251E-05
302.6093,-9.978094E-05
302.7093,-9.970466E-05
302.8093,-9.967735E-05
302.9093,-9.963591E-05
303.0093,-9.955963E-05
303.1093,-9.950878E-05
303.2093,-9.946169E-05
303.3093,-9.940519E-05
303.4093,-9.939765E-05
303.5093,-9.930537E-05
303.6093,-9.921119E-05
303.7093,-9.920177E-05
303.8093,-9.916316E-05
303.9093,-9.909159E-05
304.0093,-9.904356E-05
304.1093,-9.898517E-05
304.2094,-9.894469E-05
304.3094,-9.890606E-05
304.4094,-9.885898E-05
304.5094,-9.877517E-05
304.6094,-9.873373E-05
304.7094,-9.86857E-05
304.8094,-9.861695E-05
304.9094,-9.860094E-05
305.0094,-9.853032E-05
305.1094,-9.848417E-05
305.2094,-9.84465E-05
305.3094,-9.840696E-05
305.4094,-9.83335E-05
305.5094,-9.826852E-05
305.6094,-9.822708E-05
305.7094,-9.817717E-05
305.8094,-9.81574E-05
305.9095,-9.81216E-05
306.0095,-9.802461E-05
306.1095,-9.798034E-05
306.2095,-9.793138E-05
306.3095,-9.787676E-05
306.4095,-9.784003E-05
306.5095,-9.777788E-05
306.6095,-9.769783E-05
306.7095,-9.767899E-05
306.8095,-9.762626E-05
306.9095,-9.754056E-05
307.0095,-9.753303E-05
307.1095,-9.746804E-05
307.2095,-9.740965E-05
307.3095,-9.738799E-05
307.4095,-9.731549E-05
307.5096,-9.724392E-05
307.6096,-9.721754E-05
307.7096,-9.720248E-05
307.8096,-9.709982E-05
307.9096,-9.704426E-05
308.0096,-9.700943E-05
308.1096,-9.695763E-05
308.2096,-9.694538E-05
308.3096,-9.686722E-05
308.4096,-9.679659E-05
308.5096,-9.675045E-05
308.6096,-9.671278E-05
308.7096,-9.665157E-05
308.8096,-9.661389E-05
308.9096,-9.655739E-05
309.0096,-9.649806E-05
309.1096,-9.646415E-05
309.2097,-9.64246E-05
309.3097,-9.635397E-05
309.4097,-9.631537E-05
309.5097,-9.629087E-05
309.6097,-9.622402E-05
309.7097,-9.617881E-05
309.8097,-9.612702E-05
309.9097,-9.606015E-05
310.0097,-9.601966E-05
310.1097,-9.600459E-05
310.2097,-9.593019E-05
310.3097,-9.589158E-05
310.4097,-9.58219E-05
310.5097,-9.57588E-05
310.6097,-9.573621E-05
310.7097,-9.56957E-05
310.8098,-9.561284E-05
310.9098,-9.559777E-05
311.0098,-9.553655E-05
311.1098,-9.544803E-05
311.2098,-9.543674E-05
311.3098,-9.540189E-05
311.4098,-9.531242E-05
311.5098,-9.528228E-05
311.6098,-9.522672E-05
311.7098,-9.515609E-05
311.8098,-9.51222E-05
311.9098,-9.511465E-05
312.0098,-9.504308E-05
312.1098,-9.498376E-05
312.2098,-9.497246E-05
312.3098,-9.489618E-05
312.4099,-9.483402E-05
312.5099,-9.479918E-05
312.6099,-9.474832E-05
312.7099,-9.47116E-05
312.8099,-9.466733E-05
312.9099,-9.459106E-05
313.0099,-9.453738E-05
313.1099,-9.452325E-05
313.2099,-9.446769E-05
313.3099,-9.44272E-05
313.4099,-9.436504E-05
313.5099,-9.429253E-05
313.6099,-9.427557E-05
313.7099,-9.423414E-05
313.8099,-9.417292E-05
313.9099,-9.41136E-05
314.0099,-9.408159E-05
314.11,-9.402037E-05
314.21,-9.401E-05
314.31,-9.396858E-05
314.41,-9.38857E-05
314.51,-9.385557E-05
314.61,-9.384615E-05
314.71,-9.378776E-05
314.81,-9.373408E-05
314.91,-9.368888E-05
315.01,-9.365403E-05
315.11,-9.360413E-05
315.21,-9.359941E-05
315.31,-9.348358E-05
315.41,-9.344685E-05
315.51,-9.341389E-05
315.61,-9.33508E-05
315.7101,-9.334043E-05
315.8101,-9.329335E-05
315.9101,-9.321143E-05
316.0101,-9.320294E-05
316.1101,-9.317092E-05
316.2101,-9.309182E-05
316.3101,-9.304944E-05
316.4101,-9.300611E-05
316.5101,-9.293643E-05
316.6101,-9.293361E-05
316.7101,-9.28724E-05
316.8101,-9.280082E-05
316.9101,-9.27801E-05
317.0101,-9.271324E-05
317.1101,-9.264638E-05
317.2101,-9.262189E-05
317.3102,-9.256916E-05
317.4102,-9.252301E-05
317.5102,-9.246368E-05
317.6102,-9.240906E-05
317.7102,-9.235067E-05
317.8102,-9.235727E-05
317.9102,-9.227533E-05
318.0102,-9.22066E-05
318.1102,-9.217458E-05
318.2102,-9.213219E-05
318.3102,-9.208982E-05
318.4102,-9.204273E-05
318.5102,-9.199658E-05
318.6102,-9.194668E-05
318.7102,-9.192502E-05
318.8102,-9.187887E-05
318.9102,-9.177433E-05
319.0103,-9.173572E-05
319.1103,-9.170371E-05
319.2103,-9.166604E-05
319.3103,-9.162931E-05
319.4103,-9.155679E-05
319.5103,-9.150312E-05
319.6103,-9.147016E-05
319.7103,-9.143437E-05
319.8103,-9.138635E-05
319.9103,-9.13402E-05
320.0103,-9.129594E-05
320.1103,-9.124885E-05
320.2103,-9.122437E-05
320.3103,-9.118199E-05
320.4103,-9.111418E-05
320.5103,-9.10897E-05
320.6104,-9.103789E-05
320.7104,-9.099458E-05
320.8104,-9.096727E-05
320.9104,-9.091172E-05
321.0104,-9.08505E-05
321.1104,-9.08166E-05
321.2104,-9.0794E-05
321.3104,-9.074032E-05
321.4104,-9.069323E-05
321.5104,-9.065745E-05
321.6104,-9.059435E-05
321.7104,-9.055668E-05
321.8104,-9.053596E-05
321.9104,-9.04738E-05
322.0104,-9.044178E-05
322.1104,-9.03834E-05
322.2104,-9.033914E-05
322.3105,-9.030994E-05
322.4105,-9.025061E-05
322.5105,-9.017339E-05
322.6105,-9.016116E-05
322.7105,-9.013667E-05
322.8105,-9.005945E-05
322.9105,-9.002178E-05
323.0105,-8.998788E-05
323.1105,-8.993702E-05
323.2105,-8.993043E-05
323.3105,-8.98824E-05
323.4105,-8.981648E-05
323.5105,-8.978164E-05
323.6105,-8.972513E-05
323.7105,-8.969217E-05
323.8105,-8.96366E-05
323.9106,-8.961212E-05
324.0106,-8.958858E-05
324.1106,-8.950853E-05
324.2106,-8.949346E-05
324.3106,-8.94087E-05
324.4106,-8.9404E-05
324.5106,-8.934372E-05
324.6106,-8.927781E-05
324.7106,-8.925615E-05
324.8106,-8.919588E-05
324.9106,-8.915915E-05
325.0106,-8.912242E-05
325.1106,-8.907251E-05
325.2106,-8.900282E-05
325.3106,-8.896044E-05
325.4106,-8.892277E-05
325.5107,-8.888511E-05
325.6107,-8.885119E-05
325.7107,-8.878433E-05
325.8107,-8.873254E-05
325.9107,-8.871182E-05
326.0107,-8.865061E-05
326.1107,-8.860447E-05
326.2107,-8.856586E-05
326.3107,-8.856491E-05
326.4107,-8.852254E-05
326.5107,-8.847639E-05
326.6107,-8.844626E-05
326.7107,-8.838599E-05
326.8107,-8.836056E-05
326.9107,-8.831347E-05
327.0107,-8.824285E-05
327.1107,-8.821836E-05
327.2108,-8.817692E-05
327.3108,-8.811853E-05
327.4108,-8.811477E-05
327.5108,-8.807239E-05
327.6108,-8.800364E-05
327.7108,-8.79801E-05
327.8108,-8.796316E-05
327.9108,-8.786615E-05
328.0108,-8.783601E-05
328.1108,-8.783601E-05
328.2108,-8.780399E-05
328.3108,-8.774373E-05
328.4108,-8.772207E-05
328.5108,-8.765238E-05
328.6108,-8.761941E-05
328.7108,-8.760623E-05
328.8109,-8.752713E-05
328.9109,-8.749981E-05
329.0109,-8.748852E-05
329.1109,-8.743578E-05
329.2109,-8.73821E-05
329.3109,-8.733878E-05
329.4109,-8.727757E-05
329.5109,-8.727757E-05
329.6109,-8.72286E-05
329.7109,-8.71495E-05
329.8109,-8.714102E-05
329.9109,-8.710994E-05
330.0109,-8.70591E-05
330.1109,-8.701765E-05
330.2109,-8.695456E-05
330.3109,-8.690276E-05
330.4109,-8.6899E-05
330.511,-8.686604E-05
330.611,-8.67841E-05
330.711,-8.675303E-05
330.811,-8.671159E-05
330.911,-8.66645E-05
331.011,-8.664849E-05
331.111,-8.660046E-05
331.211,-8.652701E-05
331.311,-8.651194E-05
331.411,-8.648181E-05
331.511,-8.644414E-05
331.611,-8.641589E-05
331.711,-8.635467E-05
331.811,-8.629064E-05
331.911,-8.627651E-05
332.011,-8.625673E-05
332.1111,-8.619553E-05
332.2111,-8.616444E-05
332.3111,-8.610794E-05
332.4111,-8.607969E-05
332.5111,-8.60439E-05
332.6111,-8.600717E-05
332.7111,-8.595725E-05
332.8111,-8.593465E-05
332.9111,-8.589793E-05
333.0111,-8.584048E-05
333.1111,-8.581506E-05
333.2111,-8.579717E-05
333.3111,-8.571336E-05
333.4111,-8.570959E-05
333.5111,-8.564367E-05
333.6111,-8.562765E-05
333.7112,-8.556644E-05
333.8112,-8.551842E-05
333.9112,-8.550523E-05
334.0112,-8.546285E-05
334.1112,-8.54233E-05
334.2112,-8.537716E-05
334.3112,-8.53668E-05
334.4112,-8.529241E-05
334.5112,-8.526508E-05
334.6112,-8.522836E-05
334.7112,-8.517656E-05
334.8112,-8.513701E-05
334.9112,-8.513419E-05
335.0112,-8.507674E-05
335.1112,-8.501271E-05
335.2112,-8.498917E-05
335.3112,-8.495244E-05
335.4113,-8.493548E-05
335.5113,-8.489122E-05
335.6113,-8.482813E-05
335.7113,-8.478292E-05
335.8113,-8.477727E-05
335.9113,-8.472171E-05
336.0113,-8.467463E-05
336.1113,-8.464637E-05
336.2113,-8.458422E-05
336.3113,-8.457103E-05
336.4113,-8.453713E-05
336.5113,-8.448722E-05
336.6113,-8.442789E-05
336.7113,-8.441E-05
336.8113,-8.436386E-05
336.9113,-8.434313E-05
337.0114,-8.428193E-05
337.1114,-8.422731E-05
337.2114,-8.420847E-05
337.3114,-8.419246E-05
337.4114,-8.413312E-05
337.5114,-8.409546E-05
337.6114,-8.405025E-05
337.7114,-8.399563E-05
337.8114,-8.39994E-05
337.9114,-8.396644E-05
338.0114,-8.389675E-05
338.1114,-8.387132E-05
338.2114,-8.385437E-05
338.3114,-8.379222E-05
338.4114,-8.376114E-05
338.5114,-8.372536E-05
338.6115,-8.36858E-05
338.7115,-8.367639E-05
338.8115,-8.363778E-05
338.9115,-8.35502E-05
339.0115,-8.352099E-05
339.1115,-8.353513E-05
339.2115,-8.347203E-05
339.3115,-8.342683E-05
339.4115,-8.340611E-05
339.5115,-8.333642E-05
339.6115,-8.332324E-05
339.7115,-8.330346E-05
339.8115,-8.325261E-05
339.9115,-8.319705E-05
340.0115,-8.318103E-05
340.1115,-8.314337E-05
340.2115,-8.309534E-05
340.3116,-8.308497E-05
340.4116,-8.301906E-05
340.5116,-8.299269E-05
340.6116,-8.29682E-05
340.7116,-8.292394E-05
340.8116,-8.290134E-05
340.9116,-8.285802E-05
341.0116,-8.283731E-05
341.1116,-8.279399E-05
341.2116,-8.278174E-05
341.3116,-8.274031E-05
341.4116,-8.267344E-05
341.5116,-8.264048E-05
341.6116,-8.261693E-05
341.7116,-8.256326E-05
341.8116,-8.256891E-05
341.9117,-8.251429E-05
342.0117,-8.247003E-05
342.1117,-8.242483E-05
342.2117,-8.239092E-05
342.3117,-8.236456E-05
342.4117,-8.23768E-05
342.5117,-8.231182E-05
342.6117,-8.224214E-05
342.7117,-8.220164E-05
342.8117,-8.219316E-05
342.9117,-8.213383E-05
343.0117,-8.213759E-05
343.1117,-8.207168E-05
343.2117,-8.202741E-05
343.3117,-8.198786E-05
343.4117,-8.197186E-05
343.5117,-8.190782E-05
343.6118,-8.187392E-05
343.7118,-8.185978E-05
343.8118,-8.181647E-05
343.9118,-8.180799E-05
344.0118,-8.176091E-05
344.1118,-8.171852E-05
344.2118,-8.169404E-05
344.3118,-8.164036E-05
344.4118,-8.157444E-05
344.5118,-8.156127E-05
344.6118,-8.151888E-05
344.7118,-8.148027E-05
344.8118,-8.147933E-05
344.9118,-8.141436E-05
345.0118,-8.134937E-05
345.1118,-8.134372E-05
345.2119,-8.132582E-05
345.3119,-8.128439E-05
345.4119,-8.123542E-05
345.5119,-8.121564E-05
345.6119,-8.11469E-05
345.7119,-8.114878E-05
345.8119,-8.110735E-05
345.9119,-8.106779E-05
346.0119,-8.102165E-05
346.1119,-8.101788E-05
346.2119,-8.093312E-05
346.3119,-8.090393E-05
346.4119,-8.089734E-05
346.5119,-8.086061E-05
346.6119,-8.085874E-05
346.7119,-8.078339E-05
346.812,-8.07363E-05
346.912,-8.072123E-05
347.012,-8.070428E-05
347.112,-8.064212E-05
347.212,-8.059504E-05
347.312,-8.058939E-05
347.412,-8.053477E-05
347.512,-8.050181E-05
347.612,-8.046603E-05
347.712,-8.043872E-05
347.812,-8.042176E-05
347.912,-8.03841E-05
348.012,-8.031723E-05
348.112,-8.029464E-05
348.212,-8.028427E-05
348.312,-8.022212E-05
348.412,-8.021176E-05
348.5121,-8.017503E-05
348.6121,-8.014301E-05
348.7121,-8.011758E-05
348.8121,-8.008745E-05
348.9121,-8.002435E-05
349.0121,-7.99961E-05
349.1121,-7.996408E-05
349.2121,-7.993112E-05
349.3121,-7.991512E-05
349.4121,-7.988121E-05
349.5121,-7.981624E-05
349.6121,-7.980211E-05
349.7121,-7.976538E-05
349.8121,-7.974183E-05
349.9121,-7.971829E-05
350.0121,-7.970133E-05
350.1122,-7.961565E-05
350.2122,-7.959022E-05
350.3122,-7.956762E-05
350.4122,-7.952994E-05
350.5122,-7.949134E-05
350.6122,-7.94725E-05
350.7122,-7.941788E-05
350.8122,-7.93868E-05
350.9122,-7.936043E-05
351.0122,-7.932936E-05
351.1122,-7.929734E-05
351.2122,-7.928698E-05
351.3122,-7.923801E-05
351.4122,-7.918998E-05
351.5122,-7.917209E-05
351.6122,-7.911087E-05
351.7122,-7.90911E-05
351.8123,-7.906379E-05
351.9123,-7.903648E-05
352.0123,-7.899221E-05
352.1123,-7.894984E-05
352.2123,-7.890558E-05
352.3123,-7.888392E-05
352.4123,-7.889052E-05
352.5123,-7.882741E-05
352.6123,-7.879916E-05
352.7123,-7.87502E-05
352.8123,-7.870969E-05
352.9123,-7.869275E-05
353.0123,-7.867485E-05
353.1123,-7.864284E-05
353.2123,-7.860422E-05
353.3123,-7.858539E-05
353.4124,-7.853266E-05
353.5124,-7.853453E-05
353.6124,-7.84865E-05
353.7124,-7.842624E-05
353.8124,-7.83961E-05
353.9124,-7.837915E-05
354.0124,-7.833866E-05
354.1124,-7.831606E-05
354.2124,-7.826143E-05
354.3124,-7.824637E-05
354.4124,-7.820492E-05
354.5124,-7.81861E-05
354.6124,-7.811264E-05
354.7124,-7.810794E-05
354.8124,-7.808909E-05
354.9124,-7.804484E-05
355.0125,-7.800999E-05
355.1125,-7.797609E-05
355.2125,-7.792147E-05
355.3125,-7.789792E-05
355.4125,-7.789792E-05
355.5125,-7.784613E-05
355.6125,-7.781411E-05
355.7125,-7.777927E-05
355.8125,-7.772371E-05
355.9125,-7.772371E-05
356.0125,-7.77011E-05
356.1125,-7.763141E-05
356.2125,-7.761634E-05
356.3125,-7.761729E-05
356.4125,-7.754384E-05
356.5125,-7.752971E-05
356.6125,-7.74798E-05
356.7126,-7.745531E-05
356.8126,-7.743365E-05
356.9126,-7.741952E-05
357.0126,-7.736019E-05
357.1126,-7.732818E-05
357.2126,-7.732159E-05
357.3126,-7.727827E-05
357.4126,-7.722647E-05
357.5126,-7.721705E-05
357.6126,-7.718221E-05
357.7126,-7.715678E-05
357.8126,-7.713512E-05
357.9126,-7.70805E-05
358.0126,-7.705319E-05
358.1126,-7.704095E-05
358.2126,-7.701459E-05
358.3127,-7.698068E-05
358.4127,-7.69609E-05
358.5127,-7.69044E-05
358.6127,-7.686579E-05
358.7127,-7.684978E-05
358.8127,-7.681682E-05
358.9127,-7.677914E-05
359.0127,-7.676125E-05
359.1127,-7.672076E-05
359.2127,-7.668686E-05
359.3127,-7.666142E-05
359.4127,-7.66247E-05
359.5127,-7.658892E-05
359.6127,-7.65795E-05
359.7127,-7.654842E-05
359.8127,-7.651358E-05
359.9128,-7.646649E-05
360.0128,-7.644107E-05
360.1128,-7.643353E-05
360.2128,-7.639304E-05
360.3128,-7.638551E-05
360.4128,-7.63516E-05
360.5128,-7.630829E-05
360.6128,-7.627438E-05
360.7128,-7.623388E-05
360.8128,-7.624707E-05
360.9128,-7.617832E-05
361.0128,-7.617456E-05
361.1128,-7.613689E-05
361.2128,-7.60719E-05
361.3128,-7.605872E-05
361.4128,-7.605779E-05
361.5128,-7.602576E-05
361.6129,-7.599374E-05
361.7129,-7.594383E-05
361.8129,-7.593064E-05
361.9129,-7.589016E-05
362.0129,-7.587414E-05
362.1129,-7.582611E-05
362.2129,-7.579786E-05
362.3129,-7.576866E-05
362.4129,-7.574135E-05
362.5129,-7.570651E-05
362.6129,-7.568957E-05
362.7129,-7.566697E-05
362.8129,-7.563024E-05
362.9129,-7.559445E-05
363.0129,-7.557278E-05
363.1129,-7.552947E-05
363.213,-7.551157E-05
363.313,-7.547862E-05
363.413,-7.54513E-05
363.513,-7.543906E-05
363.613,-7.537408E-05
363.713,-7.534677E-05
363.813,-7.537502E-05
363.913,-7.53609E-05
364.013,-7.527615E-05
364.113,-7.523942E-05
364.213,-7.522717E-05
364.313,-7.519327E-05
364.413,-7.515749E-05
364.513,-7.515372E-05
364.613,-7.511887E-05
364.713,-7.507273E-05
364.813,-7.503035E-05
364.9131,-7.501151E-05
365.0131,-7.498986E-05
365.1131,-7.49503E-05
365.2131,-7.492581E-05
365.3131,-7.489192E-05
365.4131,-7.486178E-05
365.5131,-7.482882E-05
365.6131,-7.481658E-05
365.7131,-7.478173E-05
365.8131,-7.474406E-05
365.9131,-7.472335E-05
366.0131,-7.468662E-05
366.1131,-7.465649E-05
366.2131,-7.463483E-05
366.3131,-7.462824E-05
366.4131,-7.458397E-05
366.5132,-7.457173E-05
366.6132,-7.454348E-05
366.7132,-7.451334E-05
366.8132,-7.450581E-05
366.9132,-7.448603E-05
367.0132,-7.444647E-05
367.1132,-7.441258E-05
367.2132,-7.439751E-05
367.3132,-7.434101E-05
367.4132,-7.43476E-05
367.5132,-7.431275E-05
367.6132,-7.426002E-05
367.7132,-7.424966E-05
367.8132,-7.421952E-05
367.9132,-7.414512E-05
368.0132,-7.413476E-05
368.1133,-7.413476E-05
368.2133,-7.409616E-05
368.3133,-7.407073E-05
368.4133,-7.403589E-05
368.5133,-7.400669E-05
368.6133,-7.398127E-05
368.7133,-7.396901E-05
368.8133,-7.3921E-05
368.9133,-7.388709E-05
369.0133,-7.38645E-05
369.1133,-7.382211E-05
369.2133,-7.380516E-05
369.3133,-7.378162E-05
369.4133,-7.371098E-05
369.5133,-7.369875E-05
369.6133,-7.369403E-05
369.7133,-7.364789E-05
369.8134,-7.363188E-05
369.9134,-7.358103E-05
370.0134,-7.356784E-05
370.1134,-7.35377E-05
370.2134,-7.351604E-05
370.3134,-7.346048E-05
370.4134,-7.346613E-05
370.5134,-7.342658E-05
370.6134,-7.337479E-05
370.7134,-7.338516E-05
370.8134,-7.33795E-05
370.9134,-7.331734E-05
371.0134,-7.32712E-05
371.1134,-7.324389E-05
371.2134,-7.321846E-05
371.3134,-7.321186E-05
371.4135,-7.319492E-05
371.5135,-7.313088E-05
371.6135,-7.312522E-05
371.7135,-7.311393E-05
371.8135,-7.306779E-05
371.9135,-7.303389E-05
372.0135,-7.301504E-05
372.1135,-7.298208E-05
372.2135,-7.295195E-05
372.3135,-7.295383E-05
372.4135,-7.288886E-05
372.5135,-7.285778E-05
372.6135,-7.285778E-05
372.7135,-7.281916E-05
372.8135,-7.281351E-05
372.9135,-7.279091E-05
373.0135,-7.272876E-05
373.1136,-7.270616E-05
373.2136,-7.267602E-05
373.3136,-7.264494E-05
373.4136,-7.261952E-05
373.5136,-7.260634E-05
373.6136,-7.256395E-05
373.7136,-7.253288E-05
373.8136,-7.252252E-05
373.9136,-7.248014E-05
374.0136,-7.245001E-05
374.1136,-7.242175E-05
374.2136,-7.239162E-05
374.3136,-7.239162E-05
374.4136,-7.237656E-05
374.5136,-7.231251E-05
374.6136,-7.230121E-05
374.7137,-7.226544E-05
374.8137,-7.225978E-05
374.9137,-7.224283E-05
375.0137,-7.221081E-05
375.1137,-7.216466E-05
375.2137,-7.21317E-05
375.3137,-7.212511E-05
375.4137,-7.207426E-05
375.5137,-7.206484E-05
375.6137,-7.203565E-05
375.7137,-7.199421E-05
375.8137,-7.198386E-05
375.9137,-7.197631E-05
376.0137,-7.193676E-05
376.1137,-7.192358E-05
376.2137,-7.189628E-05
376.3138,-7.18925E-05
376.4138,-7.186425E-05
376.5138,-7.182563E-05
376.6138,-7.178137E-05
376.7138,-7.173335E-05
376.8138,-7.174654E-05
376.9138,-7.17051E-05
377.0138,-7.167968E-05
377.1138,-7.166366E-05
377.2138,-7.162317E-05
377.3138,-7.162411E-05
377.4138,-7.157797E-05
377.5138,-7.155253E-05
377.6138,-7.152711E-05
377.7138,-7.151863E-05
377.8138,-7.14838E-05
377.9138,-7.144707E-05
378.0139,-7.142446E-05
378.1139,-7.139528E-05
378.2139,-7.139151E-05
378.3139,-7.137361E-05
378.4139,-7.131146E-05
378.5139,-7.127378E-05
378.6139,-7.126907E-05
378.7139,-7.123423E-05
378.8139,-7.121162E-05
378.9139,-7.117961E-05
379.0139,-7.115513E-05
379.1139,-7.111275E-05
379.2139,-7.111087E-05
379.3139,-7.108262E-05
379.4139,-7.104682E-05
379.5139,-7.104682E-05
379.614,-7.099409E-05
379.714,-7.099503E-05
379.814,-7.095077E-05
379.914,-7.090463E-05
380.014,-7.088296E-05
380.114,-7.087261E-05
380.214,-7.085283E-05
380.314,-7.082269E-05
380.414,-7.078597E-05
380.514,-7.075677E-05
380.614,-7.072947E-05
380.714,-7.072852E-05
380.814,-7.069745E-05
380.914,-7.06287E-05
381.014,-7.06692E-05
381.114,-7.066355E-05
381.2141,-7.06174E-05
381.3141,-7.057407E-05
381.4141,-7.054772E-05
381.5141,-7.051287E-05
381.6141,-7.054018E-05
381.7141,-7.047991E-05
381.8141,-7.044036E-05
381.9141,-7.043753E-05
382.0141,-7.040646E-05
382.1141,-7.037914E-05
382.2141,-7.034618E-05
382.3141,-7.030851E-05
382.4141,-7.032264E-05
382.5141,-7.029816E-05
382.6141,-7.023034E-05
382.7141,-7.021811E-05
382.8141,-7.022281E-05
382.9142,-7.015783E-05
383.0142,-7.011734E-05
383.1142,-7.012205E-05
383.2142,-7.008061E-05
383.3142,-7.00307E-05
383.4142,-7.003164E-05
383.5142,-7.002128E-05
383.6142,-6.997984E-05
383.7142,-6.992617E-05
383.8142,-6.994312E-05
383.9142,-6.989697E-05
384.0142,-6.989791E-05
384.1142,-6.985271E-05
384.2142,-6.979526E-05
384.3142,-6.981316E-05
384.4142,-6.978962E-05
384.5143,-6.973594E-05
384.6143,-6.972275E-05
384.7143,-6.969921E-05
384.8143,-6.966248E-05
384.9143,-6.966908E-05
385.0143,-6.965683E-05
385.1143,-6.960221E-05
385.2143,-6.959091E-05
385.3143,-6.957961E-05
385.4143,-6.955795E-05
385.5143,-6.952123E-05
385.6143,-6.949579E-05
385.7143,-6.947696E-05
385.8143,-6.94553E-05
385.9143,-6.944777E-05
386.0143,-6.938937E-05
386.1143,-6.933946E-05
386.2144,-6.934324E-05
386.3144,-6.930839E-05
386.4144,-6.928579E-05
386.5144,-6.928956E-05
386.6144,-6.921704E-05
386.7144,-6.920857E-05
386.8144,-6.919821E-05
386.9144,-6.914642E-05
387.0144,-6.913888E-05
387.1144,-6.912193E-05
387.2144,-6.910498E-05
387.3144,-6.906167E-05
387.4144,-6.903624E-05
387.5144,-6.901645E-05
387.6144,-6.90061E-05
387.7144,-6.899291E-05
387.8145,-6.891193E-05
387.9145,-6.893923E-05
388.0145,-6.894866E-05
388.1145,-6.888367E-05
388.2145,-6.886012E-05
388.3145,-6.884695E-05
388.4145,-6.882622E-05
388.5145,-6.881116E-05
388.6145,-6.878196E-05
388.7145,-6.871228E-05
388.8145,-6.871887E-05
388.9145,-6.871228E-05
389.0145,-6.866802E-05
389.1145,-6.864165E-05
389.2145,-6.862658E-05
389.3145,-6.860209E-05
389.4146,-6.857196E-05
389.5146,-6.857102E-05
389.6146,-6.856536E-05
389.7146,-6.850698E-05
389.8146,-6.852016E-05
389.9146,-6.847496E-05
390.0146,-6.844576E-05
390.1146,-6.845706E-05
390.2146,-6.840622E-05
390.3146,-6.83676E-05
390.4146,-6.835913E-05
390.5146,-6.832428E-05
390.6146,-6.829508E-05
390.7146,-6.828002E-05
390.8146,-6.824989E-05
390.9146,-6.823576E-05
391.0146,-6.824612E-05
391.1147,-6.820845E-05
391.2147,-6.817173E-05
391.3147,-6.815665E-05
391.4147,-6.813312E-05
391.5147,-6.808791E-05
391.6147,-6.806813E-05
391.7147,-6.805024E-05
391.8147,-6.802952E-05
391.9147,-6.801257E-05
392.0147,-6.796455E-05
392.1147,-6.7941E-05
392.2147,-6.791275E-05
392.3147,-6.789956E-05
392.4147,-6.787413E-05
392.5147,-6.787696E-05
392.6147,-6.785719E-05
392.7148,-6.779314E-05
392.8148,-6.778655E-05
392.9148,-6.775266E-05
393.0148,-6.773287E-05
393.1148,-6.771876E-05
393.2148,-6.770086E-05
393.3148,-6.766695E-05
393.4148,-6.766884E-05
393.5148,-6.760857E-05
393.6148,-6.758314E-05
393.7148,-6.759068E-05
393.8148,-6.757279E-05
393.9148,-6.752004E-05
394.0148,-6.747955E-05
394.1148,-6.747672E-05
394.2148,-6.744282E-05
394.3148,-6.743623E-05
394.4149,-6.741929E-05
394.5149,-6.733547E-05
394.6149,-6.733075E-05
394.7149,-6.734017E-05
394.8149,-6.730533E-05
394.9149,-6.726389E-05
395.0149,-6.724035E-05
395.1149,-6.725165E-05
395.2149,-6.724318E-05
395.3149,-6.719986E-05
395.4149,-6.715371E-05
395.5149,-6.714524E-05
395.6149,-6.712358E-05
395.7149,-6.708685E-05
395.8149,-6.70699E-05
395.9149,-6.706236E-05
396.015,-6.702281E-05
396.115,-6.698797E-05
396.215,-6.698327E-05
396.315,-6.698137E-05
396.415,-6.694747E-05
396.515,-6.692298E-05
396.615,-6.68759E-05
396.715,-6.684389E-05
396.815,-6.688061E-05
396.915,-6.683258E-05
397.015,-6.680338E-05
397.115,-6.679585E-05
397.215,-6.675725E-05
397.315,-6.673559E-05
397.415,-6.671769E-05
397.515,-6.66932E-05
397.6151,-6.666118E-05
397.7151,-6.6648E-05
397.8151,-6.662729E-05
397.9151,-6.659056E-05
398.0151,-6.657831E-05
398.1151,-6.656419E-05
398.2151,-6.654065E-05
398.3151,-6.652934E-05
398.4151,-6.648414E-05
398.5151,-6.645777E-05
398.6151,-6.647755E-05
398.7151,-6.645024E-05
398.8151,-6.640598E-05
398.9151,-6.638996E-05
399.0151,-6.636736E-05
399.1151,-6.636266E-05
399.2151,-6.634853E-05
399.3152,-6.63118E-05
399.4152,-6.626943E-05
399.5152,-6.627979E-05
399.6152,-6.625907E-05
399.7152,-6.622422E-05
399.8152,-6.620633E-05
399.9152,-6.616207E-05
400.0152,-6.614606E-05
400.1152,-6.613664E-05
400.2152,-6.614417E-05
400.3152,-6.609426E-05
400.4152,-6.609897E-05
400.5152,-6.606507E-05
400.6152,-6.603023E-05
400.7152,-6.602929E-05
400.8152,-6.601609E-05
400.9153,-6.597467E-05
401.0153,-6.595207E-05
401.1153,-6.593134E-05
401.2153,-6.593511E-05
401.3153,-6.593134E-05
401.4153,-6.588897E-05
401.5153,-6.583529E-05
401.6153,-6.582022E-05
401.7153,-6.582681E-05
401.8153,-6.581834E-05
401.9153,-6.579667E-05
402.0153,-6.576278E-05
402.1153,-6.572511E-05
402.2153,-6.572322E-05
402.3153,-6.570815E-05
402.4153,-6.565164E-05
402.5154,-6.564412E-05
402.6154,-6.565542E-05
402.7154,-6.559044E-05
402.8154,-6.559608E-05
402.9154,-6.558291E-05
403.0154,-6.556501E-05
403.1154,-6.554995E-05
403.2154,-6.551416E-05
403.3154,-6.547084E-05
403.4154,-6.546142E-05
403.5154,-6.547178E-05
403.6154,-6.542752E-05
403.7154,-6.538797E-05
403.8154,-6.536442E-05
403.9154,-6.534747E-05
404.0154,-6.533806E-05
404.1154,-6.530227E-05
404.2155,-6.526084E-05
404.3155,-6.523728E-05
404.4155,-6.523069E-05
404.5155,-6.520809E-05
404.6155,-6.518926E-05
404.7155,-6.516949E-05
404.8155,-6.512711E-05
404.9155,-6.512617E-05
405.0155,-6.510451E-05
405.1155,-6.507908E-05
405.2155,-6.504988E-05
405.3155,-6.503011E-05
405.4155,-6.501787E-05
405.5155,-6.499621E-05
405.6155,-6.500562E-05
405.7155,-6.498113E-05
405.8156,-6.492745E-05
405.9156,-6.495665E-05
406.0156,-6.492464E-05
406.1156,-6.48879E-05
406.2156,-6.485683E-05
406.3156,-6.485118E-05
406.4156,-6.480316E-05
406.5156,-6.480786E-05
406.6156,-6.479186E-05
406.7156,-6.473629E-05
406.8156,-6.474288E-05
406.9156,-6.473911E-05
407.0156,-6.469296E-05
407.1156,-6.464964E-05
407.2156,-6.463929E-05
407.3156,-6.464776E-05
407.4156,-6.464023E-05
407.5157,-6.459314E-05
407.6157,-6.456301E-05
407.7157,-6.45988E-05
407.8157,-6.453947E-05
407.9157,-6.44952E-05
408.0157,-6.449426E-05
408.1157,-6.447354E-05
408.2157,-6.44274E-05
408.3157,-6.442363E-05
408.4157,-6.436901E-05
408.5157,-6.437466E-05
408.6157,-6.435772E-05
408.7157,-6.435206E-05
408.8157,-6.426354E-05
408.9157,-6.430214E-05
409.0157,-6.428426E-05
409.1158,-6.421362E-05
409.2158,-6.419291E-05
409.3158,-6.422398E-05
409.4158,-6.418161E-05
409.5158,-6.415147E-05
409.6158,-6.413546E-05
409.7158,-6.409497E-05
409.8158,-6.412416E-05
409.9158,-6.41025E-05
410.0158,-6.405824E-05
410.1158,-6.402811E-05
410.2158,-6.401963E-05
410.3158,-6.400457E-05
410.4158,-6.398761E-05
410.5158,-6.395936E-05
410.6158,-6.392922E-05
410.7159,-6.391321E-05
410.8159,-6.391698E-05
410.9159,-6.389532E-05
411.0159,-6.385765E-05
411.1159,-6.38407E-05
411.2159,-6.381433E-05
411.3159,-6.381904E-05
411.4159,-6.38002E-05
411.5159,-6.376066E-05
411.6159,-6.373428E-05
411.7159,-6.375594E-05
411.8159,-6.37616E-05
411.9159,-6.372957E-05
412.0159,-6.368625E-05
412.1159,-6.37051E-05
412.2159,-6.366931E-05
412.3159,-6.36533E-05
412.416,-6.359585E-05
412.516,-6.35968E-05
412.616,-6.36015E-05
412.716,-6.359397E-05
412.816,-6.352239E-05
412.916,-6.352899E-05
413.016,-6.354499E-05
413.116,-6.351674E-05
413.216,-6.349697E-05
413.316,-6.346589E-05
413.416,-6.341033E-05
413.516,-6.342634E-05
413.616,-6.34141E-05
413.716,-6.338867E-05
413.816,-6.336419E-05
413.916,-6.335383E-05
414.0161,-6.332369E-05
414.1161,-6.333688E-05
414.2161,-6.330674E-05
414.3161,-6.327378E-05
414.4161,-6.326813E-05
414.5161,-6.324647E-05
414.6161,-6.319373E-05
414.7161,-6.318997E-05
414.8161,-6.318713E-05
414.9161,-6.314571E-05
415.0161,-6.313817E-05
415.1161,-6.313063E-05
415.2161,-6.306283E-05
415.3161,-6.305813E-05
415.4161,-6.305813E-05
415.5161,-6.301009E-05
415.6161,-6.301009E-05
415.7162,-6.303081E-05
415.8162,-6.293852E-05
415.9162,-6.295359E-05
416.0162,-6.292251E-05
416.1162,-6.290462E-05
416.2162,-6.28952E-05
416.3162,-6.287354E-05
416.4162,-6.285283E-05
416.5162,-6.282363E-05
416.6162,-6.282551E-05
416.7162,-6.276429E-05
416.8162,-6.275865E-05
416.9162,-6.275112E-05
417.0162,-6.270214E-05
417.1162,-6.268802E-05
417.2162,-6.267295E-05
417.3163,-6.262964E-05
417.4163,-6.264658E-05
417.5163,-6.262304E-05
417.6163,-6.259667E-05
417.7163,-6.255806E-05
417.8163,-6.25543E-05
417.9163,-6.252227E-05
418.0163,-6.251286E-05
418.1163,-6.248649E-05
418.2163,-6.24573E-05
418.3163,-6.245071E-05
418.4163,-6.24394E-05
418.5163,-6.242905E-05
418.6163,-6.237631E-05
418.7163,-6.237631E-05
418.8163,-6.233016E-05
418.9164,-6.232169E-05
419.0164,-6.23377E-05
419.1164,-6.22746E-05
419.2164,-6.227366E-05
419.3164,-6.227272E-05
419.4164,-6.223882E-05
419.5164,-6.220962E-05
419.6164,-6.219644E-05
419.7164,-6.217477E-05
419.8164,-6.216253E-05
419.9164,-6.214935E-05
420.0164,-6.21437E-05
420.1164,-6.21211E-05
420.2164,-6.211262E-05
420.3164,-6.208814E-05
420.4164,-6.208061E-05
420.5164,-6.208814E-05
420.6165,-6.204105E-05
420.7165,-6.201657E-05
420.8165,-6.202034E-05
420.9165,-6.197231E-05
421.0165,-6.193934E-05
421.1165,-6.194971E-05
421.2165,-6.190921E-05
421.3165,-6.189132E-05
421.4165,-6.189696E-05
421.5165,-6.187625E-05
421.6165,-6.182822E-05
421.7165,-6.182634E-05
421.8165,-6.178585E-05
421.9165,-6.177831E-05
422.0165,-6.176701E-05
422.1165,-6.173969E-05
422.2166,-6.171804E-05
422.3166,-6.17105E-05
422.4166,-6.168037E-05
422.5166,-6.163988E-05
422.6166,-6.164081E-05
422.7166,-6.16427E-05
422.8166,-6.16201E-05
422.9166,-6.159938E-05
423.0166,-6.158149E-05
423.1166,-6.154193E-05
423.2166,-6.155229E-05
423.3166,-6.153817E-05
423.4166,-6.150991E-05
423.5166,-6.149297E-05
423.6166,-6.148354E-05
423.7166,-6.144212E-05
423.8167,-6.142516E-05
423.9167,-6.142799E-05
424.0167,-6.139596E-05
424.1167,-6.138466E-05
424.2167,-6.136583E-05
424.3167,-6.134417E-05
424.4167,-6.13291E-05
424.5167,-6.131121E-05
424.6167,-6.129991E-05
424.7167,-6.129143E-05
424.8167,-6.126695E-05
424.9167,-6.124811E-05
425.0167,-6.122551E-05
425.1167,-6.12387E-05
425.2167,-6.12048E-05
425.3167,-6.117937E-05
425.4167,-6.116618E-05
425.5168,-6.114358E-05
425.6168,-6.11417E-05
425.7168,-6.111251E-05
425.8168,-6.106918E-05
425.9168,-6.103811E-05
426.0168,-6.106918E-05
426.1168,-6.107578E-05
426.2168,-6.099573E-05
426.3168,-6.100609E-05
426.4168,-6.099667E-05
426.5168,-6.096466E-05
426.6168,-6.094676E-05
426.7168,-6.089967E-05
426.8168,-6.091568E-05
426.9168,-6.092793E-05
427.0168,-6.093452E-05
427.1169,-6.085259E-05
427.2169,-6.083846E-05
427.3169,-6.08507E-05
427.4169,-6.082151E-05
427.5169,-6.079891E-05
427.6169,-6.07942E-05
427.7169,-6.075747E-05
427.8169,-6.073299E-05
427.9169,-6.073299E-05
428.0169,-6.070662E-05
428.1169,-6.068308E-05
428.2169,-6.0668E-05
428.3169,-6.065859E-05
428.4169,-6.067554E-05
428.5169,-6.061904E-05
428.6169,-6.061998E-05
428.7169,-6.060021E-05
428.817,-6.059643E-05
428.917,-6.053993E-05
429.017,-6.053052E-05
429.117,-6.052863E-05
429.217,-6.05098E-05
429.317,-6.049661E-05
429.417,-6.046177E-05
429.517,-6.043258E-05
429.617,-6.043728E-05
429.717,-6.041657E-05
429.817,-6.038643E-05
429.917,-6.036194E-05
430.017,-6.03723E-05
430.117,-6.032145E-05
430.217,-6.031768E-05
430.317,-6.032051E-05
430.4171,-6.027248E-05
430.5171,-6.026589E-05
430.6171,-6.025365E-05
430.7171,-6.021692E-05
430.8171,-6.021409E-05
430.9171,-6.022351E-05
431.0171,-6.017642E-05
431.1171,-6.016606E-05
431.2171,-6.013499E-05
431.3171,-6.009544E-05
431.4171,-6.008978E-05
431.5171,-6.010956E-05
431.6171,-6.005777E-05
431.7171,-6.003799E-05
431.8171,-6.002669E-05
431.9171,-6.001351E-05
432.0172,-5.999278E-05
432.1172,-5.999655E-05
432.2172,-5.996077E-05
432.3172,-5.992404E-05
432.4172,-5.993722E-05
432.5172,-5.992216E-05
432.6172,-5.99231E-05
432.7172,-5.991086E-05
432.8172,-5.985906E-05
432.9172,-5.986659E-05
433.0172,-5.983081E-05
433.1172,-5.97969E-05
433.2172,-5.979126E-05
433.3172,-5.980256E-05
433.4172,-5.978937E-05
433.5172,-5.975641E-05
433.6172,-5.97357E-05
433.7173,-5.970085E-05
433.8173,-5.96952E-05
433.9173,-5.972251E-05
434.0173,-5.967448E-05
434.1173,-5.963869E-05
434.2173,-5.964811E-05
434.3173,-5.963399E-05
434.4173,-5.961044E-05
434.5173,-5.960102E-05
434.6173,-5.959255E-05
434.7173,-5.955865E-05
434.8173,-5.955394E-05
434.9173,-5.955677E-05
435.0173,-5.952569E-05
435.1173,-5.950214E-05
435.2173,-5.947766E-05
435.3174,-5.947201E-05
435.4174,-5.94673E-05
435.5174,-5.944187E-05
435.6174,-5.939573E-05
435.7174,-5.941644E-05
435.8174,-5.942681E-05
435.9174,-5.93816E-05
436.0174,-5.934676E-05
436.1174,-5.93477E-05
436.2174,-5.929873E-05
436.3174,-5.93364E-05
436.4174,-5.930344E-05
436.5174,-5.928178E-05
436.6174,-5.927424E-05
436.7174,-5.926012E-05
436.8174,-5.924034E-05
436.9174,-5.920079E-05
437.0175,-5.921586E-05
437.1175,-5.920079E-05
437.2175,-5.917819E-05
437.3175,-5.916312E-05
437.4175,-5.911038E-05
437.5175,-5.91198E-05
437.6175,-5.912074E-05
437.7175,-5.907743E-05
437.8175,-5.905576E-05
437.9175,-5.903975E-05
438.0175,-5.902657E-05
438.1175,-5.902092E-05
438.2175,-5.901056E-05
438.3175,-5.895594E-05
438.4175,-5.894464E-05
438.5175,-5.896536E-05
438.6176,-5.890038E-05
438.7176,-5.888531E-05
438.8176,-5.891545E-05
438.9176,-5.889473E-05
439.0176,-5.884859E-05
439.1176,-5.886742E-05
439.2176,-5.881656E-05
439.3176,-5.881845E-05
439.4176,-5.883446E-05
439.5176,-5.878643E-05
439.6176,-5.876383E-05
439.7176,-5.874782E-05
439.8176,-5.87384E-05
439.9176,-5.87384E-05
440.0176,-5.869885E-05
440.1176,-5.86753E-05
440.2177,-5.867436E-05
440.3177,-5.865082E-05
440.4177,-5.862257E-05
440.5177,-5.863292E-05
440.6177,-5.862539E-05
440.7177,-5.858678E-05
440.8177,-5.857925E-05
440.9177,-5.855476E-05
441.0177,-5.854817E-05
441.1177,-5.851897E-05
441.2177,-5.853122E-05
441.3177,-5.851615E-05
441.4177,-5.848696E-05
441.5177,-5.847754E-05
441.6177,-5.84474E-05
441.7177,-5.842763E-05
441.8177,-5.843987E-05
441.9178,-5.83909E-05
442.0178,-5.839278E-05
442.1178,-5.838243E-05
442.2178,-5.834947E-05
442.3178,-5.832969E-05
442.4178,-5.835323E-05
442.5178,-5.830709E-05
442.6178,-5.829767E-05
442.7178,-5.82826E-05
442.8178,-5.824117E-05
442.9178,-5.825435E-05
443.0178,-5.827224E-05
443.1178,-5.821951E-05
443.2178,-5.819973E-05
443.3178,-5.819596E-05
443.4178,-5.819031E-05
443.5179,-5.817148E-05
443.6179,-5.815076E-05
443.7179,-5.813946E-05
443.8179,-5.810179E-05
443.9179,-5.81065E-05
444.0179,-5.80839E-05
444.1179,-5.806789E-05
444.2179,-5.806977E-05
444.3179,-5.803304E-05
444.4179,-5.801327E-05
444.5179,-5.801327E-05
444.6179,-5.801044E-05
444.7179,-5.800385E-05
444.8179,-5.795205E-05
444.9179,-5.796712E-05
445.0179,-5.797371E-05
445.118,-5.794075E-05
445.218,-5.790779E-05
445.318,-5.792568E-05
445.418,-5.791815E-05
445.518,-5.787766E-05
445.618,-5.785317E-05
445.718,-5.785129E-05
445.818,-5.785882E-05
445.918,-5.78447E-05
446.018,-5.782022E-05
446.118,-5.777878E-05
446.218,-5.778349E-05
446.318,-5.778537E-05
446.418,-5.776371E-05
446.518,-5.770815E-05
446.618,-5.776465E-05
446.718,-5.773263E-05
446.8181,-5.765917E-05
446.9181,-5.76959E-05
447.0181,-5.769685E-05
447.1181,-5.764693E-05
447.2181,-5.764505E-05
447.3181,-5.761774E-05
447.4181,-5.75876E-05
447.5181,-5.756689E-05
447.6181,-5.757348E-05
447.7181,-5.755464E-05
447.8181,-5.755464E-05
447.9181,-5.754617E-05
448.0181,-5.751603E-05
448.1181,-5.751227E-05
448.2181,-5.749155E-05
448.3181,-5.74793E-05
448.4182,-5.745011E-05
448.5182,-5.74341E-05
448.6182,-5.73889E-05
448.7182,-5.738984E-05
448.8182,-5.742092E-05
448.9182,-5.735971E-05
449.0182,-5.736347E-05
449.1182,-5.734464E-05
449.2182,-5.731356E-05
449.3182,-5.730509E-05
449.4182,-5.728343E-05
449.5182,-5.726459E-05
449.6182,-5.728437E-05
449.7182,-5.728531E-05
449.8182,-5.722221E-05
449.9182,-5.716948E-05
450.0182,-5.719961E-05
450.1183,-5.71723E-05
450.2183,-5.712992E-05
450.3183,-5.714405E-05
450.4183,-5.712051E-05
450.5183,-5.710356E-05
450.6183,-5.710732E-05
450.7183,-5.708189E-05
450.8183,-5.70301E-05
450.9183,-5.706871E-05
451.0183,-5.707436E-05
451.1183,-5.701032E-05
451.2183,-5.702633E-05
451.3183,-5.699337E-05
451.4183,-5.695759E-05
451.5183,-5.695288E-05
451.6183,-5.694534E-05
451.7184,-5.691144E-05
451.8184,-5.69105E-05
451.9184,-5.68879E-05
452.0184,-5.685494E-05
452.1184,-5.68813E-05
452.2184,-5.688507E-05
452.3184,-5.681538E-05
452.4184,-5.680879E-05
452.5184,-5.681256E-05
452.6184,-5.677866E-05
452.7184,-5.677583E-05
452.8184,-5.677395E-05
452.9184,-5.674099E-05
453.0184,-5.671462E-05
453.1184,-5.674287E-05
453.2184,-5.670614E-05
453.3185,-5.669013E-05
453.4185,-5.667695E-05
453.5185,-5.664681E-05
453.6185,-5.664211E-05
453.7185,-5.662892E-05
453.8185,-5.66261E-05
453.9185,-5.658654E-05
454.0185,-5.659502E-05
454.1185,-5.654229E-05
454.2185,-5.6563E-05
454.3185,-5.655452E-05
454.4185,-5.650744E-05
454.5185,-5.646129E-05
454.6185,-5.649991E-05
454.7185,-5.650744E-05
454.8185,-5.646224E-05
454.9185,-5.646694E-05
455.0186,-5.644057E-05
455.1186,-5.638218E-05
455.2186,-5.64434E-05
455.3186,-5.638218E-05
455.4186,-5.635017E-05
455.5186,-5.634263E-05
455.6186,-5.634734E-05
455.7186,-5.631344E-05
455.8186,-5.630967E-05
455.9186,-5.629461E-05
456.0186,-5.624563E-05
456.1186,-5.628048E-05
456.2186,-5.626353E-05
456.3186,-5.622398E-05
456.4186,-5.621833E-05
456.5186,-5.620325E-05
456.6187,-5.619855E-05
456.7187,-5.620515E-05
456.8187,-5.614205E-05
456.9187,-5.610626E-05
457.0187,-5.615335E-05
457.1187,-5.615806E-05
457.2187,-5.611474E-05
457.3187,-5.60846E-05
457.4187,-5.608178E-05
457.5187,-5.605258E-05
457.6187,-5.605541E-05
457.7187,-5.604599E-05
457.8187,-5.601491E-05
457.9187,-5.600079E-05
458.0187,-5.59763E-05
458.1187,-5.599137E-05
458.2188,-5.599137E-05
458.3188,-5.594146E-05
458.4188,-5.592074E-05
458.5188,-5.592733E-05
458.6188,-5.591415E-05
458.7188,-5.588307E-05
458.8188,-5.589814E-05
458.9188,-5.586141E-05
459.0188,-5.582845E-05
459.1188,-5.585764E-05
459.2188,-5.582751E-05
459.3188,-5.579549E-05
459.4188,-5.577289E-05
459.5188,-5.578325E-05
459.6188,-5.575876E-05
459.7188,-5.574841E-05
459.8188,-5.573522E-05
459.9189,-5.569566E-05
460.0189,-5.571168E-05
460.1189,-5.570791E-05
460.2189,-5.568625E-05
460.3189,-5.567118E-05
460.4189,-5.564669E-05
460.5189,-5.563634E-05
460.6189,-5.563634E-05
460.7189,-5.562409E-05
460.8189,-5.559678E-05
460.9189,-5.558737E-05
461.0189,-5.561279E-05
461.1189,-5.556665E-05
461.2189,-5.556476E-05
461.3189,-5.555064E-05
461.4189,-5.55384E-05
461.519,-5.552521E-05
461.619,-5.551109E-05
461.719,-5.547153E-05
461.819,-5.546494E-05
461.919,-5.546306E-05
462.019,-5.544799E-05
462.119,-5.543481E-05
462.219,-5.544893E-05
462.319,-5.540844E-05
462.419,-5.541503E-05
462.519,-5.539525E-05
462.619,-5.534817E-05
462.719,-5.533592E-05
462.819,-5.538113E-05
462.919,-5.534064E-05
463.019,-5.530014E-05
463.119,-5.533969E-05
463.2191,-5.532368E-05
463.3191,-5.530108E-05
463.4191,-5.527942E-05
463.5191,-5.526153E-05
463.6191,-5.523139E-05
463.7191,-5.527471E-05
463.8191,-5.523139E-05
463.9191,-5.522857E-05
464.0191,-5.520785E-05
464.1191,-5.51796E-05
464.2191,-5.518242E-05
464.3191,-5.51504E-05
464.4191,-5.514287E-05
464.5191,-5.515511E-05
464.6191,-5.514099E-05
464.7191,-5.509861E-05
464.8192,-5.505246E-05
464.9192,-5.510614E-05
465.0192,-5.508825E-05
465.1192,-5.505152E-05
465.2192,-5.506659E-05
465.3192,-5.503551E-05
465.4192,-5.501008E-05
465.5192,-5.499879E-05
465.6192,-5.498372E-05
465.7192,-5.497148E-05
465.8192,-5.497712E-05
465.9192,-5.496771E-05
466.0192,-5.493569E-05
466.1192,-5.493569E-05
466.2192,-5.490838E-05
466.3192,-5.487918E-05
466.4193,-5.48886E-05
466.5193,-5.488013E-05
466.6193,-5.484434E-05
466.7193,-5.482645E-05
466.8193,-5.483116E-05
466.9193,-5.482174E-05
467.0193,-5.480384E-05
467.1193,-5.480291E-05
467.2193,-5.478784E-05
467.3193,-5.476147E-05
467.4193,-5.475017E-05
467.5193,-5.472568E-05
467.6193,-5.473792E-05
467.7193,-5.471532E-05
467.8193,-5.467294E-05
467.9193,-5.473698E-05
468.0193,-5.471532E-05
468.1194,-5.466729E-05
468.2194,-5.46494E-05
468.3194,-5.467766E-05
468.4194,-5.463622E-05
468.5194,-5.462868E-05
468.6194,-5.459761E-05
468.7194,-5.45863E-05
468.8194,-5.458442E-05
468.9194,-5.456277E-05
469.0194,-5.455052E-05
469.1194,-5.451756E-05
469.2194,-5.456559E-05
469.3194,-5.454204E-05
469.4194,-5.446671E-05
469.5194,-5.44893E-05
469.6194,-5.450155E-05
469.7195,-5.446765E-05
469.8195,-5.443469E-05
469.9195,-5.447612E-05
470.0195,-5.446294E-05
470.1195,-5.441303E-05
470.2195,-5.438007E-05
470.3195,-5.438384E-05
470.4195,-5.437536E-05
470.5195,-5.436971E-05
470.6195,-5.430567E-05
470.7195,-5.430755E-05
470.8195,-5.432733E-05
470.9195,-5.429531E-05
471.0195,-5.427648E-05
471.1195,-5.426329E-05
471.2195,-5.424163E-05
471.3195,-5.425388E-05
471.4196,-5.421997E-05
471.5196,-5.420208E-05
471.6196,-5.41936E-05
471.7196,-5.417665E-05
471.8196,-5.416535E-05
471.9196,-5.413239E-05
472.0196,-5.417665E-05
472.1196,-5.414746E-05
472.2196,-5.412297E-05
472.3196,-5.412297E-05
472.4196,-5.410603E-05
472.5196,-5.409755E-05
472.6196,-5.409472E-05
472.7196,-5.406647E-05
472.8196,-5.404669E-05
472.9196,-5.404575E-05
473.0197,-5.402221E-05
473.1197,-5.399678E-05
473.2197,-5.398737E-05
473.3197,-5.39949E-05
473.4197,-5.396853E-05
473.5197,-5.39657E-05
473.6197,-5.394216E-05
473.7197,-5.393369E-05
473.8197,-5.39318E-05
473.9197,-5.391203E-05
474.0197,-5.388001E-05
474.1197,-5.38753E-05
474.2197,-5.385269E-05
474.3197,-5.382445E-05
474.4197,-5.385834E-05
474.5197,-5.383103E-05
474.6198,-5.380373E-05
474.7198,-5.38009E-05
474.8198,-5.376794E-05
474.9198,-5.377077E-05
475.0198,-5.381126E-05
475.1198,-5.378301E-05
475.2198,-5.372839E-05
475.3198,-5.374251E-05
475.4198,-5.371992E-05
475.5198,-5.369637E-05
475.6198,-5.36813E-05
475.7198,-5.368601E-05
475.8198,-5.365588E-05
475.9198,-5.366623E-05
476.0198,-5.362197E-05
476.1198,-5.362197E-05
476.2198,-5.361821E-05
476.3199,-5.361915E-05
476.4199,-5.360314E-05
476.5199,-5.359278E-05
476.6199,-5.356547E-05
476.7199,-5.354099E-05
476.8199,-5.355699E-05
476.9199,-5.355793E-05
477.0199,-5.353157E-05
477.1199,-5.352215E-05
477.2199,-5.348448E-05
477.3199,-5.347977E-05
477.4199,-5.34826E-05
477.5199,-5.347506E-05
477.6199,-5.345058E-05
477.7199,-5.345905E-05
477.8199,-5.346188E-05
477.92,-5.340726E-05
478.02,-5.340726E-05
478.12,-5.340067E-05
478.22,-5.337524E-05
478.32,-5.337524E-05
478.42,-5.334228E-05
478.52,-5.33225E-05
478.62,-5.33451E-05
478.72,-5.331685E-05
478.82,-5.327542E-05
478.92,-5.330555E-05
479.02,-5.328766E-05
479.12,-5.325281E-05
479.22,-5.324622E-05
479.32,-5.325375E-05
479.42,-5.322456E-05
479.5201,-5.323775E-05
479.6201,-5.321892E-05
479.7201,-5.317277E-05
479.8201,-5.317465E-05
479.9201,-5.317371E-05
480.0201,-5.315205E-05
480.1201,-5.313604E-05
480.2201,-5.314923E-05
480.3201,-5.308142E-05
480.4201,-5.309837E-05
480.5201,-5.308613E-05
480.6201,-5.303716E-05
480.7201,-5.302868E-05
480.8201,-5.306824E-05
480.9201,-5.302774E-05
481.0201,-5.301079E-05
481.1201,-5.301079E-05
481.2202,-5.298442E-05
481.3202,-5.29816E-05
481.4202,-5.297312E-05
481.5202,-5.290908E-05
481.6202,-5.290814E-05
481.7202,-5.29477E-05
481.8202,-5.29637E-05
481.9202,-5.291097E-05
482.0202,-5.289401E-05
482.1202,-5.292697E-05
482.2202,-5.287613E-05
482.3202,-5.288177E-05
482.4202,-5.28733E-05
482.5202,-5.284316E-05
482.6202,-5.283092E-05
482.7202,-5.280832E-05
482.8203,-5.279042E-05
482.9203,-5.278195E-05
483.0203,-5.278572E-05
483.1203,-5.273581E-05
483.2203,-5.273015E-05
483.3203,-5.271885E-05
483.4203,-5.269813E-05
483.5203,-5.271415E-05
483.6203,-5.269625E-05
483.7203,-5.264351E-05
483.8203,-5.267742E-05
483.9203,-5.265858E-05
484.0203,-5.262468E-05
484.1203,-5.263504E-05
484.2203,-5.263316E-05
484.3203,-5.26049E-05
484.4203,-5.258795E-05
484.5204,-5.256818E-05
484.6204,-5.256158E-05
484.7204,-5.255688E-05
484.8204,-5.256912E-05
484.9204,-5.253427E-05
485.0204,-5.252957E-05
485.1204,-5.253239E-05
485.2204,-5.250884E-05
485.3204,-5.251073E-05
485.4204,-5.247118E-05
485.5204,-5.244387E-05
485.6204,-5.247494E-05
485.7204,-5.247306E-05
485.8204,-5.241938E-05
485.9204,-5.240714E-05
486.0204,-5.240149E-05
486.1205,-5.238454E-05
486.2205,-5.23836E-05
486.3205,-5.239772E-05
486.4205,-5.235252E-05
486.5205,-5.234875E-05
486.6205,-5.235252E-05
486.7205,-5.230449E-05
486.8205,-5.230732E-05
486.9205,-5.230638E-05
487.0205,-5.228754E-05
487.1205,-5.228377E-05
487.2205,-5.226117E-05
487.3205,-5.221879E-05
487.4205,-5.221691E-05
487.5205,-5.222444E-05
487.6205,-5.221314E-05
487.7206,-5.219996E-05
487.8206,-5.216982E-05
487.9206,-5.214439E-05
488.0206,-5.216135E-05
488.1206,-5.216794E-05
488.2206,-5.213592E-05
488.3206,-5.211803E-05
488.4206,-5.211708E-05
488.5206,-5.209072E-05
488.6206,-5.211897E-05
488.7206,-5.210202E-05
488.8206,-5.205305E-05
488.9206,-5.20587E-05
489.0206,-5.206812E-05
489.1206,-5.203798E-05
489.2206,-5.201162E-05
489.3206,-5.204457E-05
489.4207,-5.202009E-05
489.5207,-5.198242E-05
489.6207,-5.199749E-05
489.7207,-5.193345E-05
489.8207,-5.195793E-05
489.9207,-5.198147E-05
490.0207,-5.194758E-05
490.1207,-5.189578E-05
490.2207,-5.19504E-05
490.3207,-5.194758E-05
490.4207,-5.191367E-05
490.5207,-5.190426E-05
490.6207,-5.19052E-05
490.7207,-5.185152E-05
490.8207,-5.185905E-05
490.9207,-5.186282E-05
491.0208,-5.185435E-05
491.1208,-5.184869E-05
491.2208,-5.180161E-05
491.3208,-5.178371E-05
491.4208,-5.179125E-05
491.5208,-5.179407E-05
491.6208,-5.178371E-05
491.7208,-5.176017E-05
491.8208,-5.173192E-05
491.9208,-5.170555E-05
492.0208,-5.174699E-05
492.1208,-5.170837E-05
492.2208,-5.169613E-05
492.3208,-5.168201E-05
492.4208,-5.165187E-05
492.5208,-5.164999E-05
492.6208,-5.165187E-05
492.7209,-5.165375E-05
492.8209,-5.163115E-05
492.9209,-5.16142E-05
493.0209,-5.161232E-05
493.1209,-5.15803E-05
493.2209,-5.158312E-05
493.3209,-5.159442E-05
493.4209,-5.155958E-05
493.5209,-5.156617E-05
493.6209,-5.153321E-05
493.7209,-5.150402E-05
493.8209,-5.153698E-05
493.9209,-5.15238E-05
494.0209,-5.148895E-05
494.1209,-5.148236E-05
494.2209,-5.145599E-05
494.321,-5.146259E-05
494.421,-5.147483E-05
494.521,-5.144752E-05
494.621,-5.14381E-05
494.721,-5.142021E-05
494.821,-5.140984E-05
494.921,-5.140608E-05
495.021,-5.140231E-05
495.121,-5.135805E-05
495.221,-5.135146E-05
495.321,-5.135146E-05
495.421,-5.135523E-05
495.521,-5.134486E-05
495.621,-5.130626E-05
495.721,-5.131097E-05
495.821,-5.129025E-05
495.9211,-5.132603E-05
496.0211,-5.127801E-05
496.1211,-5.124128E-05
496.2211,-5.127706E-05
496.3211,-5.129307E-05
496.4211,-5.12507E-05
496.5211,-5.122715E-05
496.6211,-5.125258E-05
496.7211,-5.120361E-05
496.8211,-5.121867E-05
496.9211,-5.121114E-05
497.0211,-5.117818E-05
497.1211,-5.117912E-05
497.2211,-5.116028E-05
497.3211,-5.118101E-05
497.4211,-5.11537E-05
497.5211,-5.111885E-05
497.6212,-5.114899E-05
497.7212,-5.110473E-05
497.8212,-5.110755E-05
497.9212,-5.108118E-05
498.0212,-5.108307E-05
498.1212,-5.108213E-05
498.2212,-5.10727E-05
498.3212,-5.107742E-05
498.4212,-5.105764E-05
498.5212,-5.103598E-05
498.6212,-5.10501E-05
498.7212,-5.102279E-05
498.8212,-5.10049E-05
498.9212,-5.101244E-05
499.0212,-5.098513E-05
499.1212,-5.096723E-05
499.2213,-5.096535E-05
499.3213,-5.094557E-05
499.4213,-5.092674E-05
499.5213,-5.093521E-05
499.6213,-5.093427E-05
499.7213,-5.091355E-05
499.8213,-5.09079E-05
499.9213,-5.089378E-05
500.0213,-5.084386E-05
500.1213,-5.0874E-05
500.2213,-5.08627E-05
500.3213,-5.081373E-05
500.4213,-5.082786E-05
500.5213,-5.082409E-05
500.6213,-5.080808E-05
500.7213,-5.081467E-05
500.8214,-5.078642E-05
500.9214,-5.076288E-05
501.0214,-5.076382E-05
501.1214,-5.076853E-05
501.2214,-5.074593E-05
501.3214,-5.073368E-05
501.4214,-5.072521E-05
501.5214,-5.071768E-05
501.6214,-5.07092E-05
501.7214,-5.070355E-05
501.8214,-5.068094E-05
501.9214,-5.0664E-05
502.0214,-5.067718E-05
502.1214,-5.066305E-05
502.2214,-5.064233E-05
502.3214,-5.064799E-05
502.4214,-5.06235E-05
502.5215,-5.061785E-05
502.6215,-5.060373E-05
502.7215,-5.057736E-05
502.8215,-5.058866E-05
502.9215,-5.059713E-05
503.0215,-5.056041E-05
503.1215,-5.055381E-05
503.2215,-5.055758E-05
503.3215,-5.055475E-05
503.4215,-5.05717E-05
503.5215,-5.054628E-05
503.6215,-5.049448E-05
503.7215,-5.052085E-05
503.8215,-5.051991E-05
503.9215,-5.049637E-05
504.0215,-5.047E-05
504.1216,-5.045964E-05
504.2216,-5.043138E-05
504.3216,-5.044363E-05
504.4216,-5.044457E-05
504.5216,-5.04069E-05
504.6216,-5.040219E-05
504.7216,-5.040219E-05
504.8216,-5.038053E-05
504.9216,-5.037959E-05
505.0216,-5.034286E-05
505.1216,-5.033439E-05
505.2216,-5.032968E-05
505.3216,-5.033439E-05
505.4216,-5.032215E-05
505.5216,-5.03099E-05
505.6216,-5.031461E-05
505.7216,-5.028071E-05
505.8217,-5.027977E-05
505.9217,-5.026753E-05
506.0217,-5.026094E-05
506.1217,-5.025529E-05
506.2217,-5.023551E-05
506.3217,-5.021385E-05
506.4217,-5.022797E-05
506.5217,-5.022515E-05
506.6217,-5.020725E-05
506.7217,-5.018466E-05
506.8217,-5.016959E-05
506.9217,-5.016959E-05
507.0217,-5.016299E-05
507.1217,-5.016676E-05
507.2217,-5.012815E-05
507.3217,-5.012815E-05
507.4218,-5.01225E-05
507.5218,-5.007259E-05
507.6218,-5.009424E-05
507.7218,-5.009142E-05
507.8218,-5.007918E-05
507.9218,-5.006129E-05
508.0218,-5.008483E-05
508.1218,-5.005752E-05
508.2218,-5.002456E-05
508.3218,-5.00434E-05
508.4218,-5.001232E-05
508.5218,-4.999348E-05
508.6218,-5.001608E-05
508.7218,-4.999725E-05
508.8218,-4.997371E-05
508.9218,-4.997088E-05
509.0219,-4.994545E-05
509.1219,-4.994451E-05
509.2219,-4.996806E-05
509.3219,-4.994169E-05
509.4219,-4.992097E-05
509.5219,-4.991814E-05
509.6219,-4.990778E-05
509.7219,-4.988895E-05
509.8219,-4.990308E-05
509.9219,-4.986258E-05
510.0219,-4.986635E-05
510.1219,-4.984846E-05
510.2219,-4.983056E-05
510.3219,-4.983056E-05
510.4219,-4.985693E-05
510.5219,-4.981832E-05
510.6219,-4.978159E-05
510.722,-4.980326E-05
510.822,-4.978159E-05
510.922,-4.977311E-05
511.022,-4.977689E-05
511.122,-4.974863E-05
511.222,-4.972509E-05
511.322,-4.974486E-05
511.422,-4.971285E-05
511.522,-4.971096E-05
511.622,-4.969684E-05
511.722,-4.969495E-05
511.822,-4.968459E-05
511.922,-4.967706E-05
512.022,-4.964787E-05
512.122,-4.962621E-05
512.222,-4.963563E-05
512.322,-4.962621E-05
512.4219,-4.96102E-05
512.5219,-4.960172E-05
512.6219,-4.959042E-05
512.7219,-4.957629E-05
512.8218,-4.958006E-05
512.9218,-4.955746E-05
513.0218,-4.954616E-05
513.1218,-4.955464E-05
513.2217,-4.955558E-05
513.3217,-4.955652E-05
513.4217,-4.953203E-05
513.5217,-4.952168E-05
513.6216,-4.94906E-05
513.7216,-4.950849E-05
513.8216,-4.950472E-05
513.9216,-4.945575E-05
514.0215,-4.946423E-05
514.1215,-4.947553E-05
514.2215,-4.9468E-05
514.3215,-4.947365E-05
514.4214,-4.941432E-05
514.5214,-4.940396E-05
514.6214,-4.942091E-05
514.7214,-4.940867E-05
514.8214,-4.936818E-05
514.9213,-4.936158E-05
515.0213,-4.935405E-05
515.1213,-4.933615E-05
515.2213,-4.933333E-05
515.3212,-4.933898E-05
515.4212,-4.929943E-05
515.5212,-4.934557E-05
515.6212,-4.933145E-05
515.7211,-4.928154E-05
515.8211,-4.931732E-05
515.9211,-4.929377E-05
516.0211,-4.924951E-05
516.121,-4.929377E-05
516.221,-4.929001E-05
516.321,-4.924857E-05
516.421,-4.925423E-05
516.5209,-4.92109E-05
516.6209,-4.921655E-05
516.7209,-4.924292E-05
516.8209,-4.921373E-05
516.9208,-4.917135E-05
517.0208,-4.917512E-05
517.1208,-4.918171E-05
517.2208,-4.915534E-05
517.3207,-4.917324E-05
517.4207,-4.915722E-05
517.5207,-4.912521E-05
517.6207,-4.912521E-05
517.7206,-4.912803E-05
517.8206,-4.909036E-05
517.9206,-4.908754E-05
518.0206,-4.910637E-05
518.1205,-4.909507E-05
518.2205,-4.906964E-05
518.3205,-4.905175E-05
518.4205,-4.902821E-05
518.5204,-4.904045E-05
518.6204,-4.905834E-05
518.7204,-4.901691E-05
518.8204,-4.901691E-05
518.9203,-4.901691E-05
519.0203,-4.898771E-05
519.1203,-4.900089E-05
519.2203,-4.90235E-05
519.3203,-4.896982E-05
519.4202,-4.89557E-05
519.5202,-4.896982E-05
519.6202,-4.894816E-05
519.7202,-4.891897E-05
519.8201,-4.892462E-05
519.9201,-4.892744E-05
520.0201,-4.89265E-05
520.1201,-4.891897E-05
520.22,-4.887565E-05
520.32,-4.886246E-05
520.42,-4.887847E-05
520.52,-4.886717E-05
520.6199,-4.885399E-05
520.7199,-4.884551E-05
520.8199,-4.881255E-05
520.9199,-4.882291E-05
521.0198,-4.881067E-05
521.1198,-4.879843E-05
521.2198,-4.87843E-05
521.3198,-4.878806E-05
521.4197,-4.873815E-05
521.5197,-4.878053E-05
521.6197,-4.876923E-05
521.7197,-4.875228E-05
521.8196,-4.876264E-05
521.9196,-4.874569E-05
522.0196,-4.869483E-05
522.1196,-4.870614E-05
522.2195,-4.872214E-05
522.3195,-4.868636E-05
522.4195,-4.868918E-05
522.5195,-4.867035E-05
522.6194,-4.864398E-05
522.7194,-4.866564E-05
522.8194,-4.866375E-05
522.9194,-4.863456E-05
523.0193,-4.861385E-05
523.1193,-4.862138E-05
523.2193,-4.86082E-05
523.3193,-4.861291E-05
523.4193,-4.861291E-05
523.5192,-4.858277E-05
523.6192,-4.858183E-05
523.7192,-4.858842E-05
523.8192,-4.85564E-05
523.9191,-4.854792E-05
524.0191,-4.859124E-05
524.1191,-4.852815E-05
524.2191,-4.854133E-05
524.319,-4.851873E-05
524.419,-4.849424E-05
524.519,-4.850649E-05
524.619,-4.853192E-05
524.7189,-4.846788E-05
524.8189,-4.845376E-05
524.9189,-4.849236E-05
525.0189,-4.842927E-05
525.1188,-4.845376E-05
525.2188,-4.846788E-05
525.3188,-4.841232E-05
525.4188,-4.843021E-05
525.5187,-4.843774E-05
525.6187,-4.838783E-05
525.7187,-4.837182E-05
525.8187,-4.840572E-05
525.9186,-4.840949E-05
526.0186,-4.838595E-05
526.1186,-4.8369E-05
526.2186,-4.833509E-05
526.3185,-4.836052E-05
526.4185,-4.836805E-05
526.5185,-4.832944E-05
526.6185,-4.833886E-05
526.7184,-4.83285E-05
526.8184,-4.829177E-05
526.9184,-4.832191E-05
527.0184,-4.828424E-05
527.1183,-4.827953E-05
527.2183,-4.828801E-05
527.3183,-4.827859E-05
527.4183,-4.826823E-05
527.5182,-4.82494E-05
527.6182,-4.825505E-05
527.7182,-4.824563E-05
527.8182,-4.820608E-05
527.9182,-4.822114E-05
528.0181,-4.819195E-05
528.1181,-4.817594E-05
528.2181,-4.818441E-05
528.3181,-4.818348E-05
528.418,-4.816464E-05
528.518,-4.816841E-05
528.618,-4.813545E-05
528.718,-4.811096E-05
528.8179,-4.81411E-05
528.9179,-4.816652E-05
529.0179,-4.810625E-05
529.1179,-4.808271E-05
529.2178,-4.809213E-05
529.3178,-4.807518E-05
529.4178,-4.809401E-05
529.5178,-4.807706E-05
529.6177,-4.80441E-05
529.7177,-4.805163E-05
529.8177,-4.803091E-05
529.9177,-4.801961E-05
530.0176,-4.802526E-05
530.1176,-4.803091E-05
530.2176,-4.800549E-05
530.3176,-4.802715E-05
530.4175,-4.800549E-05
530.5175,-4.797064E-05
530.6175,-4.79989E-05
530.7175,-4.796029E-05
530.8174,-4.793863E-05
530.9174,-4.795557E-05
531.0174,-4.798759E-05
531.1174,-4.789436E-05
531.2173,-4.790849E-05
531.3173,-4.792356E-05
531.4173,-4.791038E-05
531.5173,-4.792167E-05
531.6172,-4.790001E-05
531.7172,-4.786611E-05
531.8172,-4.787459E-05
531.9172,-4.787082E-05
532.0172,-4.785575E-05
532.1171,-4.785858E-05
532.2171,-4.783786E-05
532.3171,-4.781243E-05
532.4171,-4.783692E-05
532.517,-4.782373E-05
532.617,-4.776346E-05
532.717,-4.781243E-05
532.817,-4.782844E-05
532.9169,-4.777006E-05
533.0169,-4.77597E-05
533.1169,-4.776064E-05
533.2169,-4.774557E-05
533.3168,-4.773709E-05
533.4168,-4.773803E-05
533.5168,-4.770507E-05
533.6168,-4.769849E-05
533.7167,-4.772485E-05
533.8167,-4.769754E-05
533.9167,-4.767211E-05
534.0167,-4.768248E-05
534.1166,-4.767871E-05
534.2166,-4.766646E-05
534.3166,-4.768436E-05
534.4166,-4.761844E-05
534.5165,-4.763916E-05
534.6165,-4.76335E-05
534.7165,-4.762126E-05
534.8165,-4.763916E-05
534.9164,-4.761373E-05
535.0164,-4.757041E-05
535.1164,-4.759207E-05
535.2164,-4.761938E-05
535.3163,-4.758171E-05
535.4163,-4.754592E-05
535.5163,-4.754592E-05
535.6163,-4.753839E-05
535.7162,-4.756475E-05
535.8162,-4.754592E-05
535.9162,-4.751767E-05
536.0162,-4.750261E-05
536.1161,-4.75318E-05
536.2161,-4.750919E-05
536.3161,-4.750731E-05
536.4161,-4.750449E-05
536.5161,-4.746117E-05
536.616,-4.747718E-05
536.716,-4.748565E-05
536.816,-4.743668E-05
536.916,-4.741502E-05
537.0159,-4.74574E-05
537.1159,-4.746211E-05
537.2159,-4.741502E-05
537.3159,-4.74348E-05
537.4158,-4.743009E-05
537.5158,-4.739619E-05
537.6158,-4.741785E-05
537.7158,-4.739807E-05
537.8157,-4.739054E-05
537.9157,-4.73717E-05
538.0157,-4.736041E-05
538.1157,-4.735287E-05
538.2156,-4.737735E-05
538.3156,-4.735475E-05
538.4156,-4.734722E-05
538.5156,-4.735287E-05
538.6155,-4.732085E-05
538.7155,-4.732085E-05
538.8155,-4.732932E-05
538.9155,-4.731425E-05
539.0154,-4.730767E-05
539.1154,-4.731332E-05
539.2154,-4.727847E-05
539.3154,-4.725964E-05
539.4153,-4.73152E-05
539.5153,-4.732273E-05
539.6153,-4.728318E-05
539.7153,-4.727565E-05
539.8152,-4.727282E-05
539.9152,-4.726058E-05
540.0152,-4.728224E-05
540.1152,-4.725869E-05
540.2151,-4.723986E-05
540.3151,-4.723986E-05
540.4151,-4.722668E-05
540.5151,-4.722573E-05
540.6151,-4.720502E-05
540.715,-4.722573E-05
540.815,-4.723421E-05
540.915,-4.723138E-05
541.015,-4.719277E-05
541.1149,-4.71664E-05
541.2149,-4.717865E-05
541.3149,-4.717394E-05
541.4149,-4.716923E-05
541.5148,-4.716452E-05
541.6148,-4.716735E-05
541.7148,-4.712967E-05
541.8148,-4.714569E-05
541.9147,-4.715887E-05
542.0147,-4.711649E-05
542.1147,-4.711838E-05
542.2147,-4.71391E-05
542.3146,-4.711273E-05
542.4146,-4.707883E-05
542.5146,-4.709106E-05
542.6146,-4.708918E-05
542.7145,-4.710237E-05
542.8145,-4.710614E-05
542.9145,-4.706187E-05
543.0145,-4.706658E-05
543.1144,-4.708071E-05
543.2144,-4.704587E-05
543.3144,-4.70647E-05
543.4144,-4.705905E-05
543.5143,-4.700914E-05
543.6143,-4.701761E-05
543.7143,-4.70242E-05
543.8143,-4.700443E-05
543.9142,-4.700914E-05
544.0142,-4.699312E-05
544.1142,-4.69903E-05
544.2142,-4.699218E-05
544.3141,-4.697429E-05
544.4141,-4.695358E-05
544.5141,-4.696958E-05
544.6141,-4.697994E-05
544.7141,-4.69498E-05
544.814,-4.695452E-05
544.914,-4.69451E-05
545.014,-4.691402E-05
545.114,-4.692815E-05
545.2139,-4.693286E-05
545.3139,-4.691402E-05
545.4139,-4.691873E-05
545.5139,-4.691214E-05
545.6138,-4.687541E-05
545.7138,-4.687635E-05
545.8138,-4.690366E-05
545.9138,-4.687635E-05
546.0137,-4.687447E-05
546.1137,-4.684904E-05
546.2137,-4.684716E-05
546.3137,-4.684527E-05
546.4136,-4.686411E-05
546.5136,-4.683209E-05
546.6136,-4.684151E-05
546.7136,-4.68142E-05
546.8135,-4.683397E-05
546.9135,-4.68368E-05
547.0135,-4.681703E-05
547.1135,-4.677841E-05
547.2134,-4.680101E-05
547.3134,-4.678688E-05
547.4134,-4.678029E-05
547.5134,-4.678595E-05
547.6133,-4.675581E-05
547.7133,-4.67398E-05
547.8133,-4.675487E-05
547.9133,-4.677465E-05
548.0132,-4.673791E-05
548.1132,-4.671814E-05
548.2132,-4.67059E-05
548.3132,-4.670119E-05
548.4131,-4.672662E-05
548.5131,-4.672285E-05
548.6131,-4.66654E-05
548.7131,-4.66946E-05
548.813,-4.672379E-05
548.913,-4.669837E-05
549.013,-4.669648E-05
549.113,-4.665033E-05
549.213,-4.666164E-05
549.3129,-4.666164E-05
549.4129,-4.667011E-05
549.5129,-4.662208E-05
549.6129,-4.664092E-05
549.7128,-4.664092E-05
549.8128,-4.662114E-05
549.9128,-4.66202E-05
550.0128,-4.663245E-05
550.1127,-4.659195E-05
550.2127,-4.661643E-05
550.3127,-4.659948E-05
550.4127,-4.657876E-05
550.5126,-4.657594E-05
550.6126,-4.660231E-05
550.7126,-4.655993E-05
550.8126,-4.654203E-05
550.9125,-4.655616E-05
551.0125,-4.654863E-05
551.1125,-4.654769E-05
551.2125,-4.657123E-05
551.3124,-4.652132E-05
551.4124,-4.649589E-05
551.5124,-4.653733E-05
551.6124,-4.65524E-05
551.7123,-4.651096E-05
551.8123,-4.650531E-05
551.9123,-4.650907E-05
552.0123,-4.650719E-05
552.1122,-4.650907E-05
552.2122,-4.647329E-05
552.3122,-4.646576E-05
552.4122,-4.647046E-05
552.5121,-4.645728E-05
552.6121,-4.644221E-05
552.7121,-4.644598E-05
552.8121,-4.642432E-05
552.912,-4.640455E-05
553.012,-4.64375E-05
553.112,-4.64149E-05
553.212,-4.638853E-05
553.312,-4.640925E-05
553.4119,-4.638383E-05
553.5119,-4.638383E-05
553.6119,-4.640549E-05
553.7119,-4.637818E-05
553.8118,-4.634992E-05
553.9118,-4.638665E-05
554.0118,-4.638477E-05
554.1118,-4.634898E-05
554.2117,-4.636688E-05
554.3117,-4.636028E-05
554.4117,-4.634239E-05
554.5117,-4.636782E-05
554.6116,-4.638006E-05
554.7116,-4.633486E-05
554.8116,-4.633486E-05
554.9116,-4.634898E-05
555.0115,-4.631319E-05
555.1115,-4.631131E-05
555.2115,-4.6284E-05
555.3115,-4.627647E-05
555.4114,-4.629813E-05
555.5114,-4.631037E-05
555.6114,-4.626611E-05
555.7114,-4.624727E-05
555.8113,-4.62727E-05
555.9113,-4.625198E-05
556.0113,-4.625387E-05
556.1113,-4.624539E-05
556.2112,-4.619925E-05
556.3112,-4.621337E-05
556.4112,-4.623409E-05
556.5112,-4.620113E-05
556.6111,-4.621243E-05
556.7111,-4.618606E-05
556.8111,-4.615781E-05
556.9111,-4.618136E-05
557.011,-4.618418E-05
557.111,-4.614463E-05
557.211,-4.613898E-05
557.311,-4.615122E-05
557.4109,-4.611543E-05
557.5109,-4.612485E-05
557.6109,-4.614651E-05
557.7109,-4.610978E-05
557.8109,-4.61079E-05
557.9108,-4.611449E-05
558.0108,-4.610884E-05
558.1108,-4.611355E-05
558.2108,-4.60853E-05
558.3107,-4.607305E-05
558.4107,-4.607964E-05
558.5107,-4.609189E-05
558.6107,-4.604951E-05
558.7106,-4.604386E-05
558.8106,-4.606364E-05
558.9106,-4.603726E-05
559.0106,-4.605234E-05
559.1105,-4.606458E-05
559.2105,-4.602503E-05
559.3105,-4.600996E-05
559.4105,-4.60109E-05
559.5104,-4.603162E-05
559.6104,-4.603068E-05
559.7104,-4.600337E-05
559.8104,-4.600525E-05
559.9103,-4.598077E-05
560.0103,-4.598265E-05
560.1103,-4.598359E-05
560.2103,-4.599112E-05
560.3102,-4.598453E-05
560.4102,-4.594875E-05
560.5102,-4.59544E-05
560.6102,-4.597888E-05
560.7101,-4.593085E-05
560.8101,-4.59252E-05
560.9101,-4.593274E-05
561.0101,-4.592709E-05
561.11,-4.589507E-05
561.21,-4.591296E-05
561.31,-4.590637E-05
561.41,-4.589978E-05
561.5099,-4.589695E-05
561.6099,-4.58687E-05
561.7099,-4.587246E-05
561.8099,-4.588753E-05
561.9099,-4.587435E-05
562.0098,-4.587341E-05
562.1098,-4.585363E-05
562.2098,-4.58508E-05
562.3098,-4.581691E-05
562.4097,-4.584516E-05
562.5097,-4.583197E-05
562.6097,-4.58461E-05
562.7097,-4.582538E-05
562.8096,-4.579524E-05
562.9096,-4.581502E-05
563.0096,-4.582915E-05
563.1096,-4.577359E-05
563.2095,-4.577829E-05
563.3095,-4.579054E-05
563.4095,-4.58056E-05
563.5095,-4.576228E-05
563.6094,-4.578865E-05
563.7094,-4.576605E-05
563.8094,-4.575381E-05
563.9094,-4.580184E-05
564.0093,-4.575852E-05
564.1093,-4.574156E-05
564.2093,-4.575569E-05
564.3093,-4.575381E-05
564.4092,-4.571519E-05
564.5092,-4.572085E-05
564.6092,-4.573497E-05
564.7092,-4.571708E-05
564.8091,-4.57039E-05
564.9091,-4.569825E-05
565.0091,-4.568977E-05
565.1091,-4.567377E-05
565.209,-4.567847E-05
565.309,-4.567941E-05
565.409,-4.565869E-05
565.509,-4.565775E-05
565.6089,-4.562761E-05
565.7089,-4.566246E-05
565.8089,-4.567377E-05
565.9089,-4.562103E-05
566.0089,-4.564362E-05
566.1088,-4.566152E-05
566.2088,-4.562573E-05
566.3088,-4.563892E-05
566.4088,-4.56003E-05
566.5087,-4.558147E-05
566.6087,-4.558901E-05
566.7087,-4.560973E-05
566.8087,-4.556546E-05
566.9086,-4.554098E-05
567.0086,-4.557488E-05
567.1086,-4.556075E-05
567.2086,-4.552967E-05
567.3085,-4.556546E-05
567.4085,-4.551084E-05
567.5085,-4.552967E-05
567.6085,-4.551555E-05
567.7084,-4.549012E-05
567.8084,-4.547129E-05
567.9084,-4.547223E-05
568.0084,-4.54873E-05
568.1083,-4.546564E-05
568.2083,-4.548918E-05
568.3083,-4.548353E-05
568.4083,-4.546376E-05
568.5082,-4.545999E-05
568.6082,-4.541949E-05
568.7082,-4.545151E-05
568.8082,-4.547035E-05
568.9081,-4.544021E-05
569.0081,-4.54308E-05
569.1081,-4.542985E-05
569.2081,-4.539407E-05
569.308,-4.539501E-05
569.408,-4.540537E-05
569.508,-4.541008E-05
569.608,-4.539501E-05
569.7079,-4.541196E-05
569.8079,-4.539312E-05
569.9079,-4.534133E-05
570.0079,-4.538182E-05
570.1078,-4.537335E-05
570.2078,-4.534133E-05
570.3078,-4.534886E-05
570.4078,-4.531308E-05
570.5078,-4.532532E-05
570.6077,-4.538089E-05
570.7077,-4.536581E-05
570.8077,-4.530648E-05
570.9077,-4.531214E-05
571.0076,-4.533568E-05
571.1076,-4.531402E-05
571.2076,-4.528577E-05
571.3076,-4.52933E-05
571.4075,-4.52933E-05
571.5075,-4.530742E-05
571.6075,-4.53046E-05
571.7075,-4.525563E-05
571.8074,-4.52481E-05
571.9074,-4.526599E-05
572.0074,-4.523962E-05
572.1074,-4.526505E-05
572.2073,-4.523774E-05
572.3073,-4.521137E-05
572.4073,-4.521702E-05
572.5073,-4.523679E-05
572.6072,-4.520384E-05
572.7072,-4.52076E-05
572.8072,-4.523209E-05
572.9072,-4.518783E-05
573.0071,-4.518971E-05
573.1071,-4.521137E-05
573.2071,-4.517465E-05
573.3071,-4.517465E-05
573.407,-4.516522E-05
573.507,-4.515487E-05
573.607,-4.515769E-05
573.707,-4.517276E-05
573.8069,-4.514262E-05
573.9069,-4.515204E-05
574.0069,-4.51398E-05
574.1069,-4.513132E-05
574.2068,-4.514733E-05
574.3068,-4.512473E-05
574.4068,-4.509648E-05
574.5068,-4.510025E-05
574.6068,-4.509271E-05
574.7067,-4.508518E-05
574.8067,-4.506823E-05
574.9067,-4.509459E-05
575.0067,-4.510119E-05
575.1066,-4.506729E-05
575.2066,-4.507576E-05
575.3066,-4.507199E-05
575.4066,-4.507576E-05
575.5065,-4.50654E-05
575.6065,-4.501549E-05
575.7065,-4.502868E-05
575.8065,-4.504939E-05
575.9064,-4.505504E-05
576.0064,-4.502491E-05
576.1064,-4.501738E-05
576.2064,-4.500607E-05
576.3063,-4.4991E-05
576.4063,-4.501078E-05
576.5063,-4.498253E-05
576.6063,-4.496746E-05
576.7062,-4.497876E-05
576.8062,-4.498912E-05
576.9062,-4.496934E-05
577.0062,-4.494581E-05
577.1061,-4.494957E-05
577.2061,-4.495428E-05
577.3061,-4.495711E-05
577.4061,-4.493168E-05
577.506,-4.492226E-05
577.606,-4.492226E-05
577.706,-4.490248E-05
577.806,-4.489683E-05
577.9059,-4.490154E-05
578.0059,-4.488553E-05
578.1059,-4.4894E-05
578.2059,-4.490625E-05
578.3058,-4.49006E-05
578.4058,-4.485069E-05
578.5058,-4.487423E-05
578.6058,-4.486011E-05
578.7057,-4.487706E-05
578.8057,-4.487612E-05
578.9057,-4.486387E-05
579.0057,-4.481396E-05
579.1057,-4.484315E-05
579.2056,-4.485539E-05
579.3056,-4.484127E-05
579.4056,-4.481302E-05
579.5056,-4.480737E-05
579.6055,-4.480171E-05
579.7055,-4.480454E-05
579.8055,-4.48149E-05
579.9055,-4.478948E-05
580.0054,-4.47923E-05
580.1054,-4.48149E-05
580.2054,-4.478854E-05
580.3054,-4.477158E-05
580.4053,-4.478476E-05
580.5053,-4.478948E-05
580.6053,-4.479513E-05
580.7053,-4.47697E-05
580.8052,-4.475275E-05
580.9052,-4.475934E-05
581.0052,-4.4781E-05
581.1052,-4.47471E-05
581.2051,-4.475086E-05
581.3051,-4.476688E-05
581.4051,-4.472544E-05
581.5051,-4.474145E-05
581.605,-4.472826E-05
581.705,-4.470001E-05
581.805,-4.470943E-05
581.905,-4.472826E-05
582.0049,-4.470849E-05
582.1049,-4.469531E-05
582.2049,-4.469813E-05
582.3049,-4.466705E-05
582.4048,-4.469154E-05
582.5048,-4.470754E-05
582.6048,-4.465198E-05
582.7048,-4.464727E-05
582.8047,-4.467835E-05
582.9047,-4.464162E-05
583.0047,-4.468683E-05
583.1047,-4.466705E-05
583.2047,-4.462562E-05
583.3046,-4.462373E-05
583.4046,-4.465104E-05
583.5046,-4.462562E-05
583.6046,-4.463032E-05
583.7045,-4.464068E-05
583.8045,-4.461525E-05
583.9045,-4.465293E-05
584.0045,-4.460489E-05
584.1044,-4.459077E-05
584.2044,-4.45983E-05
584.3044,-4.458983E-05
584.4044,-4.459548E-05
584.5043,-4.458889E-05
584.6043,-4.45823E-05
584.7043,-4.458889E-05
584.8043,-4.457758E-05
584.9042,-4.457853E-05
585.0042,-4.456346E-05
585.1042,-4.454745E-05
585.2042,-4.455498E-05
585.3041,-4.456629E-05
585.4041,-4.454274E-05
585.5041,-4.453426E-05
585.6041,-4.452673E-05
585.704,-4.453804E-05
585.804,-4.453426E-05
585.904,-4.45079E-05
586.004,-4.452673E-05
586.1039,-4.452956E-05
586.2039,-4.452767E-05
586.3039,-4.453521E-05
586.4039,-4.450507E-05
586.5038,-4.446647E-05
586.6038,-4.447117E-05
586.7038,-4.449095E-05
586.8038,-4.447023E-05
586.9037,-4.446269E-05
587.0037,-4.4474E-05
587.1037,-4.44448E-05
587.2037,-4.448435E-05
587.3036,-4.444574E-05
587.4036,-4.440901E-05
587.5036,-4.442691E-05
587.6036,-4.445234E-05
587.7036,-4.442879E-05
587.8035,-4.441561E-05
587.9035,-4.442879E-05
588.0035,-4.441749E-05
588.1035,-4.440148E-05
588.2034,-4.441184E-05
588.3034,-4.440901E-05
588.4034,-4.439018E-05
588.5034,-4.438171E-05
588.6033,-4.438547E-05
588.7033,-4.437888E-05
588.8033,-4.438265E-05
588.9033,-4.438641E-05
589.0032,-4.435251E-05
589.1032,-4.437323E-05
589.2032,-4.436193E-05
589.3032,-4.433839E-05
589.4031,-4.435346E-05
589.5031,-4.433368E-05
589.6031,-4.43252E-05
589.7031,-4.434121E-05
589.803,-4.431955E-05
589.903,-4.429601E-05
590.003,-4.43026E-05
590.103,-4.430731E-05
590.2029,-4.43026E-05
590.3029,-4.429977E-05
590.4029,-4.428471E-05
590.5029,-4.428094E-05
590.6028,-4.430166E-05
590.7028,-4.427717E-05
590.8028,-4.427246E-05
590.9028,-4.427623E-05
591.0027,-4.426587E-05
591.1027,-4.42508E-05
591.2027,-4.426493E-05
591.3027,-4.42574E-05
591.4026,-4.423103E-05
591.5026,-4.422632E-05
591.6026,-4.424798E-05
591.7026,-4.422538E-05
591.8026,-4.423762E-05
591.9025,-4.424421E-05
592.0025,-4.422067E-05
592.1025,-4.422632E-05
592.2025,-4.422726E-05
592.3024,-4.421502E-05
592.4024,-4.419524E-05
592.5024,-4.421408E-05
592.6024,-4.419619E-05
592.7023,-4.419619E-05
592.8023,-4.41717E-05
592.9023,-4.418394E-05
593.0023,-4.421031E-05
593.1022,-4.420466E-05
593.2022,-4.416699E-05
593.3022,-4.417264E-05
593.4022,-4.416981E-05
593.5021,-4.416511E-05
593.6021,-4.418677E-05
593.7021,-4.417547E-05
593.8021,-4.416605E-05
593.902,-4.417076E-05
594.002,-4.418677E-05
594.102,-4.41604E-05
594.202,-4.414156E-05
594.3019,-4.416605E-05
594.4019,-4.414533E-05
594.5019,-4.413685E-05
594.6019,-4.413874E-05
594.7018,-4.408694E-05
594.8018,-4.411237E-05
594.9018,-4.412085E-05
595.0018,-4.4086E-05
595.1017,-4.406623E-05
595.2017,-4.409071E-05
595.3017,-4.409918E-05
595.4017,-4.408412E-05
595.5016,-4.407941E-05
595.6016,-4.406434E-05
595.7016,-4.404645E-05
595.8016,-4.406623E-05
595.9016,-4.408223E-05
596.0015,-4.405398E-05
596.1015,-4.407753E-05
596.2015,-4.400689E-05
596.3015,-4.401537E-05
596.4014,-4.405022E-05
596.5014,-4.403703E-05
596.6014,-4.399654E-05
596.7014,-4.402761E-05
596.8013,-4.402573E-05
596.9013,-4.396923E-05
597.0013,-4.399936E-05
597.1013,-4.401349E-05
597.2012,-4.397393E-05
597.3012,-4.397958E-05
597.4012,-4.396263E-05
597.5012,-4.393532E-05
597.6011,-4.39843E-05
597.7011,-4.397865E-05
597.8011,-4.394097E-05
597.9011,-4.393438E-05
598.001,-4.393815E-05
598.101,-4.394192E-05
598.201,-4.394568E-05
598.301,-4.394285E-05
598.4009,-4.389295E-05
598.5009,-4.390425E-05
598.6009,-4.391838E-05
598.7009,-4.391649E-05
598.8008,-4.391366E-05
598.9008,-4.387034E-05
599.0008,-4.388447E-05
599.1008,-4.390519E-05
599.2007,-4.389954E-05
599.3007,-4.386375E-05
599.4007,-4.38694E-05
599.5007,-4.385622E-05
599.6006,-4.383268E-05
599.7006,-4.384774E-05
599.8006,-4.385716E-05
599.9006,-4.381855E-05
600.0005,-4.382232E-05
