EXPID. 0885
[电化学]: i-t : @ 0(V) X 600(sec)
起始电位 (V),0
静置时间 (秒),0
运行时间 (秒),600
记录间隔,0.1
电解液 信息:
HNO3,0.4
0.1,-0.01005814
0.2,-0.01005814
0.3,-0.01005814
0.4,-0.01005814
0.5,-0.01005814
0.6,-0.01005814
0.7,-0.01005814
0.8000001,-0.01005814
0.9000001,-0.01005814
1,-0.01005814
1.1,-0.01005814
1.2,-0.01005814
1.3,-0.01005814
1.4,-0.01005814
1.5,-0.01005814
1.6,-0.006946281
1.7,0.004125981
1.8,0.004446004
1.9,0.004264051
2,0.001561073
2.1,-0.0009038453
2.2,-0.001674894
2.3,-0.001988587
2.4,-0.002310317
2.5,-0.002692047
2.6,-0.003067239
2.7,-0.003355199
2.799999,-0.003542839
2.899999,-0.003658808
2.999999,-0.003713241
3.099999,-0.003723878
3.199999,-0.003715136
3.299999,-0.003686946
3.399999,-0.003647547
3.499999,-0.00360519
3.599999,-0.003557684
3.699999,-0.003506417
3.799999,-0.003454802
3.899998,-0.003398874
3.999998,-0.003347844
4.099998,-0.003292019
4.199998,-0.003236687
4.299998,-0.003186739
4.399998,-0.003131976
4.499998,-0.003077036
4.599998,-0.003023965
4.699998,-0.002968204
4.799998,-0.002912854
4.899998,-0.002859333
4.999998,-0.002805267
5.099998,-0.002755732
5.199997,-0.002706234
5.299997,-0.002658646
5.399997,-0.002611506
5.499997,-0.002569991
5.599997,-0.002528202
5.699997,-0.002486619
5.799997,-0.002450863
5.899997,-0.002414568
5.999997,-0.002379238
6.099997,-0.0023474
6.199996,-0.002316586
6.299996,-0.002285371
6.399996,-0.002258322
6.499996,-0.002231251
6.599996,-0.002204623
6.699996,-0.002179451
6.799996,-0.002155963
6.899996,-0.002132242
6.999996,-0.002109616
7.099996,-0.002088167
7.199996,-0.002066941
7.299995,-0.002046262
7.399995,-0.002026626
7.499995,-0.002007617
7.599995,-0.001989413
7.699995,-0.001970688
7.799995,-0.001953478
7.899995,-0.001936856
7.999995,-0.001919453
8.099995,-0.001903569
8.199995,-0.001888144
8.299995,-0.00187304
8.399996,-0.001858354
8.499996,-0.001844274
8.599997,-0.001828985
8.699997,-0.001815287
8.799997,-0.001802365
8.899998,-0.00178846
8.999998,-0.001775428
9.099998,-0.001763041
9.199999,-0.001750407
9.299999,-0.001738161
9.4,-0.001727248
9.5,-0.001714595
9.6,-0.001703357
9.700001,-0.001693025
9.800001,-0.001681281
9.900002,-0.001670821
10,-0.001660173
10.1,-0.00164953
10.2,-0.00163933
10.3,-0.001629515
10.4,-0.001619187
10.5,-0.001609699
10.6,-0.001600295
10.7,-0.001590668
10.8,-0.001581412
10.90001,-0.001572906
11.00001,-0.001563208
11.10001,-0.001554694
11.20001,-0.00154629
11.30001,-0.00153784
11.40001,-0.001529481
11.50001,-0.001521262
11.60001,-0.001513212
11.70001,-0.001505574
11.80001,-0.001497694
11.90001,-0.001489583
12.00001,-0.001482365
12.10001,-0.001474572
12.20001,-0.001467288
12.30001,-0.001460182
12.40001,-0.001452626
12.50001,-0.00144554
12.60001,-0.001438535
12.70001,-0.001431309
12.80001,-0.00142442
12.90001,-0.001417588
13.00001,-0.001411069
13.10001,-0.001404084
13.20001,-0.001398168
13.30001,-0.001391615
13.40001,-0.001385039
13.50002,-0.001379109
13.60002,-0.001372827
13.70002,-0.001366927
13.80002,-0.001360716
13.90002,-0.001354853
14.00002,-0.001348969
14.10002,-0.001342843
14.20002,-0.001337209
14.30002,-0.001331637
14.40002,-0.001325772
14.50002,-0.001320293
14.60002,-0.001315074
14.70002,-0.001309132
14.80002,-0.001303865
14.90002,-0.001299015
15.00002,-0.001293285
15.10002,-0.001288108
15.20002,-0.001283274
15.30002,-0.001277844
15.40002,-0.001272865
15.50002,-0.001267995
15.60002,-0.001262718
15.70002,-0.001257754
15.80002,-0.001253214
15.90002,-0.001248126
16.00002,-0.001243342
16.10003,-0.001239208
16.20003,-0.001234303
16.30003,-0.001229417
16.40003,-0.001225449
16.50003,-0.001220621
16.60003,-0.001216157
16.70003,-0.001211789
16.80003,-0.001207291
16.90003,-0.001202882
17.00003,-0.001198846
17.10003,-0.001194271
17.20003,-0.001189847
17.30003,-0.001185822
17.40003,-0.001181338
17.50003,-0.001177261
17.60003,-0.00117331
17.70003,-0.001168948
17.80003,-0.001164774
17.90003,-0.001160925
18.00003,-0.001156987
18.10003,-0.001152896
18.20003,-0.001149235
18.30003,-0.001145123
18.40003,-0.001141488
18.50003,-0.001137718
18.60003,-0.00113389
18.70004,-0.00113005
18.80004,-0.001126272
18.90004,-0.001122545
19.00004,-0.001118876
19.10004,-0.001115328
19.20004,-0.001111633
19.30004,-0.001108105
19.40004,-0.001104549
19.50004,-0.001100969
19.60004,-0.001097442
19.70004,-0.001094048
19.80004,-0.001090669
19.90004,-0.001087232
20.00004,-0.001084107
20.10004,-0.001080686
20.20004,-0.001077571
20.30004,-0.001074451
20.40004,-0.001071371
20.50004,-0.001068398
20.60004,-0.001065076
20.70004,-0.001061904
20.80004,-0.001059061
20.90004,-0.00105575
21.00004,-0.001052471
21.10004,-0.001049385
21.20004,-0.001046297
21.30005,-0.001043118
21.40005,-0.001040055
21.50005,-0.001037106
21.60005,-0.001033891
21.70005,-0.001030925
21.80005,-0.001027836
21.90005,-0.001024861
22.00005,-0.001022001
22.10005,-0.001018998
22.20005,-0.001016217
22.30005,-0.001013387
22.40005,-0.001010407
22.50005,-0.001007621
22.60005,-0.001004834
22.70005,-0.001002119
22.80005,-0.0009992154
22.90005,-0.0009967678
23.00005,-0.0009938804
23.10005,-0.0009910666
23.20005,-0.0009885615
23.30005,-0.0009858824
23.40005,-0.0009830731
23.50005,-0.0009805607
23.60005,-0.0009779502
23.70005,-0.00097535
23.80005,-0.0009727424
23.90005,-0.0009703071
24.00006,-0.0009676947
24.10006,-0.0009652433
24.20006,-0.0009628392
24.30006,-0.0009604057
24.40006,-0.0009579345
24.50006,-0.0009554719
24.60006,-0.0009529924
24.70006,-0.0009504601
24.80006,-0.0009480624
24.90006,-0.0009456262
25.00006,-0.0009432426
25.10006,-0.0009408525
25.20006,-0.0009385161
25.30006,-0.0009361306
25.40006,-0.0009337434
25.50006,-0.0009314814
25.60006,-0.0009292137
25.70006,-0.0009268631
25.80006,-0.0009246557
25.90006,-0.0009223682
26.00006,-0.0009199677
26.10006,-0.0009178621
26.20006,-0.0009155473
26.30006,-0.0009133228
26.40006,-0.000911284
26.50006,-0.0009090164
26.60007,-0.0009068418
26.70007,-0.00090474
26.80007,-0.00090246
26.90007,-0.0009002743
27.00007,-0.0008983635
27.10007,-0.0008961353
27.20007,-0.0008940513
27.30007,-0.0008920906
27.40007,-0.0008899735
27.50007,-0.0008878151
27.60007,-0.0008859665
27.70007,-0.0008838636
27.80007,-0.0008818173
27.90007,-0.0008800044
28.00007,-0.0008778205
28.10007,-0.0008758476
28.20007,-0.0008738813
28.30007,-0.000871816
28.40007,-0.0008698931
28.50007,-0.0008679974
28.60007,-0.0008659076
28.70007,-0.0008639554
28.80007,-0.0008622019
28.90007,-0.0008602732
29.00007,-0.0008583202
29.10007,-0.0008565638
29.20008,-0.0008545466
29.30008,-0.0008527639
29.40008,-0.0008508268
29.50008,-0.0008489602
29.60008,-0.000847187
29.70008,-0.0008453939
29.80008,-0.0008436404
29.90008,-0.0008421459
30.00008,-0.0008404169
30.10008,-0.0008386173
30.20008,-0.0008370474
30.30008,-0.0008352204
30.40008,-0.0008334368
30.50008,-0.0008319686
30.60008,-0.0008304298
30.70008,-0.0008283279
30.80008,-0.0008265706
30.90008,-0.0008248434
31.00008,-0.0008230372
31.10008,-0.0008211943
31.20008,-0.000819567
31.30008,-0.0008178257
31.40008,-0.000816011
31.50008,-0.0008143262
31.60008,-0.0008126998
31.70008,-0.0008109143
31.80009,-0.0008092851
31.90009,-0.0008076333
32.00008,-0.0008058262
32.10008,-0.0008044521
32.20008,-0.0008028672
32.30008,-0.0008010713
32.40008,-0.0007994459
32.50008,-0.0007979128
32.60007,-0.0007962073
32.70007,-0.0007944953
32.80007,-0.0007928708
32.90007,-0.0007913131
33.00007,-0.0007897056
33.10007,-0.0007880736
33.20007,-0.0007867033
33.30006,-0.0007850158
33.40006,-0.0007835006
33.50006,-0.0007819363
33.60006,-0.0007804841
33.70006,-0.0007790009
33.80006,-0.0007773793
33.90005,-0.0007759657
34.00005,-0.000774539
34.10005,-0.0007730756
34.20005,-0.000771613
34.30005,-0.0007701477
34.40005,-0.0007686344
34.50005,-0.00076712
34.60004,-0.0007657404
34.70004,-0.0007641922
34.80004,-0.0007626364
34.90004,-0.000761302
35.00004,-0.0007598113
35.10004,-0.0007583487
35.20004,-0.0007569465
35.30003,-0.0007555179
35.40003,-0.0007542541
35.50003,-0.0007528472
35.60003,-0.0007513432
35.70003,-0.0007499401
35.80003,-0.0007486132
35.90002,-0.0007471553
36.00002,-0.0007457267
36.10002,-0.0007444375
36.20002,-0.0007430033
36.30002,-0.0007416321
36.40002,-0.0007403344
36.50002,-0.0007389143
36.60001,-0.0007376382
36.70001,-0.0007363122
36.80001,-0.0007350899
36.90001,-0.0007338157
37.00001,-0.0007324078
37.10001,-0.0007309821
37.2,-0.0007297248
37.3,-0.0007283941
37.4,-0.0007270616
37.5,-0.0007256989
37.6,-0.0007245029
37.7,-0.0007231883
37.8,-0.0007218124
37.89999,-0.0007206757
37.99999,-0.0007192867
38.09999,-0.0007181151
38.19999,-0.000716873
38.29999,-0.0007155357
38.39999,-0.0007142314
38.49998,-0.0007129338
38.59998,-0.0007117114
38.69998,-0.0007104504
38.79998,-0.0007091631
38.89998,-0.0007079595
38.99998,-0.0007067409
39.09998,-0.0007054799
39.19997,-0.0007042764
39.29997,-0.0007030842
39.39997,-0.0007018279
39.49997,-0.0007007035
39.59997,-0.000699465
39.69997,-0.0006982371
39.79996,-0.0006971211
39.89996,-0.000695926
39.99996,-0.0006946792
40.09996,-0.0006935087
40.19996,-0.0006923833
40.29996,-0.0006911995
40.39996,-0.0006899791
40.49995,-0.0006888349
40.59995,-0.0006875993
40.69995,-0.0006865022
40.79995,-0.0006853259
40.89995,-0.0006842034
40.99995,-0.0006830668
41.09995,-0.0006819404
41.19994,-0.000680815
41.29994,-0.0006796388
41.39994,-0.0006785427
41.49994,-0.0006774268
41.59994,-0.0006763418
41.69994,-0.0006751684
41.79993,-0.000674206
41.89993,-0.000673139
41.99993,-0.0006719326
42.09993,-0.0006707386
42.19993,-0.0006698062
42.29993,-0.0006685772
42.39993,-0.0006675235
42.49992,-0.0006665186
42.59992,-0.0006653867
42.69992,-0.0006642707
42.79992,-0.0006633195
42.89992,-0.0006622112
42.99992,-0.0006610848
43.09991,-0.0006600706
43.19991,-0.0006590018
43.29991,-0.0006579197
43.39991,-0.0006569412
43.49991,-0.0006558714
43.59991,-0.0006547743
43.69991,-0.0006538091
43.7999,-0.0006527147
43.8999,-0.0006516553
43.9999,-0.0006507211
44.0999,-0.0006496664
44.1999,-0.0006486492
44.2999,-0.0006476557
44.39989,-0.0006465276
44.49989,-0.0006455632
44.59989,-0.0006446083
44.69989,-0.0006435809
44.79989,-0.0006425554
44.89989,-0.0006414931
44.99989,-0.0006405174
45.09988,-0.000639491
45.19988,-0.0006385181
45.29988,-0.0006373956
45.39988,-0.0006364934
45.49988,-0.0006355856
45.59988,-0.0006345413
45.69987,-0.000633576
45.79987,-0.0006325231
45.89987,-0.0006315051
45.99987,-0.0006306123
46.09987,-0.000629616
46.19987,-0.0006285725
46.29987,-0.0006276289
46.39986,-0.0006267136
46.49986,-0.0006257154
46.59986,-0.0006248046
46.69986,-0.0006238432
46.79986,-0.0006228017
46.89986,-0.0006219173
46.99986,-0.000621001
47.09985,-0.0006199906
47.19985,-0.000619093
47.29985,-0.0006181918
47.39985,-0.000617429
47.49985,-0.0006165956
47.59985,-0.0006156058
47.69984,-0.0006146905
47.79984,-0.0006137581
47.89984,-0.0006129463
47.99984,-0.0006120423
48.09984,-0.000610997
48.19984,-0.0006100619
48.29984,-0.0006091126
48.39983,-0.0006082538
48.49983,-0.0006073675
48.59983,-0.0006063947
48.69983,-0.000605598
48.79983,-0.0006047062
48.89983,-0.0006038022
48.99982,-0.0006029574
49.09982,-0.0006020514
49.19982,-0.0006011615
49.29982,-0.0006002914
49.39982,-0.0005994136
49.49982,-0.0005985218
49.59982,-0.0005976734
49.69981,-0.0005967561
49.79981,-0.0005958897
49.89981,-0.0005950733
49.99981,-0.0005941974
50.09981,-0.000593285
50.19981,-0.0005924674
50.2998,-0.0005915936
50.3998,-0.0005907432
50.4998,-0.000589889
50.5998,-0.0005890133
50.6998,-0.000588193
50.7998,-0.0005873775
50.8998,-0.0005864941
50.99979,-0.0005856201
51.09979,-0.0005848338
51.19979,-0.000583942
51.29979,-0.0005831039
51.39979,-0.0005823693
51.49979,-0.0005815199
51.59978,-0.0005806516
51.69978,-0.0005798294
51.79978,-0.0005789998
51.89978,-0.0005781758
51.99978,-0.0005774073
52.09978,-0.0005766182
52.19978,-0.0005758101
52.29977,-0.0005749927
52.39977,-0.000574163
52.49977,-0.0005733239
52.59977,-0.0005725498
52.69977,-0.0005717541
52.79977,-0.0005709734
52.89977,-0.0005701541
52.99976,-0.0005693178
53.09976,-0.0005684769
53.19976,-0.0005676981
53.29976,-0.000566956
53.39976,-0.0005661706
53.49976,-0.0005654435
53.59975,-0.0005645819
53.69975,-0.0005638012
53.79975,-0.0005630101
53.89975,-0.0005621918
53.99975,-0.000561428
54.09975,-0.0005606577
54.19975,-0.0005598233
54.29974,-0.0005590078
54.39974,-0.0005582666
54.49974,-0.0005575133
54.59974,-0.0005566995
54.69974,-0.0005560234
54.79974,-0.000555189
54.89973,-0.0005543989
54.99973,-0.0005537341
55.09973,-0.0005529873
55.19973,-0.0005522415
55.29973,-0.0005515954
55.39973,-0.0005509474
55.49973,-0.0005502515
55.59972,-0.0005495198
55.69972,-0.0005487447
55.79972,-0.0005480084
55.89972,-0.0005472954
55.99972,-0.0005465524
56.09972,-0.0005458255
56.19971,-0.0005451333
56.29971,-0.0005443111
56.39971,-0.0005436321
56.49971,-0.0005429098
56.59971,-0.00054213
56.69971,-0.0005413729
56.79971,-0.0005406609
56.8997,-0.0005399226
56.9997,-0.0005392286
57.0997,-0.0005385826
57.1997,-0.0005377915
57.2997,-0.000537024
57.3997,-0.0005363337
57.49969,-0.0005357912
57.59969,-0.0005349239
57.69969,-0.0005341733
57.79969,-0.000533419
57.89969,-0.0005327382
57.99969,-0.000532111
58.09969,-0.0005313971
58.19968,-0.0005305881
58.29968,-0.0005298706
58.39968,-0.0005294034
58.49968,-0.0005286746
58.59968,-0.0005278497
58.69968,-0.0005271321
58.79967,-0.00052647
58.89967,-0.0005257467
58.99967,-0.0005250216
59.09967,-0.000524239
59.19967,-0.0005235676
59.29967,-0.000523011
59.39967,-0.000522364
59.49966,-0.0005215899
59.59966,-0.0005208931
59.69966,-0.0005202951
59.79966,-0.0005195219
59.89966,-0.0005188062
59.99966,-0.00051813
60.09966,-0.000517436
60.19965,-0.00051674
60.29965,-0.0005161486
60.39965,-0.0005154611
60.49965,-0.0005147935
60.59965,-0.0005141342
60.69965,-0.000513411
60.79964,-0.0005127536
60.89964,-0.0005121313
60.99964,-0.0005113853
61.09964,-0.0005107412
61.19964,-0.0005100425
61.29964,-0.0005094388
61.39964,-0.0005088897
61.49963,-0.0005081637
61.59963,-0.0005074056
61.69963,-0.0005067831
61.79963,-0.000506188
61.89963,-0.0005054995
61.99963,-0.0005048516
62.09962,-0.0005041821
62.19962,-0.0005035153
62.29962,-0.0005029107
62.39962,-0.0005023117
62.49962,-0.0005016271
62.59962,-0.0005010602
62.69962,-0.0005004565
62.79961,-0.0004997597
62.89961,-0.0004991372
62.99961,-0.0004985204
63.09961,-0.0004978866
63.19961,-0.0004972339
63.29961,-0.0004965587
63.3996,-0.0004960276
63.4996,-0.0004954136
63.5996,-0.0004947892
63.6996,-0.000494259
63.7996,-0.0004937288
63.8996,-0.0004930592
63.9996,-0.0004924019
64.09959,-0.0004919263
64.19959,-0.0004912426
64.29959,-0.0004905232
64.39959,-0.0004898847
64.49959,-0.000489331
64.59959,-0.0004886313
64.69958,-0.0004879645
64.79958,-0.0004874362
64.89958,-0.0004868231
64.99958,-0.0004862346
65.09958,-0.0004856055
65.19958,-0.0004850517
65.29958,-0.0004843266
65.39957,-0.0004837333
65.49957,-0.0004831551
65.59957,-0.0004825627
65.69957,-0.0004819675
65.79957,-0.0004814298
65.89957,-0.0004807546
65.99957,-0.0004800973
66.09956,-0.0004795511
66.19956,-0.0004789841
66.29956,-0.000478437
66.39956,-0.0004778597
66.49956,-0.000477208
66.59956,-0.0004766298
66.69955,-0.0004760139
66.79955,-0.0004754169
66.89955,-0.0004748292
66.99955,-0.0004742387
67.09955,-0.0004736737
67.19955,-0.0004732094
67.29955,-0.0004725832
67.39954,-0.0004719155
67.49954,-0.0004713298
67.59954,-0.0004708165
67.69954,-0.0004701319
67.79954,-0.0004696026
67.89954,-0.0004690074
67.99953,-0.0004684142
68.09953,-0.0004678595
68.19953,-0.000467318
68.29953,-0.0004667021
68.39953,-0.0004662472
68.49953,-0.000465653
68.59953,-0.0004649721
68.69952,-0.0004644457
68.79952,-0.0004638901
68.89952,-0.0004633147
68.99952,-0.0004627544
69.09952,-0.0004622279
69.19952,-0.0004616337
69.29951,-0.0004611223
69.39951,-0.0004606411
69.49951,-0.0004599621
69.59951,-0.0004594084
69.69951,-0.0004589121
69.79951,-0.0004582896
69.89951,-0.0004577773
69.9995,-0.0004572725
70.0995,-0.0004566435
70.1995,-0.0004561368
70.2995,-0.0004556075
70.3995,-0.0004549973
70.4995,-0.0004544652
70.59949,-0.0004539858
70.69949,-0.0004534208
70.79949,-0.0004529339
70.89949,-0.0004523378
70.99949,-0.000451753
71.09949,-0.0004512351
71.19949,-0.0004507002
71.29948,-0.0004501747
71.39948,-0.0004496454
71.49948,-0.0004490512
71.59948,-0.0004486406
71.69948,-0.0004481518
71.79948,-0.0004476866
71.89948,-0.0004471207
71.99947,-0.0004465452
72.09947,-0.0004461026
72.19947,-0.0004455319
72.29947,-0.0004448991
72.39947,-0.0004443576
72.49947,-0.0004438849
72.59946,-0.0004433226
72.69946,-0.0004427916
72.79946,-0.0004423348
72.89946,-0.0004419374
72.99946,-0.0004414392
73.09946,-0.0004408949
73.19946,-0.0004404306
73.29945,-0.0004398938
73.39945,-0.0004393758
73.49945,-0.000438889
73.59945,-0.0004383475
73.69945,-0.0004378502
73.79945,-0.0004373624
73.89944,-0.0004368501
73.99944,-0.0004363096
74.09944,-0.0004358142
74.19944,-0.0004352699
74.29944,-0.0004347303
74.39944,-0.000434282
74.49944,-0.0004337669
74.59943,-0.0004332753
74.69943,-0.0004327706
74.79943,-0.000432295
74.89943,-0.0004317742
74.99943,-0.0004312911
75.09943,-0.0004308231
75.19942,-0.0004302957
75.29942,-0.0004298286
75.39942,-0.0004292748
75.49942,-0.0004288049
75.59942,-0.0004283256
75.69942,-0.000427785
75.79942,-0.0004273763
75.89941,-0.0004268621
75.99941,-0.0004263743
76.09941,-0.0004259251
76.19941,-0.0004253921
76.29941,-0.0004249043
76.39941,-0.000424457
76.4994,-0.0004239315
76.5994,-0.0004234493
76.6994,-0.000423017
76.7994,-0.0004225085
76.8994,-0.0004220207
76.9994,-0.0004215875
77.0994,-0.0004210338
77.19939,-0.0004205761
77.29939,-0.0004201306
77.39939,-0.0004196504
77.49939,-0.0004192501
77.59939,-0.0004187463
77.69939,-0.00041825
77.79939,-0.0004177895
77.89938,-0.0004173525
77.99938,-0.0004168657
78.09938,-0.0004163976
78.19938,-0.00041594
78.29938,-0.000415406
78.39938,-0.0004149549
78.49937,-0.0004145226
78.59937,-0.0004140141
78.69937,-0.0004135715
78.79937,-0.0004130978
78.89937,-0.0004126317
78.99937,-0.0004121429
79.09937,-0.0004117304
79.19936,-0.0004112605
79.29936,-0.000410767
79.39936,-0.0004103658
79.49936,-0.0004098516
79.59936,-0.0004094401
79.69936,-0.0004089692
79.79935,-0.0004084909
79.89935,-0.0004081132
79.99935,-0.0004077224
80.09935,-0.0004072723
80.19935,-0.000406808
80.29935,-0.0004063305
80.39935,-0.0004057664
80.49934,-0.0004053671
80.59934,-0.000404917
80.69934,-0.0004045083
80.79934,-0.000404092
80.89934,-0.0004036005
80.99934,-0.0004030589
81.09933,-0.000402654
81.19933,-0.0004021784
81.29933,-0.0004016897
81.39933,-0.0004012584
81.49933,-0.0004008242
81.59933,-0.000400359
81.69933,-0.0003999625
81.79932,-0.0003995133
81.89932,-0.0003990688
81.99932,-0.0003987834
82.09932,-0.0003983211
82.19932,-0.0003977881
82.29932,-0.0003973181
82.39931,-0.0003969056
82.49931,-0.000396431
82.59931,-0.0003960365
82.69931,-0.0003956776
82.79931,-0.0003952068
82.89931,-0.000394735
82.99931,-0.000394299
83.0993,-0.000393877
83.1993,-0.0003934316
83.2993,-0.0003929833
83.3993,-0.0003925426
83.4993,-0.0003921395
83.5993,-0.0003916725
83.6993,-0.0003912176
83.79929,-0.0003908296
83.89929,-0.0003904576
83.99929,-0.0003899585
84.09929,-0.0003895545
84.19929,-0.0003891298
84.29929,-0.00038869
84.39928,-0.0003882474
84.49928,-0.0003878773
84.59928,-0.0003874516
84.69928,-0.0003869986
84.79928,-0.0003865852
84.89928,-0.0003861756
84.99928,-0.0003857301
85.09927,-0.0003853723
85.19927,-0.0003849711
85.29927,-0.0003845586
85.39927,-0.000384245
85.49927,-0.0003838278
85.59927,-0.0003833193
85.69926,-0.0003829435
85.79926,-0.000382596
85.89926,-0.0003821054
85.99926,-0.000381725
86.09926,-0.0003812805
86.19926,-0.0003808086
86.29926,-0.000380414
86.39925,-0.0003800656
86.49925,-0.0003796183
86.59925,-0.0003792595
86.69925,-0.0003788593
86.79925,-0.0003784477
86.89925,-0.0003780268
86.99924,-0.0003777019
87.09924,-0.0003772565
87.19924,-0.0003768628
87.29924,-0.0003764324
87.39924,-0.0003759371
87.49924,-0.0003755416
87.59924,-0.0003751837
87.69923,-0.0003747448
87.79923,-0.0003743474
87.89923,-0.0003739839
87.99923,-0.0003735526
88.09923,-0.0003731806
88.19923,-0.0003728256
88.29922,-0.0003723792
88.39922,-0.0003720166
88.49922,-0.0003716823
88.59922,-0.000371299
88.69922,-0.0003710504
88.79922,-0.0003706116
88.89922,-0.0003701322
88.99921,-0.000369781
89.09921,-0.0003694316
89.19921,-0.0003690003
89.29921,-0.0003685784
89.39921,-0.0003682629
89.49921,-0.0003678608
89.59921,-0.0003674756
89.6992,-0.0003671187
89.7992,-0.0003666544
89.8992,-0.0003662382
89.9992,-0.000365901
90.0992,-0.0003655206
90.1992,-0.0003651185
90.29919,-0.0003647578
90.39919,-0.0003643594
90.49919,-0.0003639696
90.59919,-0.0003636126
90.69919,-0.0003631757
90.79919,-0.0003628141
90.89919,-0.0003624647
90.99918,-0.0003620879
91.09918,-0.0003616585
91.19918,-0.0003612818
91.29918,-0.0003609758
91.39918,-0.0003606594
91.49918,-0.0003601857
91.59917,-0.0003597967
91.69917,-0.0003594201
91.79917,-0.0003590706
91.89917,-0.0003586601
91.99917,-0.0003582485
92.09917,-0.0003579274
92.19917,-0.0003575686
92.29916,-0.0003571787
92.39916,-0.0003568454
92.49916,-0.000356511
92.59916,-0.0003560609
92.69916,-0.0003557332
92.79916,-0.0003553951
92.89915,-0.0003549854
92.99915,-0.0003546125
93.09915,-0.0003543159
93.19915,-0.0003539109
93.29915,-0.0003535144
93.39915,-0.000353134
93.49915,-0.0003528147
93.59914,-0.0003524512
93.69914,-0.0003520783
93.79914,-0.0003516545
93.89914,-0.0003513136
93.99914,-0.0003509793
94.09914,-0.0003505734
94.19913,-0.0003502203
94.29913,-0.000349902
94.39913,-0.0003494961
94.49913,-0.0003491523
94.59913,-0.0003487832
94.69913,-0.0003484197
94.79913,-0.0003481918
94.89912,-0.0003478396
94.99912,-0.0003474337
95.09912,-0.0003470815
95.19912,-0.0003467387
95.29912,-0.0003462933
95.39912,-0.0003459674
95.49911,-0.0003456425
95.59911,-0.0003452319
95.69911,-0.0003449767
95.79911,-0.0003446537
95.89911,-0.0003442318
95.99911,-0.0003438598
96.09911,-0.0003435999
96.1991,-0.0003431818
96.2991,-0.0003428606
96.3991,-0.0003425527
96.4991,-0.0003421298
96.5991,-0.0003418087
96.6991,-0.000341514
96.7991,-0.0003411608
96.89909,-0.0003407756
96.99909,-0.0003404498
97.09909,-0.0003400599
97.19909,-0.0003396993
97.29909,-0.00033938
97.39909,-0.0003389807
97.49908,-0.0003386812
97.59908,-0.0003383535
97.69908,-0.0003379646
97.79908,-0.0003376472
97.89908,-0.0003373525
97.99908,-0.0003369362
98.09908,-0.0003366132
98.19907,-0.0003362968
98.29907,-0.0003359078
98.39907,-0.0003355876
98.49907,-0.000335275
98.59907,-0.0003348917
98.69907,-0.000334548
98.79906,-0.0003342212
98.89906,-0.0003338727
98.99906,-0.0003335742
99.09906,-0.0003332804
99.19906,-0.0003329188
99.29906,-0.00033256
99.39906,-0.0003322379
99.49905,-0.0003318895
99.59905,-0.0003315627
99.69905,-0.0003313075
99.79905,-0.000330911
99.89905,-0.0003305852
99.99905,-0.0003302678
100.099,-0.0003299325
100.199,-0.000329569
100.299,-0.000329296
100.399,-0.000328924
100.499,-0.0003285708
100.599,-0.0003282808
100.699,-0.000327921
100.799,-0.0003275547
100.899,-0.0003272448
100.999,-0.0003269237
101.099,-0.0003266026
101.199,-0.0003262739
101.299,-0.0003259472
101.399,-0.0003256382
101.499,-0.000325351
101.599,-0.0003250082
101.699,-0.0003246626
101.799,-0.0003243886
101.899,-0.0003240204
101.999,-0.00032367
102.099,-0.0003233131
102.199,-0.0003230165
102.299,-0.0003227292
102.399,-0.0003224298
102.499,-0.0003220757
102.599,-0.0003217687
102.699,-0.0003214767
102.799,-0.0003211538
102.899,-0.000320842
102.999,-0.0003206358
103.099,-0.0003203815
103.199,-0.0003199718
103.299,-0.0003196196
103.399,-0.0003193192
103.499,-0.0003189595
103.599,-0.0003186562
103.699,-0.0003183474
103.799,-0.0003180517
103.899,-0.0003177343
103.999,-0.0003174602
104.099,-0.0003171438
104.199,-0.0003168858
104.299,-0.0003165637
104.399,-0.0003161823
104.499,-0.0003159158
104.599,-0.0003156003
104.699,-0.0003152453
104.799,-0.0003149685
104.899,-0.0003146681
104.999,-0.0003143695
105.099,-0.0003140144
105.199,-0.0003137282
105.299,-0.0003134108
105.399,-0.0003130963
105.499,-0.0003127864
105.599,-0.0003124597
105.699,-0.0003121659
105.799,-0.0003118532
105.899,-0.0003115848
105.999,-0.0003112947
106.099,-0.0003109953
106.199,-0.0003106732
106.299,-0.0003103455
106.3989,-0.0003100545
106.4989,-0.0003097663
106.5989,-0.0003094697
106.6989,-0.0003091485
106.7989,-0.000308867
106.8989,-0.0003085854
106.9989,-0.0003082812
107.0989,-0.0003079836
107.1989,-0.0003077068
107.2989,-0.0003073913
107.3989,-0.0003070701
107.4989,-0.0003067904
107.5989,-0.0003065041
107.6989,-0.0003061953
107.7989,-0.0003058779
107.8989,-0.0003055963
107.9989,-0.0003052837
108.0989,-0.0003050228
108.1989,-0.0003047139
108.2989,-0.0003044305
108.3989,-0.0003041828
108.4989,-0.0003038852
108.5989,-0.0003036083
108.6989,-0.000303307
108.7989,-0.0003030339
108.8989,-0.0003027231
108.9989,-0.0003024538
109.0989,-0.0003021731
109.1989,-0.0003019264
109.2989,-0.0003016298
109.3989,-0.0003013133
109.4989,-0.0003010167
109.5989,-0.0003007634
109.6989,-0.0003004573
109.7989,-0.0003001343
109.8989,-0.000299832
109.9989,-0.0002995372
110.0989,-0.0002992726
110.1989,-0.0002990259
110.2989,-0.0002987217
110.3989,-0.0002984118
110.4989,-0.0002982273
110.5989,-0.000297893
110.6989,-0.000297554
110.7989,-0.0002973138
110.8989,-0.0002970379
110.9989,-0.0002966856
111.0989,-0.0002964201
111.1989,-0.0002961611
111.2989,-0.0002959012
111.3989,-0.0002956507
111.4989,-0.0002953399
111.5989,-0.0002951158
111.6989,-0.0002949246
111.7989,-0.0002946186
111.8989,-0.0002942993
111.9989,-0.0002940045
112.0989,-0.0002937776
112.1989,-0.00029348
112.2989,-0.0002931702
112.3989,-0.0002928509
112.4989,-0.000292558
112.5989,-0.0002923339
112.6989,-0.0002920806
112.7989,-0.0002917972
112.8988,-0.000291525
112.9988,-0.0002912472
113.0988,-0.000290991
113.1988,-0.0002907217
113.2988,-0.0002904269
113.3988,-0.0002901397
113.4988,-0.0002898788
113.5988,-0.0002896246
113.6988,-0.0002893128
113.7988,-0.0002890652
113.8988,-0.0002887902
113.9988,-0.0002884851
114.0988,-0.0002882741
114.1988,-0.0002879982
114.2988,-0.0002877044
114.3988,-0.0002874153
114.4988,-0.0002871497
114.5988,-0.0002868766
114.6988,-0.0002866666
114.7988,-0.0002863492
114.8988,-0.0002860563
114.9988,-0.0002857861
115.0988,-0.0002855488
115.1988,-0.0002852691
115.2988,-0.0002850572
115.3988,-0.0002847935
115.4988,-0.0002845722
115.5988,-0.0002843914
115.6988,-0.0002841785
115.7988,-0.0002839007
115.8988,-0.0002836738
115.9988,-0.0002834016
116.0988,-0.0002830993
116.1988,-0.000282861
116.2988,-0.0002826228
116.3988,-0.000282377
116.4988,-0.0002821293
116.5988,-0.0002818063
116.6988,-0.0002815342
116.7988,-0.0002813072
116.8988,-0.0002810501
116.9988,-0.0002807412
117.0988,-0.0002805105
117.1988,-0.0002802412
117.2988,-0.0002799803
117.3988,-0.0002797646
117.4988,-0.0002795245
117.5988,-0.0002792288
117.6988,-0.000278999
117.7988,-0.0002787325
117.8988,-0.0002784575
117.9988,-0.0002782079
118.0988,-0.0002779245
118.1988,-0.000277642
118.2988,-0.0002774084
118.3988,-0.0002771777
118.4988,-0.00027693
118.5988,-0.0002766353
118.6988,-0.0002764008
118.7988,-0.0002761173
118.8988,-0.0002759045
118.9988,-0.0002756464
119.0988,-0.0002753564
119.1988,-0.0002751257
119.2988,-0.000274846
119.3988,-0.0002745927
119.4987,-0.0002743469
119.5987,-0.0002740964
119.6987,-0.000273843
119.7987,-0.0002735869
119.8987,-0.0002733204
119.9987,-0.0002730689
120.0987,-0.000272841
120.1987,-0.0002725887
120.2987,-0.0002724144
120.3987,-0.0002721752
120.4987,-0.0002718456
120.5987,-0.0002716177
120.6987,-0.0002713889
120.7987,-0.0002711318
120.8987,-0.0002708606
120.9987,-0.0002705978
121.0987,-0.0002703765
121.1987,-0.0002701251
121.2987,-0.0002698868
121.3987,-0.0002696128
121.4987,-0.0002693886
121.5987,-0.0002691617
121.6987,-0.000268881
121.7987,-0.0002686626
121.8987,-0.0002684064
121.9987,-0.0002681465
122.0987,-0.0002679346
122.1987,-0.0002676747
122.2987,-0.0002674119
122.3987,-0.0002672123
122.4987,-0.0002669863
122.5987,-0.0002667725
122.6987,-0.0002665154
122.7987,-0.0002662753
122.8987,-0.0002659956
122.9987,-0.0002657526
123.0987,-0.0002655473
123.1987,-0.0002652761
123.2987,-0.0002650388
123.3987,-0.000264794
123.4987,-0.0002645613
123.5987,-0.0002643334
123.6987,-0.0002640848
123.7987,-0.0002638484
123.8987,-0.0002636507
123.9987,-0.0002634501
124.0987,-0.0002632194
124.1987,-0.0002629623
124.2987,-0.0002627438
124.3987,-0.0002625121
124.4987,-0.0002622164
124.5987,-0.0002619292
124.6987,-0.0002617437
124.7987,-0.0002614677
124.8987,-0.0002612295
124.9987,-0.0002610035
125.0987,-0.0002607859
125.1987,-0.000260558
125.2987,-0.000260364
125.3987,-0.0002601201
125.4987,-0.0002598969
125.5987,-0.0002596596
125.6987,-0.0002594402
125.7987,-0.0002591897
125.8987,-0.0002589514
125.9986,-0.000258716
126.0986,-0.0002584824
126.1986,-0.000258328
126.2986,-0.0002580605
126.3986,-0.0002578364
126.4986,-0.0002577404
126.5986,-0.0002574249
126.6986,-0.0002571612
126.7986,-0.000256954
126.8986,-0.0002567741
126.9986,-0.0002564624
127.0986,-0.0002561809
127.1986,-0.0002559728
127.2986,-0.0002557637
127.3986,-0.0002555414
127.4986,-0.0002553013
127.5986,-0.0002551026
127.6986,-0.00025495
127.7986,-0.0002546826
127.8986,-0.0002544547
127.9986,-0.0002542277
128.0986,-0.0002540582
128.1986,-0.0002538068
128.2986,-0.0002535516
128.3986,-0.0002533519
128.4986,-0.0002531202
128.5986,-0.000252898
128.6987,-0.0002526786
128.7987,-0.0002524563
128.8987,-0.0002522482
128.9987,-0.0002520212
129.0987,-0.0002517868
129.1987,-0.0002515974
129.2987,-0.0002513818
129.3987,-0.0002511087
129.4987,-0.0002509241
129.5987,-0.0002507216
129.6987,-0.0002504674
129.7987,-0.000250247
129.8987,-0.0002500314
129.9987,-0.0002497874
130.0987,-0.0002495935
130.1987,-0.0002493599
130.2988,-0.0002490962
130.3988,-0.0002489192
130.4988,-0.0002486828
130.5988,-0.000248438
130.6988,-0.0002482336
130.7988,-0.0002479991
130.8988,-0.0002477458
130.9988,-0.0002475593
131.0988,-0.0002473559
131.1988,-0.0002471195
131.2988,-0.0002468982
131.3988,-0.000246659
131.4988,-0.000246416
131.5988,-0.0002462013
131.6988,-0.0002459809
131.7988,-0.0002457371
131.8988,-0.0002455431
131.9989,-0.0002453001
132.0989,-0.0002450891
132.1989,-0.0002448669
132.2989,-0.0002446776
132.3989,-0.0002444733
132.4989,-0.0002443273
132.5989,-0.0002440805
132.6989,-0.0002438319
132.7989,-0.000243702
132.8989,-0.0002434778
132.9989,-0.0002432349
133.0989,-0.000243007
133.1989,-0.0002428356
133.2989,-0.0002425465
133.3989,-0.000242376
133.4989,-0.0002421594
133.599,-0.0002419372
133.699,-0.0002417394
133.799,-0.0002415454
133.899,-0.0002413571
133.999,-0.000241164
134.099,-0.000240937
134.199,-0.0002407591
134.299,-0.0002405302
134.399,-0.0002403353
134.499,-0.000240145
134.599,-0.0002398851
134.699,-0.0002396883
134.799,-0.0002394858
134.899,-0.0002392787
134.999,-0.0002390404
135.099,-0.000238821
135.1991,-0.0002386844
135.2991,-0.0002385432
135.3991,-0.0002383011
135.4991,-0.0002380478
135.5991,-0.0002379028
135.6991,-0.0002377022
135.7991,-0.0002374432
135.8991,-0.0002372709
135.9991,-0.0002371372
136.0991,-0.0002368772
136.1991,-0.0002366776
136.2991,-0.0002364629
136.3991,-0.0002362369
136.4991,-0.0002360024
136.5991,-0.0002357848
136.6991,-0.0002355984
136.7991,-0.0002353837
136.8992,-0.0002351963
136.9992,-0.0002349844
137.0992,-0.0002348073
137.1992,-0.0002346011
137.2992,-0.0002343713
137.3992,-0.0002341735
137.4992,-0.0002339889
137.5992,-0.0002337959
137.6992,-0.0002335962
137.7992,-0.0002333919
137.8992,-0.0002331857
137.9992,-0.0002329634
138.0992,-0.0002327873
138.1992,-0.0002325811
138.2992,-0.0002323438
138.3992,-0.0002321432
138.4993,-0.0002319699
138.5993,-0.0002317674
138.6993,-0.0002315612
138.7993,-0.000231354
138.8993,-0.0002311383
138.9993,-0.0002309698
139.0993,-0.0002307701
139.1993,-0.0002305705
139.2993,-0.000230384
139.3993,-0.0002301768
139.4993,-0.0002299762
139.5993,-0.0002297681
139.6993,-0.0002295581
139.7993,-0.0002293481
139.8993,-0.0002292031
139.9993,-0.0002290157
140.0993,-0.0002287972
140.1994,-0.0002285985
140.2994,-0.0002284158
140.3994,-0.0002282227
140.4994,-0.0002280222
140.5994,-0.0002278074
140.6994,-0.0002276153
140.7994,-0.0002274411
140.8994,-0.0002272518
140.9994,-0.0002270343
141.0994,-0.0002268619
141.1994,-0.0002266529
141.2994,-0.0002264589
141.3994,-0.0002262828
141.4994,-0.0002260878
141.5994,-0.0002259032
141.6994,-0.0002257093
141.7995,-0.000225535
141.8995,-0.0002253467
141.9995,-0.0002251762
142.0995,-0.0002250095
142.1995,-0.0002247883
142.2995,-0.0002245848
142.3995,-0.0002243861
142.4995,-0.0002242006
142.5995,-0.0002239765
142.6995,-0.0002237909
142.7995,-0.0002236073
142.8995,-0.0002234387
142.9995,-0.0002232579
143.0995,-0.0002230762
143.1995,-0.0002228643
143.2995,-0.0002227287
143.3996,-0.0002225083
143.4996,-0.0002222832
143.5996,-0.0002221307
143.6996,-0.0002219951
143.7996,-0.0002218095
143.8996,-0.000221576
143.9996,-0.0002214084
144.0996,-0.0002211908
144.1996,-0.0002210213
144.2996,-0.0002208104
144.3996,-0.0002206107
144.4996,-0.0002204497
144.5996,-0.0002202726
144.6996,-0.000220089
144.7996,-0.0002199006
144.8996,-0.0002197274
144.9996,-0.0002195296
145.0997,-0.0002193507
145.1997,-0.0002191831
145.2997,-0.0002189571
145.3997,-0.0002187866
145.4997,-0.0002186039
145.5997,-0.0002184287
145.6997,-0.0002182611
145.7997,-0.0002180793
145.8997,-0.0002178722
145.9997,-0.0002176772
146.0997,-0.0002175303
146.1997,-0.0002173373
146.2997,-0.0002171857
146.3997,-0.0002170086
146.4997,-0.0002168052
146.5997,-0.0002166074
146.6998,-0.0002164417
146.7998,-0.0002162288
146.8998,-0.0002160518
146.9998,-0.0002159153
147.0998,-0.0002157561
147.1998,-0.0002155404
147.2998,-0.0002153596
147.3998,-0.0002152174
147.4998,-0.0002150291
147.5998,-0.0002148784
147.6998,-0.000214658
147.7998,-0.000214464
147.8998,-0.0002143115
147.9998,-0.0002141467
148.0998,-0.0002139451
148.1998,-0.0002137841
148.2999,-0.0002136334
148.3999,-0.0002134084
148.4999,-0.0002132455
148.5999,-0.0002130562
148.6999,-0.0002128895
148.7999,-0.0002127218
148.8999,-0.000212526
148.9999,-0.0002123357
149.0999,-0.0002121747
149.1999,-0.0002120155
149.2999,-0.0002118197
149.3999,-0.0002116577
149.4999,-0.0002114787
149.5999,-0.0002112885
149.6999,-0.0002111237
149.7999,-0.0002109476
149.8999,-0.0002107565
150,-0.0002106029
150.1,-0.0002103948
150.2,-0.0002102112
150.3,-0.0002100803
150.4,-0.0002098985
150.5,-0.0002097036
150.6,-0.0002095435
150.7,-0.000209357
150.8,-0.00020918
150.9,-0.0002090321
151,-0.0002088636
151.1,-0.0002086583
151.2,-0.0002085085
151.3,-0.0002083513
151.4,-0.0002081478
151.5,-0.0002079868
151.6001,-0.0002077909
151.7001,-0.0002076327
151.8001,-0.0002074952
151.9001,-0.0002073069
152.0001,-0.0002071346
152.1001,-0.0002069754
152.2001,-0.0002068012
152.3001,-0.0002066458
152.4001,-0.0002064895
152.5001,-0.000206319
152.6001,-0.0002061938
152.7001,-0.0002060431
152.8001,-0.0002058331
152.9001,-0.0002056852
153.0001,-0.0002055703
153.1001,-0.0002053886
153.2001,-0.0002051531
153.3002,-0.0002049959
153.4002,-0.0002047915
153.5002,-0.0002045749
153.6002,-0.0002044148
153.7002,-0.0002042547
153.8002,-0.0002040946
153.9002,-0.0002039505
154.0002,-0.000203781
154.1002,-0.0002036238
154.2002,-0.0002035164
154.3002,-0.0002033413
154.4002,-0.0002031736
154.5002,-0.0002030107
154.6002,-0.0002028393
154.7002,-0.0002026604
154.8002,-0.0002025455
154.9003,-0.0002023656
155.0003,-0.0002022262
155.1003,-0.0002020831
155.2003,-0.0002018561
155.3003,-0.00020168
155.4003,-0.0002015265
155.5003,-0.0002013768
155.6003,-0.0002012035
155.7003,-0.0002010425
155.8003,-0.0002008946
155.9003,-0.000200743
156.0003,-0.0002006469
156.1003,-0.0002004577
156.2003,-0.0002003004
156.3003,-0.0002001356
156.4003,-0.0001999312
156.5004,-0.0001997523
156.6004,-0.0001996355
156.7004,-0.0001994839
156.8004,-0.0001992767
156.9004,-0.0001991232
157.0004,-0.0001989556
157.1004,-0.0001988002
157.2004,-0.0001986844
157.3004,-0.0001984951
157.4004,-0.0001983312
157.5004,-0.0001982182
157.6004,-0.0001980393
157.7004,-0.0001978397
157.8004,-0.000197721
157.9004,-0.0001975666
158.0004,-0.0001973971
158.1004,-0.0001972379
158.2005,-0.0001970721
158.3005,-0.0001969808
158.4005,-0.0001968377
158.5005,-0.0001966926
158.6005,-0.0001965015
158.7005,-0.0001962745
158.8005,-0.0001961587
158.9005,-0.0001960127
159.0005,-0.0001958432
159.1005,-0.0001956567
159.2005,-0.0001954834
159.3005,-0.0001953394
159.4005,-0.0001951877
159.5005,-0.0001950182
159.6005,-0.0001948676
159.7005,-0.0001947009
159.8006,-0.0001945671
159.9006,-0.0001944193
160.0006,-0.0001942394
160.1006,-0.000194084
160.2006,-0.0001939447
160.3006,-0.0001937902
160.4006,-0.0001936659
160.5006,-0.0001935341
160.6006,-0.0001933024
160.7006,-0.0001931696
160.8006,-0.0001931809
160.9006,-0.0001929521
161.0006,-0.0001927439
161.1006,-0.0001925942
161.2006,-0.0001924859
161.3006,-0.0001922712
161.4007,-0.0001920998
161.5007,-0.0001919972
161.6007,-0.0001918107
161.7007,-0.0001916487
161.8007,-0.0001914783
161.9007,-0.0001913285
162.0007,-0.0001911694
162.1007,-0.0001910253
162.2007,-0.0001909
162.3007,-0.000190771
162.4007,-0.0001905911
162.5007,-0.0001904489
162.6007,-0.0001902841
162.7007,-0.0001901457
162.8007,-0.0001899649
162.9007,-0.0001898585
163.0007,-0.0001896843
163.1008,-0.0001895345
163.2008,-0.0001894959
163.3008,-0.0001893104
163.4008,-0.0001890966
163.5008,-0.0001889441
163.6008,-0.0001888094
163.7008,-0.0001886267
163.8008,-0.0001884798
163.9008,-0.0001883338
164.0008,-0.0001882029
164.1008,-0.0001881078
164.2008,-0.0001879703
164.3008,-0.0001877754
164.4008,-0.0001876134
164.5008,-0.0001874721
164.6008,-0.0001873262
164.7009,-0.0001872094
164.8009,-0.0001870587
164.9009,-0.0001868901
165.0009,-0.0001867564
165.1009,-0.0001866434
165.2009,-0.0001864767
165.3009,-0.0001863599
165.4009,-0.0001862272
165.5009,-0.0001860501
165.6009,-0.0001859032
165.7009,-0.000185712
165.8009,-0.000185567
165.9009,-0.0001854794
166.0009,-0.0001853269
166.1009,-0.0001851573
166.2009,-0.0001850575
166.3009,-0.0001849276
166.401,-0.0001847656
166.501,-0.0001846441
166.601,-0.0001844671
166.701,-0.0001842919
166.801,-0.000184178
166.901,-0.0001840395
167.001,-0.0001838813
167.101,-0.0001837184
167.201,-0.0001835621
167.301,-0.000183418
167.401,-0.0001833097
167.501,-0.0001831458
167.601,-0.0001829895
167.701,-0.0001828614
167.801,-0.0001827531
167.901,-0.0001825751
168.0011,-0.0001824452
168.1011,-0.0001823039
168.2011,-0.000182157
168.3011,-0.0001820506
168.4011,-0.0001818792
168.5011,-0.0001817069
168.6011,-0.0001815986
168.7011,-0.0001814545
168.8011,-0.0001812981
168.9011,-0.0001811635
169.0011,-0.0001809977
169.1011,-0.0001808367
169.2011,-0.0001807133
169.3011,-0.0001805711
169.4011,-0.0001804176
169.5011,-0.0001802905
169.6012,-0.0001801125
169.7012,-0.000179976
169.8012,-0.0001798827
169.9012,-0.0001797462
170.0012,-0.0001796068
170.1012,-0.0001794872
170.2012,-0.0001793233
170.3012,-0.0001791811
170.4012,-0.0001790634
170.5012,-0.0001789033
170.6012,-0.0001787517
170.7012,-0.0001786349
170.8012,-0.0001784758
170.9012,-0.0001783326
171.0012,-0.000178214
171.1012,-0.0001780595
171.2012,-0.0001779183
171.3013,-0.000177793
171.4013,-0.0001776358
171.5013,-0.0001774907
171.6013,-0.0001773645
171.7013,-0.0001772035
171.8013,-0.0001770886
171.9013,-0.0001769624
172.0013,-0.0001768174
172.1013,-0.0001766827
172.2013,-0.0001765933
172.3013,-0.0001764435
172.4013,-0.0001762834
172.5013,-0.0001761845
172.6013,-0.0001760235
172.7013,-0.0001758455
172.8013,-0.0001757504
172.9014,-0.0001755913
173.0014,-0.0001754528
173.1014,-0.0001753342
173.2014,-0.0001751797
173.3014,-0.000175014
173.4014,-0.0001749066
173.5014,-0.0001747993
173.6014,-0.0001746175
173.7014,-0.0001745459
173.8014,-0.0001744367
173.9014,-0.0001742804
174.0014,-0.0001741824
174.1014,-0.0001740129
174.2014,-0.0001738491
174.3014,-0.0001737445
174.4014,-0.0001736475
174.5014,-0.0001735025
174.6015,-0.0001733556
174.7015,-0.0001732388
174.8015,-0.0001730957
174.9015,-0.0001729977
175.0015,-0.000172816
175.1015,-0.0001726512
175.2015,-0.000172606
175.3015,-0.0001724817
175.4015,-0.0001723103
175.5015,-0.0001721784
175.6015,-0.0001720353
175.7015,-0.0001718987
175.8015,-0.000171829
175.9015,-0.0001716652
176.0015,-0.0001714928
176.1015,-0.0001713742
176.2016,-0.0001712875
176.3016,-0.0001711227
176.4016,-0.0001710041
176.5016,-0.0001708873
176.6016,-0.0001707564
176.7016,-0.0001705973
176.8016,-0.0001704532
176.9016,-0.0001703157
177.0016,-0.0001701876
177.1016,-0.0001700586
177.2016,-0.000169922
177.3016,-0.0001698015
177.4016,-0.0001696828
177.5016,-0.0001695745
177.6016,-0.0001694474
177.7016,-0.0001693306
177.8017,-0.0001691846
177.9017,-0.0001690575
178.0017,-0.0001689389
178.1017,-0.000168823
178.2017,-0.0001686921
178.3017,-0.0001685528
178.4017,-0.0001683927
178.5017,-0.0001682909
178.6017,-0.0001681892
178.7017,-0.0001680395
178.8017,-0.0001678813
178.9017,-0.0001677391
179.0017,-0.0001676242
179.1017,-0.0001674924
179.2017,-0.0001673605
179.3017,-0.0001672145
179.4017,-0.0001670714
179.5018,-0.0001669556
179.6018,-0.0001668388
179.7018,-0.0001667022
179.8018,-0.0001665657
179.9018,-0.0001664235
180.0018,-0.0001663048
180.1018,-0.0001661843
180.2018,-0.0001660449
180.3018,-0.0001659574
180.4018,-0.0001657991
180.5018,-0.000165656
180.6018,-0.0001655533
180.7018,-0.0001654432
180.8018,-0.0001652793
180.9018,-0.0001651672
181.0018,-0.0001650806
181.1019,-0.0001649827
181.2019,-0.0001648376
181.3019,-0.0001646804
181.4019,-0.0001646248
181.5019,-0.0001645608
181.6019,-0.0001643941
181.7019,-0.0001642763
181.8019,-0.0001641539
181.9019,-0.0001640343
182.0019,-0.0001638761
182.1019,-0.0001637612
182.2019,-0.0001636717
182.3019,-0.0001635032
182.4019,-0.0001633817
182.5019,-0.0001632659
182.6019,-0.0001631642
182.702,-0.000163022
182.802,-0.0001629071
182.902,-0.0001627903
183.002,-0.0001626556
183.102,-0.0001625304
183.202,-0.0001624145
183.302,-0.0001623063
183.402,-0.000162181
183.502,-0.0001620435
183.602,-0.0001619587
183.702,-0.000161826
183.802,-0.0001617214
183.902,-0.0001615604
184.002,-0.0001614577
184.102,-0.0001613495
184.202,-0.0001612261
184.302,-0.0001611225
184.4021,-0.0001609906
184.5021,-0.0001608494
184.6021,-0.0001607383
184.7021,-0.0001606262
184.8021,-0.0001605085
184.9021,-0.0001603861
185.0021,-0.0001602552
185.1021,-0.0001601393
185.2021,-0.0001600291
185.3021,-0.0001598832
185.4021,-0.0001597589
185.5021,-0.00015966
185.6021,-0.0001595319
185.7021,-0.0001594104
185.8021,-0.0001592908
185.9021,-0.0001591703
186.0022,-0.0001590328
186.1022,-0.0001589311
186.2022,-0.0001587955
186.3022,-0.0001586721
186.4022,-0.0001585958
186.5022,-0.0001584678
186.6022,-0.0001583397
186.7022,-0.0001582361
186.8022,-0.0001581334
186.9022,-0.0001579893
187.0022,-0.0001578716
187.1022,-0.0001577473
187.2022,-0.00015764
187.3022,-0.0001575514
187.4022,-0.0001574224
187.5022,-0.0001573094
187.6022,-0.0001571851
187.7023,-0.0001570542
187.8023,-0.0001569346
187.9023,-0.000156863
188.0023,-0.0001567472
188.1023,-0.0001565786
188.2023,-0.0001564863
188.3023,-0.0001563969
188.4023,-0.0001562688
188.5023,-0.0001561435
188.6023,-0.0001560437
188.7023,-0.000155927
188.8023,-0.0001558102
188.9023,-0.0001556623
189.0023,-0.0001555719
189.1023,-0.0001554646
189.2023,-0.0001553318
189.3024,-0.0001551905
189.4024,-0.0001550766
189.5024,-0.0001549645
189.6024,-0.0001548355
189.7024,-0.000154763
189.8024,-0.0001546292
189.9024,-0.0001545228
190.0024,-0.0001544513
190.1024,-0.0001543251
190.2024,-0.0001542093
190.3024,-0.0001541443
190.4024,-0.0001540313
190.5024,-0.0001538994
190.6024,-0.0001537864
190.7024,-0.0001536903
190.8024,-0.0001535623
190.9025,-0.000153421
191.0025,-0.0001533174
191.1025,-0.0001532129
191.2025,-0.0001530905
191.3025,-0.0001529765
191.4025,-0.0001528644
191.5025,-0.0001527524
191.6025,-0.0001526375
191.7025,-0.0001525339
191.8025,-0.0001524388
191.9025,-0.0001523098
192.0025,-0.0001522024
192.1025,-0.0001520772
192.2025,-0.0001519811
192.3025,-0.0001518832
192.4025,-0.000151772
192.5025,-0.0001516732
192.6026,-0.0001515366
192.7026,-0.0001514311
192.8026,-0.0001513172
192.9026,-0.0001512079
193.0026,-0.0001510818
193.1026,-0.000150964
193.2026,-0.0001508407
193.3026,-0.0001507305
193.4026,-0.0001506184
193.5026,-0.0001505177
193.6026,-0.0001503971
193.7026,-0.0001502869
193.8026,-0.0001501833
193.9026,-0.0001500939
194.0026,-0.0001499893
194.1026,-0.0001498829
194.2027,-0.0001497671
194.3027,-0.0001496748
194.4027,-0.0001495769
194.5027,-0.0001494751
194.6027,-0.0001493678
194.7027,-0.0001492444
194.8027,-0.0001491117
194.9027,-0.0001490128
195.0027,-0.0001488988
195.1027,-0.0001488046
195.2027,-0.0001486982
195.3027,-0.0001485946
195.4027,-0.0001484835
195.5027,-0.0001483488
195.6027,-0.0001482773
195.7027,-0.000148185
195.8027,-0.0001480974
195.9028,-0.0001479646
196.0028,-0.0001478658
196.1028,-0.0001477508
196.2028,-0.0001476454
196.3028,-0.0001475616
196.4028,-0.0001474599
196.5028,-0.0001473242
196.6028,-0.0001472159
196.7028,-0.0001471058
196.8028,-0.0001470125
196.9028,-0.0001468995
197.0028,-0.0001467818
197.1028,-0.0001467206
197.2028,-0.0001466123
197.3028,-0.0001464946
197.4028,-0.0001463693
197.5029,-0.0001462573
197.6029,-0.0001461678
197.7029,-0.0001460529
197.8029,-0.0001459295
197.9029,-0.0001458307
198.0029,-0.0001457233
198.1029,-0.000145631
198.2029,-0.0001455397
198.3029,-0.0001454502
198.4029,-0.0001453108
198.5029,-0.0001452072
198.6029,-0.0001451206
198.7029,-0.0001450198
198.8029,-0.0001449012
198.9029,-0.000144807
199.0029,-0.0001447147
199.103,-0.0001446168
199.203,-0.0001445104
199.303,-0.0001444171
199.403,-0.0001443022
199.503,-0.0001441836
199.603,-0.0001441167
199.703,-0.0001440065
199.803,-0.0001439039
199.903,-0.0001438389
200.003,-0.0001437325
200.103,-0.000143611
200.203,-0.0001435084
200.303,-0.000143384
200.403,-0.0001432635
200.503,-0.0001431684
200.603,-0.0001430742
200.703,-0.0001429753
200.8031,-0.0001428708
200.9031,-0.000142755
201.0031,-0.0001426335
201.1031,-0.0001425628
201.2031,-0.0001424706
201.3031,-0.0001423745
201.4031,-0.0001422992
201.5031,-0.0001421786
201.6031,-0.000142108
201.7031,-0.0001420063
201.8031,-0.0001418886
201.9031,-0.0001418189
202.0031,-0.0001417398
202.1031,-0.0001416211
202.2031,-0.0001414714
202.3031,-0.0001414055
202.4032,-0.0001412925
202.5032,-0.0001411681
202.6032,-0.0001410975
202.7032,-0.0001409779
202.8032,-0.0001408395
202.9032,-0.0001407538
203.0032,-0.0001406719
203.1032,-0.0001405579
203.2032,-0.0001404835
203.3032,-0.0001403686
203.4032,-0.0001402792
203.5032,-0.0001401869
203.6032,-0.0001400955
203.7032,-0.0001399853
203.8032,-0.0001398996
203.9032,-0.0001397734
204.0033,-0.0001396868
204.1033,-0.0001396152
204.2033,-0.00013949
204.3033,-0.0001394015
204.4033,-0.0001393506
204.5033,-0.0001392282
204.6033,-0.0001391434
204.7033,-0.0001390314
204.8033,-0.0001389419
204.9033,-0.0001387978
205.0033,-0.0001387309
205.1033,-0.0001386537
205.2033,-0.0001385407
205.3033,-0.0001384409
205.4033,-0.0001383194
205.5033,-0.000138229
205.6033,-0.0001381518
205.7034,-0.0001380463
205.8034,-0.0001379258
205.9034,-0.0001378288
206.0034,-0.0001377318
206.1034,-0.0001376338
206.2034,-0.0001375594
206.3034,-0.0001374436
206.4034,-0.0001373428
206.5034,-0.0001372496
206.6034,-0.0001371394
206.7034,-0.0001370547
206.8034,-0.0001369548
206.9034,-0.0001368635
207.0034,-0.0001367693
207.1034,-0.0001366761
207.2034,-0.0001365744
207.3035,-0.0001364746
207.4035,-0.0001364049
207.5035,-0.0001363013
207.6035,-0.0001362099
207.7035,-0.0001361073
207.8035,-0.0001360009
207.9035,-0.000135901
208.0035,-0.0001358389
208.1035,-0.0001357231
208.2035,-0.000135627
208.3035,-0.0001355244
208.4035,-0.0001354217
208.5035,-0.0001353407
208.6035,-0.0001352635
208.7035,-0.0001351552
208.8035,-0.000135061
208.9035,-0.0001349734
209.0036,-0.0001348567
209.1036,-0.0001347841
209.2036,-0.0001346947
209.3036,-0.0001345751
209.4036,-0.0001344932
209.5036,-0.0001344131
209.6036,-0.0001343152
209.7036,-0.0001342379
209.8036,-0.0001341466
209.9036,-0.0001340242
210.0036,-0.0001339488
210.1036,-0.0001338688
210.2036,-0.0001337831
210.3036,-0.0001337134
210.4036,-0.0001336013
210.5036,-0.0001335156
210.6037,-0.0001334205
210.7037,-0.0001333537
210.8037,-0.0001332623
210.9037,-0.0001331324
211.0037,-0.000133073
211.1037,-0.0001329845
211.2037,-0.0001328687
211.3037,-0.0001327679
211.4037,-0.0001327086
211.5037,-0.0001325748
211.6037,-0.0001324976
211.7037,-0.0001324176
211.8037,-0.0001323112
211.9037,-0.0001322189
212.0037,-0.0001321341
212.1037,-0.0001320352
212.2038,-0.0001319458
212.3038,-0.0001318808
212.4038,-0.0001317546
212.5038,-0.0001316717
212.6038,-0.0001315926
212.7038,-0.0001315201
212.8038,-0.0001314476
212.9038,-0.0001313374
213.0038,-0.0001312357
213.1038,-0.0001311698
213.2038,-0.0001310775
213.3038,-0.0001310182
213.4038,-0.0001308854
213.5038,-0.0001307752
213.6038,-0.0001307272
213.7038,-0.0001306518
213.8038,-0.0001305454
213.9039,-0.0001304352
214.0039,-0.000130358
214.1039,-0.0001302733
214.2039,-0.0001301819
214.3039,-0.0001301122
214.4039,-0.0001299775
214.5039,-0.0001299003
214.6039,-0.0001298372
214.7039,-0.0001297497
214.8039,-0.0001296357
214.9039,-0.0001295745
215.0039,-0.0001294982
215.1039,-0.0001293871
215.2039,-0.0001293108
215.3039,-0.0001292223
215.4039,-0.0001291319
215.504,-0.0001290603
215.604,-0.0001289539
215.704,-0.0001288569
215.804,-0.0001287561
215.904,-0.0001286657
216.004,-0.0001285875
216.104,-0.0001285198
216.204,-0.0001284256
216.304,-0.0001283342
216.404,-0.0001282815
216.504,-0.0001281798
216.604,-0.0001280875
216.704,-0.0001280282
216.804,-0.0001279378
216.904,-0.0001278389
217.004,-0.0001277908
217.104,-0.0001277033
217.2041,-0.0001276223
217.3041,-0.000127563
217.4041,-0.0001274952
217.5041,-0.0001274198
217.6041,-0.0001273492
217.7041,-0.0001272644
217.8041,-0.0001271646
217.9041,-0.0001270911
218.0041,-0.0001270271
218.1041,-0.0001269471
218.2041,-0.0001268727
218.3041,-0.0001267662
218.4041,-0.0001266693
218.5041,-0.000126609
218.6041,-0.0001265365
218.7041,-0.0001264282
218.8042,-0.0001263481
218.9042,-0.0001262511
219.0042,-0.0001261796
219.1042,-0.0001260826
219.2042,-0.0001260044
219.3042,-0.0001259206
219.4042,-0.0001258377
219.5042,-0.0001257501
219.6042,-0.0001256522
219.7042,-0.000125574
219.8042,-0.0001255043
219.9042,-0.0001254365
220.0042,-0.0001253555
220.1042,-0.0001252359
220.2042,-0.0001251389
220.3042,-0.0001250862
220.4043,-0.0001250071
220.5043,-0.0001249214
220.6043,-0.0001248046
220.7043,-0.0001247265
220.8043,-0.0001246445
220.9043,-0.0001245786
221.0043,-0.0001244769
221.1043,-0.0001244072
221.2043,-0.0001243112
221.3043,-0.0001242537
221.4043,-0.0001241859
221.5043,-0.0001240842
221.6043,-0.0001239929
221.7043,-0.00012391
221.8043,-0.0001238384
221.9043,-0.0001237452
222.0043,-0.0001236821
222.1044,-0.0001235917
222.2044,-0.0001234918
222.3044,-0.0001234344
222.4044,-0.0001233506
222.5044,-0.0001232658
222.6044,-0.000123183
222.7044,-0.0001230841
222.8044,-0.0001230125
222.9044,-0.0001229466
223.0044,-0.0001228703
223.1044,-0.0001227733
223.2044,-0.0001226923
223.3044,-0.0001226273
223.4044,-0.0001225501
223.5044,-0.0001225021
223.6044,-0.0001224315
223.7045,-0.0001223373
223.8045,-0.0001222469
223.9045,-0.0001221941
224.0045,-0.0001221414
224.1045,-0.0001220519
224.2045,-0.0001219389
224.3045,-0.0001218344
224.4045,-0.0001217722
224.5045,-0.0001216687
224.6045,-0.0001215745
224.7045,-0.0001214784
224.8045,-0.0001214021
224.9045,-0.0001213249
225.0045,-0.0001212185
225.1045,-0.0001211639
225.2045,-0.0001210848
225.3046,-0.0001209868
225.4046,-0.0001209294
225.5046,-0.0001208588
225.6046,-0.0001207712
225.7046,-0.0001206949
225.8046,-0.0001206139
225.9046,-0.0001205725
226.0046,-0.0001204934
226.1046,-0.0001204435
226.2046,-0.0001203389
226.3046,-0.000120274
226.4046,-0.0001201986
226.5046,-0.0001201421
226.6046,-0.0001200611
226.7046,-0.0001199575
226.8046,-0.0001198634
226.9046,-0.000119789
227.0047,-0.0001197193
227.1047,-0.0001196552
227.2047,-0.0001195535
227.3047,-0.0001194509
227.4047,-0.0001193897
227.5047,-0.0001193181
227.6047,-0.0001192305
227.7047,-0.0001191448
227.8047,-0.0001190714
227.9047,-0.000118996
228.0047,-0.0001189226
228.1047,-0.0001188538
228.2047,-0.0001187465
228.3047,-0.0001186702
228.4047,-0.0001186014
228.5047,-0.0001185374
228.6048,-0.000118463
228.7048,-0.0001183688
228.8048,-0.000118285
228.9048,-0.000118204
229.0048,-0.0001181343
229.1048,-0.0001180581
229.2048,-0.0001179837
229.3048,-0.000117898
229.4048,-0.0001178226
229.5048,-0.0001177614
229.6048,-0.000117688
229.7048,-0.0001175947
229.8048,-0.0001175363
229.9048,-0.0001174742
230.0048,-0.0001173819
230.1048,-0.0001173179
230.2048,-0.0001172124
230.3049,-0.000117202
230.4049,-0.0001171314
230.5049,-0.0001170551
230.6049,-0.0001169487
230.7049,-0.0001168602
230.8049,-0.0001168131
230.9049,-0.0001167377
231.0049,-0.0001166502
231.1049,-0.0001165466
231.2049,-0.0001164731
231.3049,-0.0001164034
231.4049,-0.0001163224
231.5049,-0.0001162443
231.6049,-0.0001161878
231.7049,-0.0001160936
231.8049,-0.0001160315
231.905,-0.0001159627
232.005,-0.0001158874
232.105,-0.0001158036
232.205,-0.0001157367
232.305,-0.0001156745
232.405,-0.0001155719
232.505,-0.0001155041
232.605,-0.0001154269
232.705,-0.0001153628
232.805,-0.0001152922
232.905,-0.0001152357
233.005,-0.0001151566
233.105,-0.0001150878
233.205,-0.0001150342
233.305,-0.0001149438
233.405,-0.0001148439
233.5051,-0.0001147761
233.6051,-0.0001147111
233.7051,-0.000114633
233.8051,-0.0001145661
233.9051,-0.0001144719
234.0051,-0.0001144041
234.1051,-0.0001143429
234.2051,-0.0001142732
234.3051,-0.0001142007
234.4051,-0.0001141179
234.5051,-0.0001140482
234.6051,-0.0001139888
234.7051,-0.0001139239
234.8051,-0.0001138645
234.9051,-0.0001137722
235.0051,-0.0001136969
235.1051,-0.0001136046
235.2052,-0.0001135425
235.3052,-0.0001134784
235.4052,-0.000113404
235.5052,-0.0001133353
235.6052,-0.0001132449
235.7052,-0.0001131902
235.8052,-0.0001130961
235.9052,-0.0001130424
236.0052,-0.0001129511
236.1052,-0.0001128701
236.2052,-0.0001128201
236.3052,-0.0001127335
236.4052,-0.0001126525
236.5052,-0.0001125847
236.6052,-0.0001124971
236.7052,-0.0001124435
236.8053,-0.0001123926
236.9053,-0.0001123163
237.0053,-0.0001122419
237.1053,-0.0001121704
237.2053,-0.000112096
237.3053,-0.0001120197
237.4053,-0.0001119575
237.5053,-0.0001118728
237.6053,-0.0001117908
237.7053,-0.0001117164
237.8053,-0.0001116552
237.9053,-0.0001115667
238.0053,-0.0001114961
238.1053,-0.0001114377
238.2053,-0.0001113548
238.3053,-0.0001112729
238.4053,-0.0001112098
238.5054,-0.000111174
238.6054,-0.0001111006
238.7054,-0.0001110252
238.8054,-0.0001109395
238.9054,-0.000110883
239.0054,-0.000110803
239.1054,-0.000110737
239.2054,-0.0001106495
239.3054,-0.0001105798
239.4054,-0.0001104941
239.5054,-0.000110446
239.6054,-0.0001103707
239.7054,-0.0001103302
239.8054,-0.0001102313
239.9054,-0.0001101522
240.0054,-0.0001101174
240.1055,-0.0001100364
240.2055,-0.0001099827
240.3055,-0.0001099234
240.4055,-0.0001098546
240.5055,-0.000109784
240.6055,-0.0001097219
240.7055,-0.0001096588
240.8055,-0.0001095947
240.9055,-0.0001095401
241.0055,-0.0001094459
241.1055,-0.0001093866
241.2055,-0.0001093084
241.3055,-0.0001092623
241.4055,-0.0001091973
241.5055,-0.0001091314
241.6055,-0.0001090626
241.7056,-0.0001089732
241.8056,-0.0001089299
241.9056,-0.0001088602
242.0056,-0.0001087679
242.1056,-0.0001087067
242.2056,-0.0001086455
242.3056,-0.0001085635
242.4056,-0.0001085098
242.5056,-0.0001084373
242.6056,-0.0001083592
242.7056,-0.0001083017
242.8056,-0.0001082141
242.9056,-0.0001081548
243.0056,-0.0001081077
243.1056,-0.0001080267
243.2056,-0.0001079599
243.3056,-0.0001079081
243.4057,-0.0001078374
243.5057,-0.0001077687
243.6057,-0.0001077207
243.7057,-0.0001076397
243.8057,-0.0001075625
243.9057,-0.0001075191
244.0057,-0.0001074457
244.1057,-0.0001073798
244.2057,-0.0001073157
244.3057,-0.0001072668
244.4057,-0.0001071848
244.5057,-0.0001071133
244.6057,-0.0001070925
244.7057,-0.0001070389
244.8057,-0.0001069569
244.9057,-0.0001068788
245.0058,-0.0001068053
245.1058,-0.0001067516
245.2058,-0.0001066857
245.3058,-0.0001065944
245.4058,-0.0001065303
245.5058,-0.0001064908
245.6058,-0.0001064305
245.7058,-0.0001063523
245.8058,-0.0001062629
245.9058,-0.0001062196
246.0058,-0.0001061207
246.1058,-0.0001060896
246.2058,-0.0001060011
246.3058,-0.000105937
246.4058,-0.000105873
246.5058,-0.0001058165
246.6059,-0.0001057449
246.7059,-0.0001057044
246.8059,-0.0001056187
246.9059,-0.0001055434
247.0059,-0.0001054925
247.1059,-0.0001054417
247.2059,-0.0001053588
247.3059,-0.0001053277
247.4059,-0.0001052646
247.5059,-0.000105162
247.6059,-0.0001051187
247.7059,-0.0001050509
247.8059,-0.0001049915
247.9059,-0.000104952
248.0059,-0.0001048503
248.1059,-0.0001047627
248.2059,-0.0001047495
248.306,-0.000104694
248.406,-0.0001046261
248.506,-0.0001045404
248.606,-0.000104467
248.706,-0.0001044048
248.806,-0.0001043851
248.906,-0.0001043013
249.006,-0.000104225
249.106,-0.0001041619
249.206,-0.0001040959
249.306,-0.000104031
249.406,-0.0001039745
249.506,-0.0001039057
249.606,-0.0001038455
249.706,-0.0001037842
249.806,-0.0001037004
249.9061,-0.0001036392
250.0061,-0.0001035855
250.1061,-0.0001035045
250.2061,-0.0001034424
250.3061,-0.0001033906
250.4061,-0.0001033322
250.5061,-0.000103271
250.6061,-0.0001031872
250.7061,-0.000103126
250.8061,-0.0001030563
250.9061,-0.0001030054
251.0061,-0.0001029489
251.1061,-0.0001028839
251.2061,-0.0001028265
251.3061,-0.0001027455
251.4061,-0.0001026805
251.5061,-0.0001026579
251.6062,-0.0001025553
251.7062,-0.0001024865
251.8062,-0.000102447
251.9062,-0.0001023914
252.0062,-0.0001023208
252.1062,-0.0001022794
252.2062,-0.0001021927
252.3062,-0.0001021155
252.4062,-0.0001020562
252.5062,-0.0001020147
252.6062,-0.0001019535
252.7062,-0.0001019187
252.8062,-0.0001018546
252.9062,-0.0001017567
253.0062,-0.0001017219
253.1062,-0.0001016522
253.2063,-0.0001015806
253.3063,-0.0001015401
253.4063,-0.0001014704
253.5063,-0.0001013988
253.6063,-0.0001013395
253.7063,-0.0001012717
253.8063,-0.0001012246
253.9063,-0.000101186
254.0063,-0.0001011154
254.1063,-0.0001010476
254.2063,-0.0001010118
254.3063,-0.0001009308
254.4063,-0.0001008639
254.5063,-0.000100831
254.6063,-0.0001007575
254.7063,-0.0001007151
254.8064,-0.0001006859
254.9064,-0.0001006059
255.0064,-0.0001006012
255.1064,-0.00010062
255.2064,-0.0001005616
255.3064,-0.0001005136
255.4064,-0.0001005042
255.5064,-0.00010041
255.6064,-0.0001003102
255.7064,-0.0001002631
255.8064,-0.0001001586
255.9064,-0.0001000531
256.0064,-0.0001000013
256.1064,-9.991748E-05
256.2064,-9.985062E-05
256.3064,-9.981672E-05
256.4064,-9.975457E-05
256.5064,-9.966228E-05
256.6064,-9.962649E-05
256.7065,-9.95455E-05
256.8065,-9.948712E-05
256.9065,-9.946545E-05
257.0065,-9.940707E-05
257.1065,-9.934962E-05
257.2065,-9.9295E-05
257.3065,-9.923002E-05
257.4065,-9.918105E-05
257.5065,-9.915939E-05
257.6065,-9.908594E-05
257.7065,-9.902096E-05
257.8065,-9.897387E-05
257.9065,-9.890606E-05
258.0065,-9.884203E-05
258.1065,-9.882037E-05
258.2065,-9.873467E-05
258.3065,-9.868477E-05
258.4066,-9.864238E-05
258.5066,-9.858776E-05
258.6066,-9.849547E-05
258.7066,-9.845309E-05
258.8066,-9.841166E-05
258.9066,-9.833538E-05
259.0066,-9.829488E-05
259.1066,-9.822143E-05
259.2066,-9.81574E-05
259.3066,-9.814421E-05
259.4066,-9.806322E-05
259.5066,-9.796998E-05
259.6066,-9.789276E-05
259.7066,-9.785792E-05
259.8066,-9.778635E-05
259.9066,-9.773173E-05
260.0067,-9.765733E-05
260.1067,-9.759895E-05
260.2067,-9.756129E-05
260.3067,-9.750854E-05
260.4067,-9.743414E-05
260.5067,-9.736728E-05
260.6067,-9.731454E-05
260.7067,-9.726745E-05
260.8067,-9.722225E-05
260.9067,-9.714597E-05
261.0067,-9.708852E-05
261.1067,-9.702543E-05
261.2067,-9.696987E-05
261.3067,-9.691996E-05
261.4067,-9.687005E-05
261.5067,-9.679188E-05
261.6068,-9.673538E-05
261.7068,-9.668358E-05
261.8068,-9.662237E-05
261.9068,-9.656775E-05
262.0068,-9.650842E-05
262.1068,-9.64425E-05
262.2068,-9.63907E-05
262.3068,-9.633137E-05
262.4068,-9.627957E-05
262.5068,-9.62438E-05
262.6068,-9.619576E-05
262.7068,-9.61289E-05
262.8068,-9.607805E-05
262.9068,-9.601119E-05
263.0068,-9.595374E-05
263.1068,-9.589158E-05
263.2068,-9.583319E-05
263.3069,-9.577952E-05
263.4069,-9.572395E-05
263.5069,-9.56731E-05
263.6069,-9.561377E-05
263.7069,-9.555727E-05
263.8069,-9.552525E-05
263.9069,-9.54452E-05
264.0069,-9.537269E-05
264.1069,-9.531808E-05
264.2069,-9.526722E-05
264.3069,-9.523332E-05
264.4069,-9.516739E-05
264.5069,-9.511748E-05
264.6069,-9.503932E-05
264.7069,-9.499788E-05
264.8069,-9.494609E-05
264.907,-9.48877E-05
265.007,-9.483684E-05
265.107,-9.4786E-05
265.207,-9.473421E-05
265.307,-9.467392E-05
265.407,-9.463531E-05
265.507,-9.457034E-05
265.607,-9.449217E-05
265.707,-9.445733E-05
265.807,-9.439988E-05
265.907,-9.432078E-05
266.007,-9.427653E-05
266.107,-9.420212E-05
266.207,-9.41654E-05
266.307,-9.412772E-05
266.407,-9.405521E-05
266.507,-9.397893E-05
266.6071,-9.393938E-05
266.7071,-9.389041E-05
266.8071,-9.383296E-05
266.9071,-9.377646E-05
267.0071,-9.369829E-05
267.1071,-9.36465E-05
267.2071,-9.361636E-05
267.3071,-9.357021E-05
267.4071,-9.351089E-05
267.5071,-9.346003E-05
267.6071,-9.340447E-05
267.7071,-9.336021E-05
267.8071,-9.33103E-05
267.9071,-9.325662E-05
268.0071,-9.319824E-05
268.1071,-9.314926E-05
268.2072,-9.309087E-05
268.3072,-9.305791E-05
268.4072,-9.301931E-05
268.5072,-9.294302E-05
268.6072,-9.288276E-05
268.7072,-9.283096E-05
268.8072,-9.277728E-05
268.9072,-9.272454E-05
269.0072,-9.267087E-05
269.1072,-9.259271E-05
269.2072,-9.255503E-05
269.3072,-9.249759E-05
269.4072,-9.24392E-05
269.5072,-9.238834E-05
269.6072,-9.234127E-05
269.7072,-9.2297E-05
269.8073,-9.224991E-05
269.9073,-9.22E-05
270.0073,-9.211618E-05
270.1073,-9.206439E-05
270.2073,-9.202295E-05
270.3073,-9.194385E-05
270.4073,-9.188734E-05
270.5073,-9.185438E-05
270.6073,-9.178847E-05
270.7073,-9.175268E-05
270.8073,-9.167075E-05
270.9073,-9.160954E-05
271.0073,-9.158693E-05
271.1073,-9.155208E-05
271.2073,-9.149558E-05
271.3073,-9.142025E-05
271.4073,-9.13581E-05
271.5074,-9.129688E-05
271.6074,-9.125638E-05
271.7074,-9.122154E-05
271.8074,-9.115091E-05
271.9074,-9.109158E-05
272.0074,-9.104639E-05
272.1074,-9.099364E-05
272.2074,-9.096445E-05
272.3074,-9.090323E-05
272.4074,-9.083826E-05
272.5074,-9.078364E-05
272.6074,-9.075632E-05
272.7074,-9.070641E-05
272.8074,-9.068382E-05
272.9074,-9.063672E-05
273.0074,-9.054255E-05
273.1075,-9.049923E-05
273.2075,-9.046344E-05
273.3075,-9.038999E-05
273.4075,-9.036739E-05
273.5075,-9.031559E-05
273.6075,-9.023932E-05
273.7075,-9.017151E-05
273.8075,-9.014513E-05
273.9075,-9.009806E-05
274.0075,-9.005002E-05
274.1075,-8.998316E-05
274.2075,-8.992194E-05
274.3075,-8.988898E-05
274.4075,-8.984943E-05
274.5075,-8.976468E-05
274.6075,-8.973078E-05
274.7076,-8.964885E-05
274.8076,-8.96093E-05
274.9076,-8.957728E-05
275.0076,-8.952171E-05
275.1076,-8.94671E-05
275.2076,-8.94266E-05
275.3076,-8.935973E-05
275.4076,-8.929193E-05
275.5076,-8.925991E-05
275.6076,-8.920906E-05
275.7076,-8.913654E-05
275.8076,-8.910076E-05
275.9076,-8.904143E-05
276.0076,-8.898681E-05
276.1076,-8.893973E-05
276.2076,-8.885874E-05
276.3076,-8.880883E-05
276.4077,-8.877587E-05
276.5077,-8.873254E-05
276.6077,-8.867604E-05
276.7077,-8.864308E-05
276.8077,-8.855927E-05
276.9077,-8.849617E-05
277.0077,-8.847357E-05
277.1077,-8.841141E-05
277.2077,-8.834455E-05
277.3077,-8.830688E-05
277.4077,-8.826356E-05
277.5077,-8.823531E-05
277.6077,-8.818258E-05
277.7077,-8.814396E-05
277.8077,-8.80884E-05
277.9077,-8.802531E-05
278.0078,-8.800458E-05
278.1078,-8.795467E-05
278.2078,-8.789346E-05
278.3078,-8.783508E-05
278.4078,-8.777198E-05
278.5078,-8.774843E-05
278.6078,-8.769852E-05
278.7078,-8.763072E-05
278.8078,-8.758269E-05
278.9078,-8.75535E-05
279.0078,-8.750452E-05
279.1078,-8.745368E-05
279.2078,-8.740094E-05
279.3078,-8.734631E-05
279.4078,-8.728888E-05
279.5078,-8.72625E-05
279.6078,-8.722577E-05
279.7079,-8.718246E-05
279.8079,-8.710711E-05
279.9079,-8.703931E-05
280.0079,-8.704025E-05
280.1079,-8.701012E-05
280.2079,-8.6899E-05
280.3079,-8.685379E-05
280.4079,-8.679258E-05
280.5079,-8.674455E-05
280.6079,-8.66984E-05
280.7079,-8.666921E-05
280.8079,-8.662024E-05
280.9079,-8.654679E-05
281.0079,-8.651194E-05
281.1079,-8.646674E-05
281.2079,-8.641965E-05
281.308,-8.637351E-05
281.408,-8.632641E-05
281.508,-8.62831E-05
281.608,-8.626332E-05
281.708,-8.620211E-05
281.808,-8.613714E-05
281.908,-8.610512E-05
282.008,-8.604766E-05
282.108,-8.59921E-05
282.208,-8.596197E-05
282.308,-8.591206E-05
282.408,-8.587721E-05
282.508,-8.583577E-05
282.608,-8.577551E-05
282.708,-8.571429E-05
282.808,-8.568133E-05
282.9081,-8.564178E-05
283.0081,-8.560318E-05
283.1081,-8.555703E-05
283.2081,-8.5509E-05
283.3081,-8.545344E-05
283.4081,-8.541012E-05
283.5081,-8.537339E-05
283.6081,-8.532159E-05
283.7081,-8.528863E-05
283.8081,-8.523495E-05
283.9081,-8.520859E-05
284.0081,-8.515585E-05
284.1081,-8.508898E-05
284.2081,-8.505508E-05
284.3081,-8.500046E-05
284.4081,-8.493266E-05
284.5081,-8.490159E-05
284.6082,-8.487709E-05
284.7082,-8.481023E-05
284.8082,-8.477821E-05
284.9082,-8.47349E-05
285.0082,-8.4701E-05
285.1082,-8.464731E-05
285.2082,-8.460682E-05
285.3082,-8.454749E-05
285.4082,-8.447497E-05
285.5082,-8.447592E-05
285.6082,-8.441282E-05
285.7082,-8.437233E-05
285.8082,-8.43017E-05
285.9082,-8.423766E-05
286.0082,-8.421788E-05
286.1082,-8.417645E-05
286.2083,-8.407285E-05
286.3083,-8.410864E-05
286.4083,-8.40785E-05
286.5083,-8.399563E-05
286.6083,-8.39542E-05
286.7083,-8.391088E-05
286.8083,-8.384496E-05
286.9083,-8.378563E-05
287.0083,-8.376585E-05
287.1083,-8.369334E-05
287.2083,-8.36698E-05
287.3083,-8.360576E-05
287.4083,-8.355396E-05
287.5083,-8.357091E-05
287.6083,-8.355396E-05
287.7083,-8.346449E-05
287.8083,-8.339481E-05
287.9084,-8.339105E-05
288.0084,-8.332324E-05
288.1084,-8.325355E-05
288.2084,-8.322812E-05
288.3084,-8.318198E-05
288.4084,-8.312359E-05
288.5084,-8.310194E-05
288.6084,-8.303695E-05
288.7084,-8.298893E-05
288.8084,-8.298045E-05
288.9084,-8.290323E-05
289.0084,-8.285143E-05
289.1084,-8.282789E-05
289.2084,-8.27695E-05
289.3084,-8.274784E-05
289.4084,-8.27064E-05
289.5085,-8.265273E-05
289.6085,-8.259811E-05
289.7085,-8.256986E-05
289.8085,-8.255291E-05
289.9085,-8.250299E-05
290.0085,-8.246249E-05
290.1085,-8.240882E-05
290.2085,-8.237209E-05
290.3085,-8.236644E-05
290.4085,-8.229393E-05
290.5085,-8.221388E-05
290.6085,-8.220164E-05
290.7085,-8.217244E-05
290.8085,-8.210841E-05
290.9085,-8.206132E-05
291.0085,-8.199069E-05
291.1086,-8.19502E-05
291.2086,-8.192571E-05
291.3086,-8.18984E-05
291.4086,-8.182588E-05
291.5086,-8.178633E-05
291.6086,-8.173266E-05
291.7086,-8.168368E-05
291.8086,-8.167709E-05
291.9086,-8.161118E-05
292.0086,-8.155655E-05
292.1086,-8.153395E-05
292.2086,-8.147651E-05
292.3086,-8.145202E-05
292.4086,-8.140964E-05
292.5086,-8.135784E-05
292.6086,-8.130605E-05
292.7086,-8.127686E-05
292.8087,-8.123353E-05
292.9087,-8.117232E-05
293.0087,-8.114784E-05
293.1087,-8.110452E-05
293.2087,-8.103107E-05
293.3087,-8.102636E-05
293.4087,-8.095949E-05
293.5087,-8.090675E-05
293.6087,-8.08898E-05
293.7087,-8.085214E-05
293.8087,-8.077586E-05
293.9087,-8.076361E-05
294.0087,-8.072123E-05
294.1087,-8.066097E-05
294.2087,-8.061482E-05
294.3087,-8.058939E-05
294.4088,-8.05376E-05
294.5088,-8.049617E-05
294.6088,-8.046226E-05
294.7088,-8.041235E-05
294.8088,-8.03888E-05
294.9088,-8.031535E-05
295.0088,-8.028333E-05
295.1088,-8.024849E-05
295.2088,-8.018916E-05
295.3088,-8.014207E-05
295.4088,-8.011287E-05
295.5088,-8.006485E-05
295.6088,-8.003094E-05
295.7088,-8.000552E-05
295.8088,-7.994713E-05
295.9088,-7.989063E-05
296.0089,-7.985955E-05
296.1089,-7.980399E-05
296.2089,-7.978233E-05
296.3089,-7.974937E-05
296.4089,-7.969851E-05
296.5089,-7.964672E-05
296.6089,-7.961093E-05
296.7089,-7.957326E-05
296.8089,-7.954878E-05
296.9089,-7.950075E-05
297.0089,-7.944237E-05
297.1089,-7.939999E-05
297.2089,-7.937644E-05
297.3089,-7.933217E-05
297.4089,-7.927661E-05
297.5089,-7.924742E-05
297.6089,-7.920599E-05
297.709,-7.916833E-05
297.809,-7.91429E-05
297.909,-7.90685E-05
298.009,-7.905436E-05
298.109,-7.9012E-05
298.209,-7.895643E-05
298.309,-7.889899E-05
298.409,-7.886603E-05
298.509,-7.881235E-05
298.609,-7.878786E-05
298.709,-7.877562E-05
298.809,-7.869839E-05
298.909,-7.864848E-05
299.009,-7.858916E-05
299.109,-7.857126E-05
299.209,-7.85496E-05
299.3091,-7.851758E-05
299.4091,-7.845166E-05
299.5091,-7.842153E-05
299.6091,-7.837068E-05
299.7091,-7.83283E-05
299.8091,-7.832077E-05
299.9091,-7.825484E-05
300.0091,-7.820116E-05
300.1091,-7.817668E-05
300.2091,-7.812582E-05
300.3091,-7.808157E-05
300.4091,-7.80712E-05
300.5091,-7.798362E-05
300.6091,-7.797797E-05
300.7091,-7.797891E-05
300.8091,-7.794124E-05
300.9091,-7.788851E-05
301.0092,-7.782824E-05
301.1092,-7.78207E-05
301.2092,-7.776703E-05
301.3092,-7.769357E-05
301.4092,-7.766249E-05
301.5092,-7.763141E-05
301.6092,-7.757209E-05
301.7092,-7.753913E-05
301.8092,-7.748262E-05
301.9092,-7.744871E-05
302.0092,-7.740917E-05
302.1092,-7.737432E-05
302.2092,-7.733194E-05
302.3092,-7.726979E-05
302.4092,-7.723683E-05
302.5092,-7.722835E-05
302.6093,-7.716432E-05
302.7093,-7.712006E-05
302.8093,-7.709275E-05
302.9093,-7.705225E-05
303.0093,-7.700893E-05
303.1093,-7.699103E-05
303.2093,-7.692324E-05
303.3093,-7.688745E-05
303.4093,-7.690063E-05
303.5093,-7.689592E-05
303.6093,-7.683189E-05
303.7093,-7.67735E-05
303.8093,-7.674337E-05
303.9093,-7.670381E-05
304.0093,-7.665013E-05
304.1093,-7.661623E-05
304.2094,-7.655972E-05
304.3094,-7.654371E-05
304.4094,-7.644578E-05
304.5094,-7.640905E-05
304.6094,-7.638738E-05
304.7094,-7.637702E-05
304.8094,-7.631205E-05
304.9094,-7.62725E-05
305.0094,-7.622447E-05
305.1094,-7.619245E-05
305.2094,-7.617079E-05
305.3094,-7.612088E-05
305.4094,-7.608792E-05
305.5094,-7.605779E-05
305.6094,-7.600787E-05
305.7094,-7.598715E-05
305.8094,-7.596173E-05
305.9095,-7.59137E-05
306.0095,-7.585814E-05
306.1095,-7.585248E-05
306.2095,-7.580635E-05
306.3095,-7.577526E-05
306.4095,-7.575078E-05
306.5095,-7.569522E-05
306.6095,-7.564436E-05
306.7095,-7.56679E-05
306.8095,-7.558503E-05
306.9095,-7.554265E-05
307.0095,-7.55596E-05
307.1095,-7.554642E-05
307.2095,-7.549369E-05
307.3095,-7.546073E-05
307.4095,-7.542588E-05
307.5096,-7.534395E-05
307.6096,-7.531852E-05
307.7096,-7.52752E-05
307.8096,-7.523565E-05
307.9096,-7.51669E-05
308.0096,-7.513677E-05
308.1096,-7.511982E-05
308.2096,-7.510004E-05
308.3096,-7.501057E-05
308.4096,-7.500492E-05
308.5096,-7.501905E-05
308.6096,-7.497291E-05
308.7096,-7.491075E-05
308.8096,-7.486554E-05
308.9096,-7.487968E-05
309.0096,-7.482599E-05
309.1096,-7.477797E-05
309.2097,-7.472994E-05
309.3097,-7.468851E-05
309.4097,-7.467721E-05
309.5097,-7.461787E-05
309.6097,-7.456137E-05
309.7097,-7.451241E-05
309.8097,-7.447851E-05
309.9097,-7.446814E-05
310.0097,-7.441446E-05
310.1097,-7.434101E-05
310.2097,-7.435231E-05
310.3097,-7.435324E-05
310.4097,-7.429486E-05
310.5097,-7.424777E-05
310.6097,-7.419221E-05
310.7097,-7.416866E-05
310.8098,-7.414607E-05
310.9098,-7.410839E-05
311.0098,-7.405283E-05
311.1098,-7.400764E-05
311.2098,-7.399444E-05
311.3098,-7.394453E-05
311.4098,-7.393041E-05
311.5098,-7.388992E-05
311.6098,-7.382682E-05
311.7098,-7.379385E-05
311.8098,-7.380611E-05
311.9098,-7.376467E-05
312.0098,-7.369969E-05
312.1098,-7.366861E-05
312.2098,-7.362623E-05
312.3098,-7.359609E-05
312.4099,-7.357255E-05
312.5099,-7.348874E-05
312.6099,-7.345672E-05
312.7099,-7.348027E-05
312.8099,-7.344542E-05
312.9099,-7.337102E-05
313.0099,-7.333335E-05
313.1099,-7.333147E-05
313.2099,-7.327685E-05
313.3099,-7.32533E-05
313.4099,-7.320528E-05
313.5099,-7.315537E-05
313.6099,-7.314688E-05
313.7099,-7.30838E-05
313.8099,-7.307721E-05
313.9099,-7.303765E-05
314.0099,-7.297455E-05
314.11,-7.300469E-05
314.21,-7.300657E-05
314.31,-7.289732E-05
314.41,-7.284836E-05
314.51,-7.283141E-05
314.61,-7.27928E-05
314.71,-7.274854E-05
314.81,-7.269203E-05
314.91,-7.263364E-05
315.01,-7.261198E-05
315.11,-7.258468E-05
315.21,-7.253006E-05
315.31,-7.249145E-05
315.41,-7.245754E-05
315.51,-7.239068E-05
315.61,-7.23709E-05
315.7101,-7.23436E-05
315.8101,-7.231063E-05
315.9101,-7.225884E-05
316.0101,-7.224942E-05
316.1101,-7.21995E-05
316.2101,-7.215995E-05
316.3101,-7.215995E-05
316.4101,-7.209404E-05
316.5101,-7.205919E-05
316.6101,-7.20413E-05
316.7101,-7.200456E-05
316.8101,-7.198291E-05
316.9101,-7.194335E-05
317.0101,-7.190192E-05
317.1101,-7.187085E-05
317.2101,-7.185766E-05
317.3102,-7.180868E-05
317.4102,-7.177572E-05
317.5102,-7.174465E-05
317.6102,-7.171545E-05
317.7102,-7.167214E-05
317.8102,-7.16646E-05
317.9102,-7.162411E-05
318.0102,-7.157891E-05
318.1102,-7.155253E-05
318.2102,-7.15224E-05
318.3102,-7.147909E-05
318.4102,-7.14659E-05
318.5102,-7.141034E-05
318.6102,-7.137644E-05
318.7102,-7.135666E-05
318.8102,-7.131334E-05
318.9102,-7.129638E-05
319.0103,-7.125777E-05
319.1103,-7.120975E-05
319.2103,-7.118056E-05
319.3103,-7.113347E-05
319.4103,-7.110899E-05
319.5103,-7.108921E-05
319.6103,-7.106943E-05
319.7103,-7.102517E-05
319.8103,-7.098938E-05
319.9103,-7.094324E-05
320.0103,-7.090463E-05
320.1103,-7.087732E-05
320.2103,-7.086131E-05
320.3103,-7.079068E-05
320.4103,-7.076337E-05
320.5103,-7.072947E-05
320.6104,-7.071062E-05
320.7104,-7.069556E-05
320.8104,-7.063624E-05
320.9104,-7.059197E-05
321.0104,-7.058067E-05
321.1104,-7.055148E-05
321.2104,-7.050816E-05
321.3104,-7.048273E-05
321.4104,-7.045071E-05
321.5104,-7.040646E-05
321.6104,-7.040362E-05
321.7104,-7.037631E-05
321.8104,-7.028779E-05
321.9104,-7.02586E-05
322.0104,-7.022281E-05
322.1104,-7.018137E-05
322.2104,-7.016819E-05
322.3105,-7.012865E-05
322.4105,-7.01117E-05
322.5105,-7.00872E-05
322.6105,-7.006366E-05
322.7105,-7.00015E-05
322.8105,-6.994783E-05
322.9105,-6.99224E-05
323.0105,-6.988661E-05
323.1105,-6.986684E-05
323.2105,-6.981222E-05
323.3105,-6.974913E-05
323.4105,-6.975477E-05
323.5105,-6.970581E-05
323.6105,-6.968791E-05
323.7105,-6.963141E-05
323.8105,-6.961069E-05
323.9106,-6.95862E-05
324.0106,-6.95749E-05
324.1106,-6.95184E-05
324.2106,-6.949674E-05
324.3106,-6.9444E-05
324.4106,-6.9428E-05
324.5106,-6.938561E-05
324.6106,-6.934983E-05
324.7106,-6.934606E-05
324.8106,-6.928862E-05
324.9106,-6.923306E-05
325.0106,-6.921328E-05
325.1106,-6.917749E-05
325.2106,-6.916525E-05
325.3106,-6.912193E-05
325.4106,-6.907955E-05
325.5107,-6.905507E-05
325.6107,-6.903247E-05
325.7107,-6.899291E-05
325.8107,-6.89543E-05
325.9107,-6.892982E-05
326.0107,-6.889686E-05
326.1107,-6.888178E-05
326.2107,-6.885353E-05
326.3107,-6.881022E-05
326.4107,-6.878479E-05
326.5107,-6.875277E-05
326.6107,-6.870474E-05
326.7107,-6.870569E-05
326.8107,-6.864259E-05
326.9107,-6.861999E-05
327.0107,-6.861434E-05
327.1107,-6.85955E-05
327.2108,-6.85729E-05
327.3108,-6.853523E-05
327.4108,-6.847873E-05
327.5108,-6.843823E-05
327.6108,-6.840433E-05
327.7108,-6.837984E-05
327.8108,-6.834406E-05
327.9108,-6.83224E-05
328.0108,-6.828473E-05
328.1108,-6.824612E-05
328.2108,-6.824046E-05
328.3108,-6.820563E-05
328.4108,-6.815478E-05
328.5108,-6.8151E-05
328.6108,-6.809921E-05
328.7108,-6.804553E-05
328.8109,-6.80314E-05
328.9109,-6.799186E-05
329.0109,-6.794759E-05
329.1109,-6.793064E-05
329.2109,-6.789768E-05
329.3109,-6.784306E-05
329.4109,-6.781668E-05
329.5109,-6.781763E-05
329.6109,-6.774418E-05
329.7109,-6.773664E-05
329.8109,-6.768861E-05
329.9109,-6.765283E-05
330.0109,-6.764153E-05
330.1109,-6.758973E-05
330.2109,-6.755959E-05
330.3109,-6.754076E-05
330.4109,-6.752663E-05
330.511,-6.74852E-05
330.611,-6.744659E-05
330.711,-6.741269E-05
330.811,-6.739762E-05
330.911,-6.737785E-05
331.011,-6.73138E-05
331.111,-6.728649E-05
331.211,-6.723942E-05
331.311,-6.721869E-05
331.411,-6.717349E-05
331.511,-6.714901E-05
331.611,-6.712358E-05
331.711,-6.707743E-05
331.811,-6.707084E-05
331.911,-6.702281E-05
332.011,-6.697855E-05
332.1111,-6.694747E-05
332.2111,-6.693146E-05
332.3111,-6.689851E-05
332.4111,-6.686271E-05
332.5111,-6.682034E-05
332.6111,-6.67855E-05
332.7111,-6.677514E-05
332.8111,-6.676666E-05
332.9111,-6.671581E-05
333.0111,-6.668943E-05
333.1111,-6.663011E-05
333.2111,-6.661033E-05
333.3111,-6.660091E-05
333.4111,-6.656419E-05
333.5111,-6.652558E-05
333.6111,-6.650957E-05
333.7112,-6.648791E-05
333.8112,-6.644742E-05
333.9112,-6.639751E-05
334.0112,-6.638902E-05
334.1112,-6.636831E-05
334.2112,-6.634006E-05
334.3112,-6.630521E-05
334.4112,-6.626848E-05
334.5112,-6.623835E-05
334.6112,-6.621762E-05
334.7112,-6.619692E-05
334.8112,-6.615359E-05
334.9112,-6.612911E-05
335.0112,-6.60726E-05
335.1112,-6.606695E-05
335.2112,-6.605848E-05
335.3112,-6.60048E-05
335.4113,-6.596807E-05
335.5113,-6.594171E-05
335.6113,-6.592476E-05
335.7113,-6.591534E-05
335.8113,-6.589085E-05
335.9113,-6.580986E-05
336.0113,-6.581927E-05
336.1113,-6.579667E-05
336.2113,-6.576184E-05
336.3113,-6.573169E-05
336.4113,-6.571662E-05
336.5113,-6.570627E-05
336.6113,-6.568932E-05
336.7113,-6.565071E-05
336.8113,-6.562246E-05
336.9113,-6.558102E-05
337.0114,-6.554712E-05
337.1114,-6.551227E-05
337.2114,-6.549626E-05
337.3114,-6.544541E-05
337.4114,-6.539268E-05
337.5114,-6.539549E-05
337.6114,-6.536442E-05
337.7114,-6.531733E-05
337.8114,-6.527872E-05
337.9114,-6.525706E-05
338.0114,-6.522128E-05
338.1114,-6.521563E-05
338.2114,-6.517513E-05
338.3114,-6.512333E-05
338.4114,-6.508378E-05
338.5114,-6.506966E-05
338.6115,-6.502916E-05
338.7115,-6.501409E-05
338.8115,-6.498584E-05
338.9115,-6.49463E-05
339.0115,-6.491804E-05
339.1115,-6.489732E-05
339.2115,-6.485965E-05
339.3115,-6.483234E-05
339.4115,-6.481068E-05
339.5115,-6.477207E-05
339.6115,-6.474571E-05
339.7115,-6.471462E-05
339.8115,-6.468261E-05
339.9115,-6.465059E-05
340.0115,-6.462328E-05
340.1115,-6.458561E-05
340.2115,-6.456018E-05
340.3116,-6.453005E-05
340.4116,-6.449615E-05
340.5116,-6.450085E-05
340.6116,-6.444623E-05
340.7116,-6.441515E-05
340.8116,-6.439727E-05
340.9116,-6.436335E-05
341.0116,-6.431156E-05
341.1116,-6.431063E-05
341.2116,-6.427296E-05
341.3116,-6.424376E-05
341.4116,-6.422398E-05
341.5116,-6.421174E-05
341.6116,-6.416654E-05
341.7116,-6.413075E-05
341.8116,-6.410533E-05
341.9117,-6.404223E-05
342.0117,-6.402434E-05
342.1117,-6.401492E-05
342.2117,-6.398291E-05
342.3117,-6.394523E-05
342.4117,-6.391792E-05
342.5117,-6.386519E-05
342.6117,-6.385388E-05
342.7117,-6.383788E-05
342.8117,-6.380492E-05
342.9117,-6.378232E-05
343.0117,-6.375877E-05
343.1117,-6.371545E-05
343.2117,-6.369944E-05
343.3117,-6.367496E-05
343.4117,-6.365518E-05
343.5117,-6.362693E-05
343.6118,-6.359961E-05
343.7118,-6.354877E-05
343.8118,-6.354499E-05
343.9118,-6.351486E-05
344.0118,-6.349602E-05
344.1118,-6.346966E-05
344.2118,-6.345742E-05
344.3118,-6.341692E-05
344.4118,-6.338019E-05
344.5118,-6.337831E-05
344.6118,-6.332745E-05
344.7118,-6.331992E-05
344.8118,-6.32653E-05
344.9118,-6.323987E-05
345.0118,-6.322857E-05
345.1118,-6.318808E-05
345.2119,-6.314852E-05
345.3119,-6.312499E-05
345.4119,-6.311369E-05
345.5119,-6.304399E-05
345.6119,-6.303175E-05
345.7119,-6.300727E-05
345.8119,-6.29696E-05
345.9119,-6.293852E-05
346.0119,-6.292722E-05
346.1119,-6.290838E-05
346.2119,-6.288673E-05
346.3119,-6.285847E-05
346.4119,-6.281704E-05
346.5119,-6.278973E-05
346.6119,-6.278879E-05
346.7119,-6.273981E-05
346.812,-6.271816E-05
346.912,-6.268708E-05
347.012,-6.263999E-05
347.112,-6.262869E-05
347.212,-6.261551E-05
347.312,-6.257408E-05
347.412,-6.254488E-05
347.512,-6.253452E-05
347.612,-6.249591E-05
347.712,-6.245447E-05
347.812,-6.244694E-05
347.912,-6.239043E-05
348.012,-6.237537E-05
348.112,-6.235936E-05
348.212,-6.232922E-05
348.312,-6.230756E-05
348.412,-6.22633E-05
348.5121,-6.221057E-05
348.6121,-6.218984E-05
348.7121,-6.218702E-05
348.8121,-6.214935E-05
348.9121,-6.210603E-05
349.0121,-6.210886E-05
349.1121,-6.206271E-05
349.2121,-6.204388E-05
349.3121,-6.200997E-05
349.4121,-6.198078E-05
349.5121,-6.194971E-05
349.6121,-6.192899E-05
349.7121,-6.191015E-05
349.8121,-6.185836E-05
349.9121,-6.184235E-05
350.0121,-6.180845E-05
350.1122,-6.179149E-05
350.2122,-6.176701E-05
350.3122,-6.171804E-05
350.4122,-6.17105E-05
350.5122,-6.168884E-05
350.6122,-6.166907E-05
350.7122,-6.162668E-05
350.8122,-6.161728E-05
350.9122,-6.157301E-05
351.0122,-6.155041E-05
351.1122,-6.152781E-05
351.2122,-6.151839E-05
351.3122,-6.149673E-05
351.4122,-6.145624E-05
351.5122,-6.141856E-05
351.6122,-6.139409E-05
351.7122,-6.139126E-05
351.8123,-6.136206E-05
351.9123,-6.13244E-05
352.0123,-6.131968E-05
352.1123,-6.13131E-05
352.2123,-6.127354E-05
352.3123,-6.123587E-05
352.4123,-6.120856E-05
352.5123,-6.118596E-05
352.6123,-6.11709E-05
352.7123,-6.110968E-05
352.8123,-6.109649E-05
352.9123,-6.109179E-05
353.0123,-6.1056E-05
353.1123,-6.101268E-05
353.2123,-6.099102E-05
353.3123,-6.096654E-05
353.4124,-6.093735E-05
353.5124,-6.092416E-05
353.6124,-6.089873E-05
353.7124,-6.085824E-05
353.8124,-6.082716E-05
353.9124,-6.082716E-05
354.0124,-6.079514E-05
354.1124,-6.07763E-05
354.2124,-6.074617E-05
354.3124,-6.070662E-05
354.4124,-6.07085E-05
354.5124,-6.067648E-05
354.6124,-6.064447E-05
354.7124,-6.061809E-05
354.8124,-6.057666E-05
354.9124,-6.055877E-05
355.0125,-6.055877E-05
355.1125,-6.050415E-05
355.2125,-6.048531E-05
355.3125,-6.048531E-05
355.4125,-6.045423E-05
355.5125,-6.041468E-05
355.6125,-6.040526E-05
355.7125,-6.03836E-05
355.8125,-6.035159E-05
355.9125,-6.034311E-05
356.0125,-6.03045E-05
356.1125,-6.027813E-05
356.2125,-6.02753E-05
356.3125,-6.023482E-05
356.4125,-6.018866E-05
356.5125,-6.017642E-05
356.6125,-6.016513E-05
356.7126,-6.012181E-05
356.8126,-6.009544E-05
356.9126,-6.009167E-05
357.0126,-6.006436E-05
357.1126,-6.004646E-05
357.2126,-6.001539E-05
357.3126,-5.998054E-05
357.4126,-5.995041E-05
357.5126,-5.993816E-05
357.6126,-5.990991E-05
357.7126,-5.98779E-05
357.8126,-5.98713E-05
357.9126,-5.983834E-05
358.0126,-5.981103E-05
358.1126,-5.976771E-05
358.2126,-5.973098E-05
358.3127,-5.973287E-05
358.4127,-5.972063E-05
358.5127,-5.968578E-05
358.6127,-5.964623E-05
358.7127,-5.961327E-05
358.8127,-5.960856E-05
358.9127,-5.959255E-05
359.0127,-5.95643E-05
359.1127,-5.951627E-05
359.2127,-5.948613E-05
359.3127,-5.947672E-05
359.4127,-5.943811E-05
359.5127,-5.942775E-05
359.6127,-5.939856E-05
359.7127,-5.935712E-05
359.8127,-5.935994E-05
359.9128,-5.933546E-05
360.0128,-5.93025E-05
360.1128,-5.927519E-05
360.2128,-5.92394E-05
360.3128,-5.922433E-05
360.4128,-5.920455E-05
360.5128,-5.91829E-05
360.6128,-5.914429E-05
360.7128,-5.912545E-05
360.8128,-5.910191E-05
360.9128,-5.908025E-05
361.0128,-5.906235E-05
361.1128,-5.904164E-05
361.2128,-5.898796E-05
361.3128,-5.897195E-05
361.4128,-5.89437E-05
361.5128,-5.893334E-05
361.6129,-5.891733E-05
361.7129,-5.888625E-05
361.8129,-5.884576E-05
361.9129,-5.881563E-05
362.0129,-5.880432E-05
362.1129,-5.879114E-05
362.2129,-5.877419E-05
362.3129,-5.873181E-05
362.4129,-5.867907E-05
362.5129,-5.86979E-05
362.6129,-5.865647E-05
362.7129,-5.862916E-05
362.8129,-5.860091E-05
362.9129,-5.858772E-05
363.0129,-5.856889E-05
363.1129,-5.857548E-05
363.213,-5.854911E-05
363.313,-5.849637E-05
363.413,-5.848037E-05
363.513,-5.847001E-05
363.613,-5.843987E-05
363.713,-5.840408E-05
363.813,-5.838525E-05
363.913,-5.836265E-05
364.013,-5.835888E-05
364.113,-5.832027E-05
364.213,-5.827413E-05
364.313,-5.826942E-05
364.413,-5.826565E-05
364.513,-5.823928E-05
364.613,-5.821197E-05
364.713,-5.818372E-05
364.813,-5.813193E-05
364.9131,-5.813851E-05
365.0131,-5.812533E-05
365.1131,-5.807825E-05
365.2131,-5.804999E-05
365.3131,-5.803963E-05
365.4131,-5.799725E-05
365.5131,-5.798313E-05
365.6131,-5.796147E-05
365.7131,-5.794829E-05
365.8131,-5.790591E-05
365.9131,-5.790591E-05
366.0131,-5.787672E-05
366.1131,-5.78607E-05
366.2131,-5.783528E-05
366.3131,-5.778349E-05
366.4131,-5.778254E-05
366.5132,-5.778349E-05
366.6132,-5.773452E-05
366.7132,-5.772416E-05
366.8132,-5.769873E-05
366.9132,-5.76799E-05
367.0132,-5.766765E-05
367.1132,-5.76733E-05
367.2132,-5.75942E-05
367.3132,-5.757442E-05
367.4132,-5.755087E-05
367.5132,-5.752922E-05
367.6132,-5.751227E-05
367.7132,-5.749061E-05
367.8132,-5.74407E-05
367.9132,-5.743881E-05
368.0132,-5.740962E-05
368.1133,-5.738231E-05
368.2133,-5.737383E-05
368.3133,-5.731733E-05
368.4133,-5.730885E-05
368.5133,-5.728907E-05
368.6133,-5.72693E-05
368.7133,-5.722881E-05
368.8133,-5.723352E-05
368.9133,-5.720621E-05
369.0133,-5.714499E-05
369.1133,-5.71497E-05
369.2133,-5.71384E-05
369.3133,-5.708472E-05
369.4133,-5.708189E-05
369.5133,-5.704046E-05
369.6133,-5.703481E-05
369.7133,-5.704517E-05
369.8134,-5.699525E-05
369.9134,-5.696041E-05
370.0134,-5.69444E-05
370.1134,-5.691991E-05
370.2134,-5.688695E-05
370.3134,-5.685776E-05
370.4134,-5.683328E-05
370.5134,-5.683516E-05
370.6134,-5.680785E-05
370.7134,-5.679467E-05
370.8134,-5.675417E-05
370.9134,-5.672498E-05
371.0134,-5.669296E-05
371.1134,-5.670049E-05
371.2134,-5.66713E-05
371.3134,-5.663363E-05
371.4135,-5.658937E-05
371.5135,-5.659031E-05
371.6135,-5.656677E-05
371.7135,-5.654229E-05
371.8135,-5.650273E-05
371.9135,-5.649708E-05
372.0135,-5.6466E-05
372.1135,-5.644811E-05
372.2135,-5.645753E-05
372.3135,-5.641044E-05
372.4135,-5.63803E-05
372.5135,-5.637936E-05
372.6135,-5.637183E-05
372.7135,-5.635959E-05
372.8135,-5.634169E-05
372.9135,-5.629555E-05
373.0135,-5.625694E-05
373.1136,-5.626353E-05
373.2136,-5.621833E-05
373.3136,-5.621362E-05
373.4136,-5.617877E-05
373.5136,-5.612886E-05
373.6136,-5.613546E-05
373.7136,-5.612886E-05
373.8136,-5.607801E-05
373.9136,-5.606483E-05
374.0136,-5.60394E-05
374.1136,-5.601679E-05
374.2136,-5.599796E-05
374.3136,-5.598384E-05
374.4136,-5.594805E-05
374.5136,-5.594617E-05
374.6136,-5.593016E-05
374.7137,-5.590755E-05
374.8137,-5.586895E-05
374.9137,-5.585576E-05
375.0137,-5.581621E-05
375.1137,-5.581055E-05
375.2137,-5.579926E-05
375.3137,-5.573898E-05
375.4137,-5.572674E-05
375.5137,-5.575782E-05
375.6137,-5.574841E-05
375.7137,-5.569566E-05
375.8137,-5.566835E-05
375.9137,-5.565894E-05
376.0137,-5.561373E-05
376.1137,-5.560432E-05
376.2137,-5.556948E-05
376.3138,-5.55497E-05
376.4138,-5.552992E-05
376.5138,-5.549414E-05
376.6138,-5.547907E-05
376.7138,-5.548754E-05
376.8138,-5.543104E-05
376.9138,-5.540184E-05
377.0138,-5.540844E-05
377.1138,-5.53896E-05
377.2138,-5.536794E-05
377.3138,-5.535193E-05
377.4138,-5.533875E-05
377.5138,-5.52813E-05
377.6138,-5.529072E-05
377.7138,-5.526812E-05
377.8138,-5.523799E-05
377.9138,-5.522104E-05
378.0139,-5.51796E-05
378.1139,-5.51504E-05
378.2139,-5.517677E-05
378.3139,-5.512121E-05
378.4139,-5.509861E-05
378.5139,-5.510426E-05
378.6139,-5.511556E-05
378.7139,-5.509296E-05
378.8139,-5.506942E-05
378.9139,-5.504211E-05
379.0139,-5.504023E-05
379.1139,-5.499973E-05
379.2139,-5.499502E-05
379.3139,-5.495547E-05
379.4139,-5.494511E-05
379.5139,-5.490932E-05
379.614,-5.487071E-05
379.714,-5.484811E-05
379.814,-5.481326E-05
379.914,-5.480949E-05
380.014,-5.478124E-05
380.114,-5.474452E-05
380.214,-5.471909E-05
380.314,-5.47125E-05
380.414,-5.469272E-05
380.514,-5.466823E-05
380.614,-5.465505E-05
380.714,-5.462021E-05
380.814,-5.45929E-05
380.914,-5.459478E-05
381.014,-5.457218E-05
381.114,-5.45298E-05
381.2141,-5.453357E-05
381.3141,-5.450438E-05
381.4141,-5.447707E-05
381.5141,-5.448836E-05
381.6141,-5.443186E-05
381.7141,-5.441114E-05
381.8141,-5.440926E-05
381.9141,-5.440267E-05
382.0141,-5.440832E-05
382.1141,-5.439608E-05
382.2141,-5.437159E-05
382.3141,-5.436406E-05
382.4141,-5.435464E-05
382.5141,-5.429154E-05
382.6141,-5.424258E-05
382.7141,-5.426517E-05
382.8141,-5.423504E-05
382.9142,-5.419926E-05
383.0142,-5.417195E-05
383.1142,-5.413522E-05
383.2142,-5.41145E-05
383.3142,-5.412203E-05
383.4142,-5.409755E-05
383.5142,-5.404575E-05
383.6142,-5.403445E-05
383.7142,-5.403069E-05
383.8142,-5.399584E-05
383.9142,-5.399866E-05
384.0142,-5.396194E-05
384.1142,-5.391203E-05
384.2142,-5.391673E-05
384.3142,-5.389602E-05
384.4142,-5.386306E-05
384.5143,-5.384799E-05
384.6143,-5.382538E-05
384.7143,-5.38009E-05
384.8143,-5.380938E-05
384.9143,-5.377642E-05
385.0143,-5.374911E-05
385.1143,-5.373498E-05
385.2143,-5.370767E-05
385.3143,-5.368601E-05
385.4143,-5.369354E-05
385.5143,-5.365305E-05
385.6143,-5.359561E-05
385.7143,-5.360502E-05
385.8143,-5.358148E-05
385.9143,-5.356076E-05
386.0143,-5.357866E-05
386.1143,-5.352592E-05
386.2144,-5.35052E-05
386.3144,-5.350143E-05
386.4144,-5.34647E-05
386.5144,-5.343928E-05
386.6144,-5.344964E-05
386.7144,-5.345623E-05
386.8144,-5.340443E-05
386.9144,-5.338372E-05
387.0144,-5.335452E-05
387.1144,-5.333474E-05
387.2144,-5.333286E-05
387.3144,-5.328954E-05
387.4144,-5.325093E-05
387.5144,-5.326977E-05
387.6144,-5.322456E-05
387.7144,-5.320102E-05
387.8145,-5.320196E-05
387.9145,-5.317371E-05
388.0145,-5.313133E-05
388.1145,-5.313886E-05
388.2145,-5.310025E-05
388.3145,-5.308048E-05
388.4145,-5.307294E-05
388.5145,-5.303622E-05
388.6145,-5.300043E-05
388.7145,-5.301456E-05
388.8145,-5.297689E-05
388.9145,-5.295334E-05
389.0145,-5.293451E-05
389.1145,-5.29298E-05
389.2145,-5.290438E-05
389.3145,-5.289308E-05
389.4146,-5.286859E-05
389.5146,-5.284975E-05
389.6146,-5.284316E-05
389.7146,-5.28215E-05
389.8146,-5.278666E-05
389.9146,-5.278383E-05
390.0146,-5.274805E-05
390.1146,-5.269625E-05
390.2146,-5.271415E-05
390.3146,-5.270473E-05
390.4146,-5.268401E-05
390.5146,-5.264351E-05
390.6146,-5.261055E-05
390.7146,-5.259454E-05
390.8146,-5.26002E-05
390.9146,-5.257288E-05
391.0146,-5.252485E-05
391.1147,-5.25145E-05
391.2147,-5.249661E-05
391.3147,-5.248248E-05
391.4147,-5.246835E-05
391.5147,-5.242786E-05
391.6147,-5.239772E-05
391.7147,-5.240996E-05
391.8147,-5.238736E-05
391.9147,-5.234122E-05
392.0147,-5.232332E-05
392.1147,-5.231579E-05
392.2147,-5.231014E-05
392.3147,-5.228943E-05
392.4147,-5.227342E-05
392.5147,-5.223669E-05
392.6147,-5.222727E-05
392.7148,-5.221503E-05
392.8148,-5.219055E-05
392.9148,-5.217265E-05
393.0148,-5.215852E-05
393.1148,-5.211144E-05
393.2148,-5.210391E-05
393.3148,-5.209731E-05
393.4148,-5.206623E-05
393.5148,-5.205023E-05
393.6148,-5.202762E-05
393.7148,-5.202574E-05
393.8148,-5.200314E-05
393.9148,-5.20135E-05
394.0148,-5.196924E-05
394.1148,-5.193251E-05
394.2148,-5.193722E-05
394.3148,-5.191179E-05
394.4149,-5.187789E-05
394.5149,-5.186847E-05
394.6149,-5.181667E-05
394.7149,-5.182798E-05
394.8149,-5.181385E-05
394.9149,-5.177053E-05
395.0149,-5.176017E-05
395.1149,-5.173004E-05
395.2149,-5.171779E-05
395.3149,-5.172533E-05
395.4149,-5.169708E-05
395.5149,-5.16773E-05
395.6149,-5.165187E-05
395.7149,-5.162927E-05
395.8149,-5.161043E-05
395.9149,-5.16255E-05
396.015,-5.159066E-05
396.115,-5.155958E-05
396.215,-5.154075E-05
396.315,-5.152756E-05
396.415,-5.147671E-05
396.515,-5.147765E-05
396.615,-5.146917E-05
396.715,-5.143433E-05
396.815,-5.143056E-05
396.915,-5.141079E-05
397.015,-5.136747E-05
397.115,-5.136747E-05
397.215,-5.134863E-05
397.315,-5.133922E-05
397.415,-5.13411E-05
397.515,-5.130061E-05
397.6151,-5.126576E-05
397.7151,-5.126765E-05
397.8151,-5.124598E-05
397.9151,-5.122056E-05
398.0151,-5.119607E-05
398.1151,-5.117818E-05
398.2151,-5.114899E-05
398.3151,-5.114051E-05
398.4151,-5.110755E-05
398.5151,-5.110755E-05
398.6151,-5.108307E-05
398.7151,-5.106705E-05
398.8151,-5.102939E-05
398.9151,-5.101526E-05
399.0151,-5.099454E-05
399.1151,-5.100019E-05
399.2151,-5.097571E-05
399.3152,-5.093709E-05
399.4152,-5.091167E-05
399.5152,-5.090225E-05
399.6152,-5.090884E-05
399.7152,-5.088342E-05
399.8152,-5.086364E-05
399.9152,-5.083162E-05
400.0152,-5.079395E-05
400.1152,-5.080055E-05
400.2152,-5.078736E-05
400.3152,-5.076476E-05
400.4152,-5.075911E-05
400.5152,-5.073274E-05
400.6152,-5.070826E-05
400.7152,-5.068754E-05
400.8152,-5.071108E-05
400.9153,-5.067812E-05
401.0153,-5.064139E-05
401.1153,-5.06348E-05
401.2153,-5.059619E-05
401.3153,-5.05896E-05
401.4153,-5.058301E-05
401.5153,-5.057358E-05
401.6153,-5.053216E-05
401.7153,-5.052179E-05
401.8153,-5.049825E-05
401.9153,-5.047848E-05
402.0153,-5.049542E-05
402.1153,-5.044363E-05
402.2153,-5.042103E-05
402.3153,-5.044269E-05
402.4153,-5.039749E-05
402.5154,-5.038618E-05
402.6154,-5.040314E-05
402.7154,-5.039466E-05
402.8154,-5.03617E-05
402.9154,-5.037489E-05
403.0154,-5.036735E-05
403.1154,-5.032874E-05
403.2154,-5.030048E-05
403.3154,-5.028354E-05
403.4154,-5.026376E-05
403.5154,-5.02873E-05
403.6154,-5.021856E-05
403.7154,-5.019407E-05
403.8154,-5.022986E-05
403.9154,-5.020631E-05
404.0154,-5.016959E-05
404.1154,-5.01564E-05
404.2155,-5.011779E-05
404.3155,-5.006976E-05
404.4155,-5.011309E-05
404.5155,-5.006976E-05
404.6155,-5.003304E-05
404.7155,-5.002927E-05
404.8155,-5.000102E-05
404.9155,-4.998972E-05
405.0155,-4.99803E-05
405.1155,-4.992851E-05
405.2155,-4.995016E-05
405.3155,-4.9969E-05
405.4155,-4.990873E-05
405.5155,-4.987577E-05
405.6155,-4.991155E-05
405.7155,-4.987012E-05
405.8156,-4.984752E-05
405.9156,-4.983245E-05
406.0156,-4.980608E-05
406.1156,-4.980043E-05
406.2156,-4.978818E-05
406.3156,-4.974957E-05
406.4156,-4.976558E-05
406.5156,-4.975711E-05
406.6156,-4.971473E-05
406.7156,-4.968554E-05
406.8156,-4.967047E-05
406.9156,-4.965446E-05
407.0156,-4.963186E-05
407.1156,-4.962715E-05
407.2156,-4.958759E-05
407.3156,-4.957535E-05
407.4156,-4.95697E-05
407.5157,-4.952168E-05
407.6157,-4.950096E-05
407.7157,-4.955464E-05
407.8157,-4.953392E-05
407.9157,-4.948401E-05
408.0157,-4.946611E-05
408.1157,-4.944257E-05
408.2157,-4.941432E-05
408.3157,-4.942939E-05
408.4157,-4.938701E-05
408.5157,-4.935122E-05
408.6157,-4.934086E-05
408.7157,-4.932486E-05
408.8157,-4.93258E-05
408.9157,-4.932297E-05
409.0157,-4.9274E-05
409.1158,-4.925893E-05
409.2158,-4.92627E-05
409.3158,-4.923068E-05
409.4158,-4.920525E-05
409.5158,-4.920431E-05
409.6158,-4.918925E-05
409.7158,-4.915911E-05
409.8158,-4.915722E-05
409.9158,-4.91205E-05
410.0158,-4.909413E-05
410.1158,-4.911108E-05
410.2158,-4.908942E-05
410.3158,-4.906587E-05
410.4158,-4.907624E-05
410.5158,-4.901408E-05
410.6158,-4.899995E-05
410.7159,-4.901785E-05
410.8159,-4.898771E-05
410.9159,-4.896041E-05
411.0159,-4.895381E-05
411.1159,-4.894816E-05
411.2159,-4.894533E-05
411.3159,-4.89331E-05
411.4159,-4.889919E-05
411.5159,-4.888129E-05
411.6159,-4.886623E-05
411.7159,-4.883986E-05
411.8159,-4.881349E-05
411.9159,-4.881726E-05
412.0159,-4.880878E-05
412.1159,-4.876358E-05
412.2159,-4.875417E-05
412.3159,-4.872591E-05
412.416,-4.870991E-05
412.516,-4.873251E-05
412.616,-4.867506E-05
412.716,-4.865246E-05
412.816,-4.867412E-05
412.916,-4.867223E-05
413.016,-4.865057E-05
413.116,-4.862044E-05
413.216,-4.862044E-05
413.316,-4.859596E-05
413.416,-4.85969E-05
413.516,-4.856017E-05
413.616,-4.852721E-05
413.716,-4.850555E-05
413.816,-4.848201E-05
413.916,-4.847164E-05
414.0161,-4.848483E-05
414.1161,-4.84481E-05
414.2161,-4.844433E-05
414.3161,-4.840667E-05
414.4161,-4.837088E-05
414.5161,-4.837465E-05
414.6161,-4.838501E-05
414.7161,-4.834169E-05
414.8161,-4.831814E-05
414.9161,-4.831344E-05
415.0161,-4.831249E-05
415.1161,-4.830684E-05
415.2161,-4.830684E-05
415.3161,-4.829742E-05
415.4161,-4.826446E-05
415.5161,-4.82654E-05
415.6161,-4.824092E-05
415.7162,-4.820325E-05
415.8162,-4.818065E-05
415.9162,-4.816747E-05
416.0162,-4.814957E-05
416.1162,-4.815428E-05
416.2162,-4.810814E-05
416.3162,-4.809495E-05
416.4162,-4.809778E-05
416.5162,-4.807988E-05
416.6162,-4.803656E-05
416.7162,-4.802056E-05
416.8162,-4.803562E-05
416.9162,-4.801773E-05
417.0162,-4.798853E-05
417.1162,-4.795652E-05
417.2162,-4.793768E-05
417.3163,-4.793015E-05
417.4163,-4.794521E-05
417.5163,-4.790001E-05
417.6163,-4.787553E-05
417.7163,-4.786046E-05
417.8163,-4.782279E-05
417.9163,-4.783127E-05
418.0163,-4.781055E-05
418.1163,-4.778041E-05
418.2163,-4.776911E-05
418.3163,-4.77418E-05
418.4163,-4.772391E-05
418.5163,-4.774745E-05
418.6163,-4.772485E-05
418.7163,-4.769377E-05
418.8163,-4.768718E-05
418.9164,-4.765139E-05
419.0164,-4.762785E-05
419.1164,-4.76335E-05
419.2164,-4.762597E-05
419.3164,-4.759866E-05
419.4164,-4.759113E-05
419.5164,-4.75544E-05
419.6164,-4.753933E-05
419.7164,-4.75591E-05
419.8164,-4.751956E-05
419.9164,-4.748848E-05
420.0164,-4.751673E-05
420.1164,-4.745645E-05
420.2164,-4.745081E-05
420.3164,-4.745834E-05
420.4164,-4.742726E-05
420.5164,-4.739054E-05
420.6165,-4.741691E-05
420.7165,-4.742067E-05
420.8165,-4.73717E-05
420.9165,-4.735757E-05
421.0165,-4.734534E-05
421.1165,-4.730672E-05
421.2165,-4.732273E-05
421.3165,-4.729637E-05
421.4165,-4.727282E-05
421.5165,-4.726623E-05
421.6165,-4.722291E-05
421.7165,-4.722479E-05
421.8165,-4.72295E-05
421.9165,-4.720125E-05
422.0165,-4.717865E-05
422.1165,-4.717394E-05
422.2166,-4.71504E-05
422.3166,-4.713721E-05
422.4166,-4.712967E-05
422.5166,-4.709106E-05
422.6166,-4.707223E-05
422.7166,-4.709013E-05
422.8166,-4.707976E-05
422.9166,-4.706281E-05
423.0166,-4.704115E-05
423.1166,-4.700349E-05
423.2166,-4.698465E-05
423.3166,-4.70016E-05
423.4166,-4.697335E-05
423.5166,-4.692438E-05
423.6166,-4.694886E-05
423.7166,-4.694321E-05
423.8167,-4.691402E-05
423.9167,-4.689707E-05
424.0167,-4.685752E-05
424.1167,-4.683303E-05
424.2167,-4.686976E-05
424.3167,-4.68481E-05
424.4167,-4.680949E-05
424.5167,-4.680949E-05
424.6167,-4.677841E-05
424.7167,-4.675958E-05
424.8167,-4.67737E-05
424.9167,-4.671343E-05
425.0167,-4.668518E-05
425.1167,-4.672473E-05
425.2167,-4.670496E-05
425.3167,-4.667859E-05
425.4167,-4.665881E-05
425.5168,-4.66315E-05
425.6168,-4.660796E-05
425.7168,-4.660702E-05
425.8168,-4.659666E-05
425.9168,-4.658536E-05
426.0168,-4.655805E-05
426.1168,-4.652603E-05
426.2168,-4.651096E-05
426.3168,-4.653168E-05
426.4168,-4.647518E-05
426.5168,-4.645728E-05
426.6168,-4.646199E-05
426.7168,-4.646293E-05
426.8168,-4.641302E-05
426.9168,-4.640643E-05
427.0168,-4.63923E-05
427.1169,-4.63584E-05
427.2169,-4.639418E-05
427.3169,-4.636217E-05
427.4169,-4.633014E-05
427.5169,-4.631791E-05
427.6169,-4.629342E-05
427.7169,-4.628494E-05
427.8169,-4.6268E-05
427.9169,-4.621243E-05
428.0169,-4.623974E-05
428.1169,-4.625857E-05
428.2169,-4.621714E-05
428.3169,-4.617759E-05
428.4169,-4.619266E-05
428.5169,-4.617194E-05
428.6169,-4.614745E-05
428.7169,-4.613144E-05
428.817,-4.611261E-05
428.917,-4.607023E-05
429.017,-4.610978E-05
429.117,-4.60853E-05
429.217,-4.606741E-05
429.317,-4.604292E-05
429.417,-4.60109E-05
429.517,-4.600996E-05
429.617,-4.602691E-05
429.717,-4.597794E-05
429.817,-4.593839E-05
429.917,-4.595345E-05
430.017,-4.594686E-05
430.117,-4.594215E-05
430.217,-4.591202E-05
430.317,-4.589412E-05
430.4171,-4.585834E-05
430.5171,-4.588188E-05
430.6171,-4.584516E-05
430.7171,-4.581596E-05
430.8171,-4.581879E-05
430.9171,-4.578488E-05
431.0171,-4.577359E-05
431.1171,-4.579619E-05
431.2171,-4.575004E-05
431.3171,-4.572461E-05
431.4171,-4.57491E-05
431.5171,-4.574816E-05
431.6171,-4.571614E-05
431.7171,-4.569071E-05
431.8171,-4.565304E-05
431.9171,-4.564174E-05
432.0172,-4.568694E-05
432.1172,-4.563421E-05
432.2172,-4.559936E-05
432.3172,-4.561161E-05
432.4172,-4.559089E-05
432.5172,-4.557205E-05
432.6172,-4.560313E-05
432.7172,-4.554286E-05
432.8172,-4.552873E-05
432.9172,-4.552308E-05
433.0172,-4.551367E-05
433.1172,-4.548259E-05
433.2172,-4.54873E-05
433.3172,-4.547317E-05
433.4172,-4.545716E-05
433.5172,-4.542608E-05
433.6172,-4.541855E-05
433.7173,-4.539124E-05
433.8173,-4.541667E-05
433.9173,-4.538465E-05
434.0173,-4.536487E-05
434.1173,-4.539595E-05
434.2173,-4.536111E-05
434.3173,-4.534039E-05
434.4173,-4.531308E-05
434.5173,-4.53159E-05
434.6173,-4.529519E-05
434.7173,-4.528577E-05
434.8173,-4.525752E-05
434.9173,-4.523303E-05
435.0173,-4.523115E-05
435.1173,-4.522267E-05
435.2173,-4.519442E-05
435.3174,-4.519159E-05
435.4174,-4.513697E-05
435.5174,-4.513321E-05
435.6174,-4.518123E-05
435.7174,-4.515769E-05
435.8174,-4.512756E-05
435.9174,-4.509083E-05
436.0174,-4.509836E-05
436.1174,-4.510213E-05
436.2174,-4.507482E-05
436.3174,-4.50428E-05
436.4174,-4.502585E-05
436.5174,-4.504563E-05
436.6174,-4.499289E-05
436.7174,-4.496181E-05
436.8174,-4.498159E-05
436.9174,-4.497217E-05
437.0175,-4.494298E-05
437.1175,-4.493262E-05
437.2175,-4.491472E-05
437.3175,-4.489307E-05
437.4175,-4.489872E-05
437.5175,-4.49006E-05
437.6175,-4.485445E-05
437.7175,-4.485257E-05
437.8175,-4.482903E-05
437.9175,-4.481396E-05
438.0175,-4.481867E-05
438.1175,-4.477441E-05
438.2175,-4.47471E-05
438.3175,-4.477629E-05
438.4175,-4.478288E-05
438.5175,-4.47584E-05
438.6176,-4.473392E-05
438.7176,-4.472732E-05
438.8176,-4.470849E-05
438.9176,-4.471319E-05
439.0176,-4.468871E-05
439.1176,-4.46614E-05
439.2176,-4.465387E-05
439.3176,-4.46275E-05
439.4176,-4.461243E-05
439.5176,-4.463032E-05
439.6176,-4.460019E-05
439.7176,-4.459736E-05
439.8176,-4.458983E-05
439.9176,-4.455781E-05
440.0176,-4.452767E-05
440.1176,-4.453426E-05
440.2177,-4.452108E-05
440.3177,-4.451261E-05
440.4177,-4.452202E-05
440.5177,-4.44674E-05
440.6177,-4.446929E-05
440.7177,-4.446647E-05
440.8177,-4.44448E-05
440.9177,-4.441561E-05
441.0177,-4.442503E-05
441.1177,-4.443444E-05
441.2177,-4.440336E-05
441.3177,-4.439583E-05
441.4177,-4.438265E-05
441.5177,-4.43544E-05
441.6177,-4.435157E-05
441.7177,-4.433462E-05
441.8177,-4.432615E-05
441.9178,-4.432143E-05
442.0178,-4.429036E-05
442.1178,-4.427623E-05
442.2178,-4.427341E-05
442.3178,-4.424421E-05
442.4178,-4.423668E-05
442.5178,-4.42235E-05
442.6178,-4.420372E-05
442.7178,-4.41943E-05
442.8178,-4.419995E-05
442.9178,-4.417359E-05
443.0178,-4.413497E-05
443.1178,-4.414062E-05
443.2178,-4.41199E-05
443.3178,-4.413685E-05
443.4178,-4.41086E-05
443.5179,-4.407282E-05
443.6179,-4.405775E-05
443.7179,-4.407376E-05
443.8179,-4.405681E-05
443.9179,-4.404645E-05
444.0179,-4.402761E-05
444.1179,-4.399654E-05
444.2179,-4.398147E-05
444.3179,-4.397205E-05
444.4179,-4.394851E-05
444.5179,-4.394285E-05
444.6179,-4.395228E-05
444.7179,-4.391743E-05
444.8179,-4.390142E-05
444.9179,-4.38986E-05
445.0179,-4.387976E-05
445.118,-4.3876E-05
445.218,-4.388635E-05
445.318,-4.384209E-05
445.418,-4.384115E-05
445.518,-4.383268E-05
445.618,-4.379972E-05
445.718,-4.380725E-05
445.818,-4.380536E-05
445.918,-4.377335E-05
446.018,-4.376299E-05
446.118,-4.374509E-05
446.218,-4.371119E-05
446.318,-4.370837E-05
446.418,-4.372438E-05
446.518,-4.367635E-05
446.618,-4.367729E-05
446.718,-4.367541E-05
446.8181,-4.364056E-05
446.9181,-4.364056E-05
447.0181,-4.363021E-05
447.1181,-4.360478E-05
447.2181,-4.359347E-05
447.3181,-4.361513E-05
447.4181,-4.356428E-05
447.5181,-4.356146E-05
447.6181,-4.354545E-05
447.7181,-4.35106E-05
447.8181,-4.350589E-05
447.9181,-4.350307E-05
448.0181,-4.350684E-05
448.1181,-4.347105E-05
448.2181,-4.345975E-05
448.3181,-4.344751E-05
448.4182,-4.342302E-05
448.5182,-4.342491E-05
448.6182,-4.339948E-05
448.7182,-4.339759E-05
448.8182,-4.338253E-05
448.9182,-4.336181E-05
449.0182,-4.335993E-05
449.1182,-4.335239E-05
449.2182,-4.331849E-05
449.3182,-4.332696E-05
449.4182,-4.331849E-05
449.5182,-4.329118E-05
449.6182,-4.328082E-05
449.7182,-4.329306E-05
449.8182,-4.325917E-05
449.9182,-4.324786E-05
450.0182,-4.324974E-05
450.1183,-4.321773E-05
450.2183,-4.319324E-05
450.3183,-4.318665E-05
450.4183,-4.31857E-05
450.5183,-4.316405E-05
450.6183,-4.314238E-05
450.7183,-4.311319E-05
450.8183,-4.308965E-05
450.9183,-4.310566E-05
451.0183,-4.307929E-05
451.1183,-4.308494E-05
451.2183,-4.305951E-05
451.3183,-4.304068E-05
451.4183,-4.304256E-05
451.5183,-4.302655E-05
451.6183,-4.300395E-05
451.7184,-4.296817E-05
451.8184,-4.297476E-05
451.9184,-4.297005E-05
452.0184,-4.295875E-05
452.1184,-4.29418E-05
452.2184,-4.290507E-05
452.3184,-4.290884E-05
452.4184,-4.29126E-05
452.5184,-4.289754E-05
452.6184,-4.287211E-05
452.7184,-4.284009E-05
452.8184,-4.283727E-05
452.9184,-4.285045E-05
453.0184,-4.285798E-05
453.1184,-4.282691E-05
453.2184,-4.277417E-05
453.3185,-4.277511E-05
453.4185,-4.275816E-05
453.5185,-4.276381E-05
453.6185,-4.27591E-05
453.7185,-4.270448E-05
453.8185,-4.271108E-05
453.9185,-4.271955E-05
454.0185,-4.269695E-05
454.1185,-4.268377E-05
454.2185,-4.266116E-05
454.3185,-4.265551E-05
454.4185,-4.267435E-05
454.5185,-4.265269E-05
454.6185,-4.26169E-05
454.7185,-4.260372E-05
454.8185,-4.261031E-05
454.9185,-4.258112E-05
455.0186,-4.258394E-05
455.1186,-4.255663E-05
455.2186,-4.253591E-05
455.3186,-4.252932E-05
455.4186,-4.252932E-05
455.5186,-4.250013E-05
455.6186,-4.248789E-05
455.7186,-4.248695E-05
455.8186,-4.248789E-05
455.9186,-4.249165E-05
456.0186,-4.245398E-05
456.1186,-4.241632E-05
456.2186,-4.242385E-05
456.3186,-4.244551E-05
456.4186,-4.238994E-05
456.5186,-4.239089E-05
456.6187,-4.238429E-05
456.7187,-4.236734E-05
456.8187,-4.238335E-05
456.9187,-4.237299E-05
457.0187,-4.233627E-05
457.1187,-4.232967E-05
457.2187,-4.229106E-05
457.3187,-4.230142E-05
457.4187,-4.228635E-05
457.5187,-4.226469E-05
457.6187,-4.223833E-05
457.7187,-4.223362E-05
457.8187,-4.222985E-05
457.9187,-4.221666E-05
458.0187,-4.219783E-05
458.1187,-4.220631E-05
458.2188,-4.217805E-05
458.3188,-4.218841E-05
458.4188,-4.215733E-05
458.5188,-4.213567E-05
458.6188,-4.214886E-05
458.7188,-4.213003E-05
458.8188,-4.210178E-05
458.9188,-4.211308E-05
459.0188,-4.208012E-05
459.1188,-4.208106E-05
459.2188,-4.206505E-05
459.3188,-4.207728E-05
459.4188,-4.206599E-05
459.5188,-4.20594E-05
459.6188,-4.204056E-05
459.7188,-4.203679E-05
459.8188,-4.201513E-05
459.9189,-4.199724E-05
460.0189,-4.196428E-05
460.1189,-4.198877E-05
460.2189,-4.195392E-05
460.3189,-4.192567E-05
460.4189,-4.193132E-05
460.5189,-4.191437E-05
460.6189,-4.189271E-05
460.7189,-4.191437E-05
460.8189,-4.188989E-05
460.9189,-4.18767E-05
461.0189,-4.187294E-05
461.1189,-4.186446E-05
461.2189,-4.182585E-05
461.3189,-4.18315E-05
461.4189,-4.181737E-05
461.519,-4.180513E-05
461.619,-4.18023E-05
461.719,-4.177594E-05
461.819,-4.175804E-05
461.919,-4.178535E-05
462.019,-4.174768E-05
462.119,-4.171849E-05
462.219,-4.172414E-05
462.319,-4.171189E-05
462.419,-4.169212E-05
462.519,-4.171755E-05
462.619,-4.164127E-05
462.719,-4.165068E-05
462.819,-4.168458E-05
462.919,-4.167046E-05
463.019,-4.163279E-05
463.119,-4.163185E-05
463.2191,-4.161961E-05
463.3191,-4.1581E-05
463.4191,-4.160266E-05
463.5191,-4.158759E-05
463.6191,-4.15584E-05
463.7191,-4.15518E-05
463.8191,-4.155275E-05
463.9191,-4.152449E-05
464.0191,-4.152637E-05
464.1191,-4.148965E-05
464.2191,-4.146799E-05
464.3191,-4.150566E-05
464.4191,-4.149341E-05
464.5191,-4.146893E-05
464.6191,-4.144444E-05
464.7191,-4.14322E-05
464.8192,-4.141055E-05
464.9192,-4.143691E-05
465.0192,-4.140772E-05
465.1192,-4.137099E-05
465.2192,-4.138605E-05
465.3192,-4.137193E-05
465.4192,-4.136252E-05
465.5192,-4.135216E-05
465.6192,-4.132013E-05
465.7192,-4.132108E-05
465.8192,-4.134933E-05
465.9192,-4.134086E-05
466.0192,-4.131166E-05
466.1192,-4.127682E-05
466.2192,-4.128247E-05
466.3192,-4.126928E-05
466.4193,-4.126552E-05
466.5193,-4.123444E-05
466.6193,-4.122314E-05
466.7193,-4.120242E-05
466.8193,-4.118736E-05
466.9193,-4.117511E-05
467.0193,-4.116946E-05
467.1193,-4.113462E-05
467.2193,-4.112614E-05
467.3193,-4.113462E-05
467.4193,-4.114027E-05
467.5193,-4.110354E-05
467.6193,-4.110825E-05
467.7193,-4.107811E-05
467.8193,-4.106964E-05
467.9193,-4.107717E-05
468.0193,-4.105268E-05
468.1194,-4.103856E-05
468.2194,-4.103856E-05
468.3194,-4.101125E-05
468.4194,-4.100842E-05
468.5194,-4.100842E-05
468.6194,-4.098771E-05
468.7194,-4.09651E-05
468.8194,-4.097075E-05
468.9194,-4.096699E-05
469.0194,-4.094344E-05
469.1194,-4.093967E-05
469.2194,-4.091143E-05
469.3194,-4.089353E-05
469.4194,-4.088317E-05
469.5194,-4.09086E-05
469.6194,-4.085116E-05
469.7195,-4.085963E-05
469.8195,-4.08229E-05
469.9195,-4.082573E-05
470.0195,-4.083797E-05
470.1195,-4.082384E-05
470.2195,-4.080125E-05
470.3195,-4.079371E-05
470.4195,-4.078712E-05
470.5195,-4.078241E-05
470.6195,-4.077016E-05
470.7195,-4.074285E-05
470.8195,-4.071837E-05
470.9195,-4.07146E-05
471.0195,-4.072873E-05
471.1195,-4.070047E-05
471.2195,-4.068918E-05
471.3195,-4.066657E-05
471.4196,-4.065433E-05
471.5196,-4.068447E-05
471.6196,-4.06581E-05
471.7196,-4.06242E-05
471.8196,-4.063268E-05
471.9196,-4.059971E-05
472.0196,-4.060254E-05
472.1196,-4.060065E-05
472.2196,-4.056581E-05
472.3196,-4.056204E-05
472.4196,-4.058088E-05
472.5196,-4.057146E-05
472.6196,-4.054603E-05
472.7196,-4.054603E-05
472.8196,-4.052908E-05
472.9196,-4.050742E-05
473.0197,-4.050177E-05
473.1197,-4.047635E-05
473.2197,-4.047352E-05
473.3197,-4.046881E-05
473.4197,-4.047352E-05
473.5197,-4.04415E-05
473.6197,-4.044244E-05
473.7197,-4.041702E-05
473.8197,-4.038594E-05
473.9197,-4.041137E-05
474.0197,-4.038782E-05
474.1197,-4.037181E-05
474.2197,-4.035392E-05
474.3197,-4.03558E-05
474.4197,-4.035015E-05
474.5197,-4.036428E-05
474.6198,-4.035674E-05
474.7198,-4.032567E-05
474.8198,-4.030118E-05
474.9198,-4.031343E-05
475.0198,-4.028612E-05
475.1198,-4.026917E-05
475.2198,-4.025881E-05
475.3198,-4.022679E-05
475.4198,-4.025221E-05
475.5198,-4.023432E-05
475.6198,-4.021643E-05
475.7198,-4.020042E-05
475.8198,-4.020325E-05
475.9198,-4.016275E-05
476.0198,-4.018723E-05
476.1198,-4.016652E-05
476.2198,-4.014203E-05
476.3199,-4.015427E-05
476.4199,-4.011566E-05
476.5199,-4.007329E-05
476.6199,-4.009212E-05
476.7199,-4.007705E-05
476.8199,-4.008458E-05
476.9199,-4.006857E-05
477.0199,-4.005257E-05
477.1199,-4.002432E-05
477.2199,-4.002525E-05
477.3199,-4.001395E-05
477.4199,-3.99857E-05
477.5199,-4.000548E-05
477.6199,-3.998947E-05
477.7199,-3.995745E-05
477.8199,-3.996216E-05
477.92,-3.997158E-05
478.02,-3.995934E-05
478.12,-3.994332E-05
478.22,-3.993673E-05
478.32,-3.992637E-05
478.42,-3.992261E-05
478.52,-3.991602E-05
478.62,-3.987834E-05
478.72,-3.986987E-05
478.82,-3.98614E-05
478.92,-3.985104E-05
479.02,-3.982561E-05
479.12,-3.984538E-05
479.22,-3.981336E-05
479.32,-3.980018E-05
479.42,-3.980772E-05
479.5201,-3.979548E-05
479.6201,-3.980772E-05
479.7201,-3.980018E-05
479.8201,-3.976063E-05
479.9201,-3.975215E-05
480.0201,-3.975404E-05
480.1201,-3.977005E-05
480.2201,-3.973897E-05
480.3201,-3.972296E-05
480.4201,-3.96787E-05
480.5201,-3.969659E-05
480.6201,-3.969471E-05
480.7201,-3.96495E-05
480.8201,-3.966363E-05
480.9201,-3.964574E-05
481.0201,-3.963161E-05
481.1201,-3.963727E-05
481.2202,-3.965045E-05
481.3202,-3.962125E-05
481.4202,-3.960712E-05
481.5202,-3.959112E-05
481.6202,-3.957417E-05
481.7202,-3.959395E-05
481.8202,-3.95704E-05
481.9202,-3.954968E-05
482.0202,-3.952426E-05
482.1202,-3.952991E-05
482.2202,-3.95186E-05
482.3202,-3.950636E-05
482.4202,-3.95026E-05
482.5202,-3.948564E-05
482.6202,-3.949695E-05
482.7202,-3.949883E-05
482.8203,-3.946304E-05
482.9203,-3.945551E-05
483.0203,-3.944703E-05
483.1203,-3.942632E-05
483.2203,-3.944891E-05
483.3203,-3.943196E-05
483.4203,-3.939524E-05
483.5203,-3.940277E-05
483.6203,-3.939806E-05
483.7203,-3.937452E-05
483.8203,-3.936793E-05
483.9203,-3.935003E-05
484.0203,-3.934721E-05
484.1203,-3.934062E-05
484.2203,-3.931802E-05
484.3203,-3.929447E-05
484.4203,-3.930295E-05
484.5204,-3.928976E-05
484.6204,-3.923514E-05
484.7204,-3.928129E-05
484.8204,-3.929918E-05
484.9204,-3.924738E-05
485.0204,-3.922855E-05
485.1204,-3.923703E-05
485.2204,-3.922667E-05
485.3204,-3.921348E-05
485.4204,-3.920972E-05
485.5204,-3.916169E-05
485.6204,-3.916546E-05
485.7204,-3.917487E-05
485.8204,-3.914756E-05
485.9204,-3.912025E-05
486.0204,-3.914097E-05
486.1205,-3.912214E-05
486.2205,-3.914003E-05
486.3205,-3.912684E-05
486.4205,-3.909577E-05
486.5205,-3.908823E-05
486.6205,-3.908918E-05
486.7205,-3.905621E-05
486.8205,-3.904397E-05
486.9205,-3.905245E-05
487.0205,-3.903738E-05
487.1205,-3.901761E-05
487.2205,-3.903173E-05
487.3205,-3.902231E-05
487.4205,-3.899783E-05
487.5205,-3.89724E-05
487.6205,-3.89611E-05
487.7206,-3.896487E-05
487.8206,-3.895922E-05
487.9206,-3.895827E-05
488.0206,-3.891401E-05
488.1206,-3.893944E-05
488.2206,-3.88933E-05
488.3206,-3.890742E-05
488.4206,-3.892155E-05
488.5206,-3.889518E-05
488.6206,-3.886599E-05
488.7206,-3.887446E-05
488.8206,-3.887634E-05
488.9206,-3.885563E-05
489.0206,-3.884621E-05
489.1206,-3.88302E-05
489.2206,-3.879536E-05
489.3206,-3.883585E-05
489.4207,-3.881607E-05
489.5207,-3.879536E-05
489.6207,-3.878688E-05
489.7207,-3.875957E-05
489.8207,-3.874827E-05
489.9207,-3.878405E-05
490.0207,-3.874544E-05
490.1207,-3.870589E-05
490.2207,-3.873132E-05
490.3207,-3.872849E-05
490.4207,-3.869742E-05
490.5207,-3.871436E-05
490.6207,-3.867952E-05
490.7207,-3.867481E-05
490.8207,-3.869553E-05
490.9207,-3.86654E-05
491.0208,-3.865598E-05
491.1208,-3.865315E-05
491.2208,-3.864185E-05
491.3208,-3.863997E-05
491.4208,-3.862019E-05
491.5208,-3.861172E-05
491.6208,-3.858535E-05
491.7208,-3.861925E-05
491.8208,-3.859476E-05
491.9208,-3.855804E-05
492.0208,-3.856369E-05
492.1208,-3.855522E-05
492.2208,-3.853544E-05
492.3208,-3.852979E-05
492.4208,-3.851001E-05
492.5208,-3.848458E-05
492.6208,-3.851095E-05
492.7209,-3.850154E-05
492.8209,-3.847988E-05
492.9209,-3.845822E-05
493.0209,-3.846386E-05
493.1209,-3.843656E-05
493.2209,-3.844503E-05
493.3209,-3.843656E-05
493.4209,-3.84036E-05
493.5209,-3.840736E-05
493.6209,-3.840171E-05
493.7209,-3.838005E-05
493.8209,-3.837534E-05
493.9209,-3.837157E-05
494.0209,-3.834991E-05
494.1209,-3.834898E-05
494.2209,-3.834144E-05
494.321,-3.834803E-05
494.421,-3.832261E-05
494.521,-3.831884E-05
494.621,-3.830189E-05
494.721,-3.828776E-05
494.821,-3.830754E-05
494.921,-3.827646E-05
495.021,-3.825668E-05
495.121,-3.82548E-05
495.221,-3.824915E-05
495.321,-3.824067E-05
495.421,-3.82435E-05
495.521,-3.819736E-05
495.621,-3.821996E-05
495.721,-3.821148E-05
495.821,-3.820866E-05
495.9211,-3.820395E-05
496.0211,-3.818417E-05
496.1211,-3.815403E-05
496.2211,-3.816063E-05
496.3211,-3.816628E-05
496.4211,-3.813049E-05
496.5211,-3.810601E-05
496.6211,-3.812296E-05
496.7211,-3.809188E-05
496.8211,-3.809565E-05
496.9211,-3.811072E-05
497.0211,-3.806834E-05
497.1211,-3.804762E-05
497.2211,-3.80448E-05
497.3211,-3.804103E-05
497.4211,-3.804197E-05
497.5211,-3.802596E-05
497.6212,-3.799206E-05
497.7212,-3.800242E-05
497.8212,-3.800713E-05
497.9212,-3.799771E-05
498.0212,-3.796192E-05
498.1212,-3.795062E-05
498.2212,-3.795157E-05
498.3212,-3.797134E-05
498.4212,-3.794968E-05
498.5212,-3.79073E-05
498.6212,-3.793555E-05
498.7212,-3.793744E-05
498.8212,-3.791295E-05
498.9212,-3.788941E-05
499.0212,-3.790825E-05
499.1212,-3.790919E-05
499.2213,-3.789977E-05
499.3213,-3.789788E-05
499.4213,-3.785833E-05
499.5213,-3.785739E-05
499.6213,-3.786681E-05
499.7213,-3.783667E-05
499.8213,-3.783667E-05
499.9213,-3.780089E-05
500.0213,-3.777734E-05
500.1213,-3.779241E-05
500.2213,-3.778299E-05
500.3213,-3.775098E-05
500.4213,-3.77651E-05
500.5213,-3.776039E-05
500.6213,-3.773308E-05
500.7213,-3.772649E-05
500.8214,-3.77246E-05
500.9214,-3.771425E-05
501.0214,-3.772178E-05
501.1214,-3.769918E-05
501.2214,-3.766528E-05
501.3214,-3.766151E-05
501.4214,-3.765209E-05
501.5214,-3.765774E-05
501.6214,-3.766151E-05
501.7214,-3.765021E-05
501.8214,-3.762478E-05
501.9214,-3.763043E-05
502.0214,-3.762855E-05
502.1214,-3.761819E-05
502.2214,-3.760877E-05
502.3214,-3.760218E-05
502.4214,-3.758052E-05
502.5215,-3.758994E-05
502.6215,-3.757581E-05
502.7215,-3.756263E-05
502.8215,-3.753532E-05
502.9215,-3.75485E-05
503.0215,-3.753438E-05
503.1215,-3.751931E-05
503.2215,-3.752214E-05
503.3215,-3.749482E-05
503.4215,-3.748352E-05
503.5215,-3.749106E-05
503.6215,-3.748164E-05
503.7215,-3.748635E-05
503.8215,-3.747034E-05
503.9215,-3.745057E-05
504.0215,-3.742608E-05
504.1216,-3.745057E-05
504.2216,-3.743267E-05
504.3216,-3.740253E-05
504.4216,-3.740819E-05
504.5216,-3.739312E-05
504.6216,-3.737899E-05
504.7216,-3.738181E-05
504.8216,-3.736769E-05
504.9216,-3.73498E-05
505.0216,-3.734603E-05
505.1216,-3.73385E-05
505.2216,-3.733567E-05
505.3216,-3.731307E-05
505.4216,-3.730365E-05
505.5216,-3.729235E-05
505.6216,-3.72867E-05
505.7216,-3.727728E-05
505.8217,-3.726693E-05
505.9217,-3.726599E-05
506.0217,-3.724338E-05
506.1217,-3.725092E-05
506.2217,-3.723867E-05
506.3217,-3.722361E-05
506.4217,-3.72189E-05
506.5217,-3.72189E-05
506.6217,-3.720195E-05
506.7217,-3.720948E-05
506.8217,-3.719912E-05
506.9217,-3.717181E-05
507.0217,-3.715392E-05
507.1217,-3.717369E-05
507.2217,-3.715109E-05
507.3217,-3.715957E-05
507.4218,-3.714167E-05
507.5218,-3.711531E-05
507.6218,-3.71106E-05
507.7218,-3.710872E-05
507.8218,-3.709365E-05
507.9218,-3.70927E-05
508.0218,-3.711437E-05
508.1218,-3.707763E-05
508.2218,-3.706257E-05
508.3218,-3.707858E-05
508.4218,-3.704374E-05
508.5218,-3.701737E-05
508.6218,-3.703149E-05
508.7218,-3.703055E-05
508.8218,-3.701454E-05
508.9218,-3.700795E-05
509.0219,-3.698158E-05
509.1219,-3.695992E-05
509.2219,-3.698252E-05
509.3219,-3.697876E-05
509.4219,-3.695615E-05
509.5219,-3.697405E-05
509.6219,-3.692978E-05
509.7219,-3.692507E-05
509.8219,-3.694108E-05
509.9219,-3.692131E-05
510.0219,-3.687799E-05
510.1219,-3.690436E-05
510.2219,-3.690812E-05
510.3219,-3.689306E-05
510.4219,-3.688741E-05
510.5219,-3.689023E-05
510.6219,-3.684409E-05
510.722,-3.688741E-05
510.822,-3.685822E-05
510.922,-3.682713E-05
511.022,-3.684691E-05
511.122,-3.680453E-05
511.222,-3.680548E-05
511.322,-3.680265E-05
511.422,-3.678758E-05
511.522,-3.677346E-05
511.622,-3.678758E-05
511.722,-3.676498E-05
511.822,-3.673861E-05
511.922,-3.674332E-05
512.022,-3.674803E-05
512.122,-3.670471E-05
512.222,-3.674049E-05
512.322,-3.671884E-05
512.4219,-3.668023E-05
512.5219,-3.67E-05
512.6219,-3.667646E-05
512.7219,-3.668682E-05
512.8218,-3.670565E-05
512.9218,-3.666704E-05
513.0218,-3.663691E-05
513.1218,-3.662561E-05
513.2217,-3.664161E-05
513.3217,-3.661431E-05
513.4217,-3.664255E-05
513.5217,-3.658699E-05
513.6216,-3.660583E-05
513.7216,-3.659076E-05
513.8216,-3.656157E-05
513.9216,-3.654933E-05
514.0215,-3.657852E-05
514.1215,-3.657664E-05
514.2215,-3.654838E-05
514.3215,-3.652955E-05
514.4214,-3.651542E-05
514.5214,-3.649471E-05
514.6214,-3.651919E-05
514.7214,-3.651542E-05
514.8214,-3.649377E-05
514.9213,-3.649565E-05
515.0213,-3.648999E-05
515.1213,-3.645044E-05
515.2213,-3.646174E-05
515.3212,-3.643161E-05
515.4212,-3.641466E-05
515.5212,-3.644573E-05
515.6212,-3.643067E-05
515.7211,-3.640242E-05
515.8211,-3.640053E-05
515.9211,-3.638923E-05
516.0211,-3.638452E-05
516.121,-3.639111E-05
516.221,-3.636475E-05
516.321,-3.635721E-05
516.421,-3.637039E-05
516.5209,-3.632331E-05
516.6209,-3.632519E-05
516.7209,-3.633932E-05
516.8209,-3.632425E-05
516.9208,-3.631107E-05
517.0208,-3.630636E-05
517.1208,-3.628846E-05
517.2208,-3.627246E-05
517.3207,-3.62734E-05
517.4207,-3.628564E-05
517.5207,-3.624044E-05
517.6207,-3.626398E-05
517.7206,-3.623855E-05
517.8206,-3.62216E-05
517.9206,-3.622914E-05
518.0206,-3.621877E-05
518.1205,-3.6199E-05
518.2205,-3.620653E-05
518.3205,-3.619053E-05
518.4205,-3.619806E-05
518.5204,-3.618205E-05
518.6204,-3.618299E-05
518.7204,-3.616698E-05
518.8204,-3.617734E-05
518.9203,-3.616321E-05
519.0203,-3.61538E-05
519.1203,-3.614909E-05
519.2203,-3.613214E-05
519.3203,-3.612649E-05
519.4202,-3.611519E-05
519.5202,-3.611801E-05
519.6202,-3.609824E-05
519.7202,-3.610765E-05
519.8201,-3.608128E-05
519.9201,-3.60455E-05
520.0201,-3.605586E-05
520.1201,-3.605774E-05
520.22,-3.604926E-05
520.32,-3.604362E-05
520.42,-3.60342E-05
520.52,-3.602384E-05
520.6199,-3.603891E-05
520.7199,-3.600595E-05
520.8199,-3.599935E-05
520.9199,-3.598429E-05
521.0198,-3.599841E-05
521.1198,-3.597769E-05
521.2198,-3.597864E-05
521.3198,-3.595886E-05
521.4197,-3.593437E-05
521.5197,-3.593531E-05
521.6197,-3.597299E-05
521.7197,-3.593814E-05
521.8196,-3.592213E-05
521.9196,-3.591837E-05
522.0196,-3.590236E-05
522.1196,-3.58967E-05
522.2195,-3.591177E-05
522.3195,-3.58854E-05
522.4195,-3.585621E-05
522.5195,-3.587976E-05
522.6194,-3.586563E-05
522.7194,-3.586845E-05
522.8194,-3.586657E-05
522.9194,-3.58402E-05
523.0193,-3.581195E-05
523.1193,-3.58289E-05
523.2193,-3.582796E-05
523.3193,-3.582231E-05
523.4193,-3.579971E-05
523.5192,-3.577334E-05
523.6192,-3.578276E-05
523.7192,-3.578464E-05
523.8192,-3.574885E-05
523.9191,-3.575827E-05
524.0191,-3.574038E-05
524.1191,-3.572908E-05
524.2191,-3.574038E-05
524.319,-3.572343E-05
524.419,-3.5698E-05
524.519,-3.570177E-05
524.619,-3.571872E-05
524.7189,-3.572719E-05
524.8189,-3.569706E-05
524.9189,-3.566504E-05
525.0189,-3.566221E-05
525.1188,-3.566975E-05
525.2188,-3.566786E-05
525.3188,-3.565186E-05
525.4188,-3.564055E-05
525.5187,-3.561889E-05
525.6187,-3.562831E-05
525.7187,-3.563114E-05
525.8187,-3.562361E-05
525.9186,-3.559253E-05
526.0186,-3.558311E-05
526.1186,-3.558688E-05
526.2186,-3.55784E-05
526.3185,-3.558782E-05
526.4185,-3.55671E-05
526.5185,-3.554262E-05
526.6185,-3.55445E-05
526.7184,-3.552754E-05
526.8184,-3.551342E-05
526.9184,-3.551342E-05
527.0184,-3.552096E-05
527.1183,-3.550871E-05
527.2183,-3.552284E-05
527.3183,-3.547669E-05
527.4183,-3.54993E-05
527.5182,-3.546728E-05
527.6182,-3.546916E-05
527.7182,-3.546162E-05
527.8182,-3.545409E-05
527.9182,-3.545503E-05
528.0181,-3.541642E-05
528.1181,-3.541736E-05
528.2181,-3.544091E-05
528.3181,-3.542678E-05
528.418,-3.541077E-05
528.518,-3.541736E-05
528.618,-3.538535E-05
528.718,-3.539853E-05
528.8179,-3.539382E-05
528.9179,-3.536934E-05
529.0179,-3.533543E-05
529.1179,-3.535898E-05
529.2178,-3.534297E-05
529.3178,-3.534768E-05
529.4178,-3.533167E-05
529.5178,-3.529023E-05
529.6177,-3.529965E-05
529.7177,-3.5294E-05
529.8177,-3.528176E-05
529.9177,-3.528835E-05
530.0176,-3.52714E-05
530.1176,-3.525068E-05
530.2176,-3.524879E-05
530.3176,-3.52535E-05
530.4175,-3.523561E-05
530.5175,-3.522337E-05
530.6175,-3.521772E-05
530.7175,-3.519983E-05
530.8174,-3.521395E-05
530.9174,-3.521583E-05
531.0174,-3.51744E-05
531.1174,-3.518475E-05
531.2173,-3.518193E-05
531.3173,-3.517158E-05
531.4173,-3.517817E-05
531.5173,-3.51518E-05
531.6172,-3.513296E-05
531.7172,-3.513579E-05
531.8172,-3.514238E-05
531.9172,-3.513579E-05
532.0172,-3.511978E-05
532.1171,-3.509717E-05
532.2171,-3.506798E-05
532.3171,-3.510565E-05
532.4171,-3.508964E-05
532.517,-3.50661E-05
532.617,-3.50708E-05
532.717,-3.505951E-05
532.817,-3.503973E-05
532.9169,-3.506327E-05
533.0169,-3.503973E-05
533.1169,-3.500583E-05
533.2169,-3.502843E-05
533.3168,-3.501054E-05
533.4168,-3.499829E-05
533.5168,-3.501524E-05
533.6168,-3.498228E-05
533.7167,-3.49578E-05
533.8167,-3.497758E-05
533.9167,-3.498511E-05
534.0167,-3.493896E-05
534.1166,-3.494838E-05
534.2166,-3.494461E-05
534.3166,-3.491636E-05
534.4166,-3.494179E-05
534.5165,-3.492766E-05
534.6165,-3.48947E-05
534.7165,-3.490695E-05
534.8165,-3.491919E-05
534.9164,-3.488717E-05
535.0164,-3.486927E-05
535.1164,-3.486457E-05
535.2164,-3.484856E-05
535.3163,-3.486739E-05
535.4163,-3.485515E-05
535.5163,-3.484008E-05
535.6163,-3.486645E-05
535.7162,-3.484856E-05
535.8162,-3.483914E-05
535.9162,-3.482973E-05
536.0162,-3.481277E-05
536.1161,-3.47751E-05
536.2161,-3.477604E-05
536.3161,-3.478923E-05
536.4161,-3.478075E-05
536.5161,-3.47412E-05
536.616,-3.477322E-05
536.716,-3.474497E-05
536.816,-3.473178E-05
536.916,-3.47299E-05
537.0159,-3.471201E-05
537.1159,-3.472519E-05
537.2159,-3.472519E-05
537.3159,-3.470165E-05
537.4158,-3.467622E-05
537.5158,-3.469129E-05
537.6158,-3.46734E-05
537.7158,-3.467716E-05
537.8157,-3.466963E-05
537.9157,-3.465174E-05
538.0157,-3.464326E-05
538.1157,-3.465268E-05
538.2156,-3.462631E-05
538.3156,-3.461877E-05
538.4156,-3.463384E-05
538.5156,-3.459617E-05
538.6155,-3.460371E-05
538.7155,-3.459052E-05
538.8155,-3.458864E-05
538.9155,-3.455945E-05
539.0154,-3.457169E-05
539.1154,-3.453685E-05
539.2154,-3.456321E-05
539.3154,-3.457169E-05
539.4153,-3.452366E-05
539.5153,-3.451613E-05
539.6153,-3.453967E-05
539.7153,-3.450671E-05
539.8152,-3.450577E-05
539.9152,-3.450671E-05
540.0152,-3.447375E-05
540.1152,-3.446716E-05
540.2151,-3.448505E-05
540.3151,-3.446339E-05
540.4151,-3.443419E-05
540.5151,-3.445115E-05
540.6151,-3.443514E-05
540.715,-3.443137E-05
540.815,-3.445115E-05
540.915,-3.439558E-05
541.015,-3.438617E-05
541.1149,-3.442666E-05
541.2149,-3.440218E-05
541.3149,-3.438805E-05
541.4149,-3.43937E-05
541.5148,-3.439276E-05
541.6148,-3.439464E-05
541.7148,-3.44003E-05
541.8148,-3.439653E-05
541.9147,-3.436451E-05
542.0147,-3.436451E-05
542.1147,-3.437958E-05
542.2147,-3.434944E-05
542.3146,-3.432213E-05
542.4146,-3.432967E-05
542.5146,-3.430895E-05
542.6146,-3.433626E-05
542.7145,-3.432967E-05
542.8145,-3.428352E-05
542.9145,-3.427881E-05
543.0145,-3.42807E-05
543.1144,-3.427881E-05
543.2144,-3.427316E-05
543.3144,-3.42289E-05
543.4144,-3.424397E-05
543.5143,-3.427316E-05
543.6143,-3.422607E-05
543.7143,-3.421666E-05
543.8143,-3.420818E-05
543.9142,-3.42176E-05
544.0142,-3.421195E-05
544.1142,-3.418841E-05
544.2142,-3.417428E-05
544.3141,-3.416957E-05
544.4141,-3.417993E-05
544.5141,-3.418841E-05
544.6141,-3.414132E-05
544.7141,-3.414791E-05
544.814,-3.41432E-05
544.914,-3.413285E-05
545.014,-3.415262E-05
545.114,-3.412908E-05
545.2139,-3.409423E-05
545.3139,-3.411589E-05
545.4139,-3.411118E-05
545.5139,-3.408858E-05
545.6138,-3.410082E-05
545.7138,-3.410177E-05
545.8138,-3.409235E-05
545.9138,-3.410177E-05
546.0137,-3.406974E-05
546.1137,-3.404903E-05
546.2137,-3.405468E-05
546.3137,-3.403961E-05
546.4136,-3.403961E-05
546.5136,-3.404149E-05
546.6136,-3.403019E-05
546.7136,-3.399912E-05
546.8135,-3.40123E-05
546.9135,-3.400194E-05
547.0135,-3.400006E-05
547.1135,-3.398593E-05
547.2134,-3.398122E-05
547.3134,-3.396522E-05
547.4134,-3.398311E-05
547.5134,-3.397087E-05
547.6133,-3.396333E-05
547.7133,-3.395674E-05
547.8133,-3.395956E-05
547.9133,-3.39219E-05
548.0132,-3.392754E-05
548.1132,-3.395297E-05
548.2132,-3.392943E-05
548.3132,-3.390871E-05
548.4131,-3.394262E-05
548.5131,-3.394167E-05
548.6131,-3.393602E-05
548.7131,-3.39379E-05
548.813,-3.389459E-05
548.913,-3.389176E-05
549.013,-3.389647E-05
549.113,-3.387858E-05
549.213,-3.387104E-05
549.3129,-3.387763E-05
549.4129,-3.384938E-05
549.5129,-3.384562E-05
549.6129,-3.38409E-05
549.7128,-3.381924E-05
549.8128,-3.381548E-05
549.9128,-3.381265E-05
550.0128,-3.381171E-05
550.1127,-3.380512E-05
550.2127,-3.378723E-05
550.3127,-3.377593E-05
550.4127,-3.375992E-05
550.5126,-3.378064E-05
550.6126,-3.375427E-05
550.7126,-3.373543E-05
550.8126,-3.375333E-05
550.9125,-3.371378E-05
551.0125,-3.372696E-05
551.1125,-3.374108E-05
551.2125,-3.370624E-05
551.3124,-3.369776E-05
551.4124,-3.371942E-05
551.5124,-3.372413E-05
551.6124,-3.369494E-05
551.7123,-3.368835E-05
551.8123,-3.369776E-05
551.9123,-3.367516E-05
552.0123,-3.368835E-05
552.1122,-3.36714E-05
552.2122,-3.364597E-05
552.3122,-3.36648E-05
552.4122,-3.364126E-05
552.5121,-3.362336E-05
552.6121,-3.362619E-05
552.7121,-3.362713E-05
552.8121,-3.361489E-05
552.912,-3.361018E-05
553.012,-3.359793E-05
553.112,-3.357534E-05
553.212,-3.359229E-05
553.312,-3.358099E-05
553.4119,-3.356686E-05
553.5119,-3.357534E-05
553.6119,-3.354897E-05
553.7119,-3.355556E-05
553.8118,-3.354332E-05
553.9118,-3.353767E-05
554.0118,-3.352636E-05
554.1118,-3.352166E-05
554.2117,-3.350659E-05
554.3117,-3.351318E-05
554.4117,-3.351413E-05
554.5117,-3.349529E-05
554.6116,-3.350094E-05
554.7116,-3.349435E-05
554.8116,-3.348588E-05
554.9116,-3.345103E-05
555.0115,-3.348116E-05
555.1115,-3.345385E-05
555.2115,-3.344726E-05
555.3115,-3.342372E-05
555.4114,-3.342466E-05
555.5114,-3.344067E-05
555.6114,-3.345197E-05
555.7114,-3.341054E-05
555.8113,-3.341525E-05
555.9113,-3.340206E-05
556.0113,-3.338134E-05
556.1113,-3.337663E-05
556.2112,-3.338511E-05
556.3112,-3.336156E-05
556.4112,-3.334838E-05
556.5112,-3.335874E-05
556.6111,-3.33352E-05
556.7111,-3.333614E-05
556.8111,-3.333802E-05
556.9111,-3.329376E-05
557.011,-3.331259E-05
557.111,-3.334744E-05
557.211,-3.332578E-05
557.311,-3.330412E-05
557.4109,-3.331542E-05
557.5109,-3.329376E-05
557.6109,-3.32834E-05
557.7109,-3.328434E-05
557.8109,-3.328246E-05
557.9108,-3.326174E-05
558.0108,-3.327304E-05
558.1108,-3.324102E-05
558.2108,-3.322784E-05
558.3107,-3.324667E-05
558.4107,-3.324385E-05
558.5107,-3.322219E-05
558.6107,-3.319394E-05
558.7106,-3.322313E-05
558.8106,-3.32156E-05
558.9106,-3.320995E-05
559.0106,-3.318735E-05
559.1105,-3.316568E-05
559.2105,-3.319864E-05
559.3105,-3.316945E-05
559.4105,-3.314497E-05
559.5104,-3.315438E-05
559.6104,-3.315627E-05
559.7104,-3.311106E-05
559.8104,-3.312802E-05
559.9103,-3.314591E-05
560.0103,-3.311483E-05
560.1103,-3.313272E-05
560.2103,-3.309976E-05
560.3102,-3.308281E-05
560.4102,-3.310259E-05
560.5102,-3.310259E-05
560.6102,-3.306492E-05
560.7101,-3.305456E-05
560.8101,-3.305927E-05
560.9101,-3.305739E-05
561.0101,-3.305268E-05
561.11,-3.30442E-05
561.21,-3.301124E-05
561.31,-3.301689E-05
561.41,-3.303573E-05
561.5099,-3.299335E-05
561.6099,-3.300747E-05
561.7099,-3.298864E-05
561.8099,-3.296321E-05
561.9099,-3.297545E-05
562.0098,-3.299052E-05
562.1098,-3.296509E-05
562.2098,-3.297734E-05
562.3098,-3.295379E-05
562.4097,-3.293401E-05
562.5097,-3.295003E-05
562.6097,-3.294909E-05
562.7097,-3.290294E-05
562.8096,-3.293308E-05
562.9096,-3.290388E-05
563.0096,-3.291236E-05
563.1096,-3.293025E-05
563.2095,-3.289823E-05
563.3095,-3.28794E-05
563.4095,-3.28794E-05
563.5095,-3.288128E-05
563.6094,-3.288599E-05
563.7094,-3.287187E-05
563.8094,-3.28615E-05
563.9094,-3.286244E-05
564.0093,-3.28389E-05
564.1093,-3.284173E-05
564.2093,-3.281442E-05
564.3093,-3.284079E-05
564.4092,-3.284173E-05
564.5092,-3.278805E-05
564.6092,-3.279841E-05
564.7092,-3.281913E-05
564.8091,-3.284361E-05
564.9091,-3.281065E-05
565.0091,-3.277863E-05
565.1091,-3.279558E-05
565.209,-3.281724E-05
565.309,-3.280971E-05
565.409,-3.274944E-05
565.509,-3.276639E-05
565.6089,-3.276074E-05
565.7089,-3.274755E-05
565.8089,-3.273437E-05
565.9089,-3.272119E-05
566.0089,-3.272778E-05
566.1088,-3.270894E-05
566.2088,-3.272119E-05
566.3088,-3.269858E-05
566.4088,-3.269953E-05
566.5087,-3.272024E-05
566.6087,-3.268917E-05
566.7087,-3.270518E-05
566.8087,-3.270706E-05
566.9086,-3.266751E-05
567.0086,-3.26628E-05
567.1086,-3.266374E-05
567.2086,-3.263549E-05
567.3085,-3.264773E-05
567.4085,-3.263832E-05
567.5085,-3.259594E-05
567.6085,-3.261194E-05
567.7084,-3.261383E-05
567.8084,-3.260724E-05
567.9084,-3.257805E-05
568.0084,-3.257522E-05
568.1083,-3.259123E-05
568.2083,-3.257051E-05
568.3083,-3.256392E-05
568.4083,-3.254791E-05
568.5082,-3.255733E-05
568.6082,-3.254885E-05
568.7082,-3.251306E-05
568.8082,-3.253661E-05
568.9081,-3.25545E-05
569.0081,-3.253755E-05
569.1081,-3.250082E-05
569.2081,-3.250365E-05
569.308,-3.252248E-05
569.408,-3.252531E-05
569.508,-3.25206E-05
569.608,-3.250459E-05
569.7079,-3.248105E-05
569.8079,-3.250553E-05
569.9079,-3.249423E-05
570.0079,-3.247069E-05
570.1078,-3.247163E-05
570.2078,-3.246786E-05
570.3078,-3.243679E-05
570.4078,-3.245656E-05
570.5078,-3.245091E-05
570.6077,-3.24349E-05
570.7077,-3.241701E-05
570.8077,-3.24236E-05
570.9077,-3.238216E-05
571.0076,-3.241324E-05
571.1076,-3.23831E-05
571.2076,-3.23718E-05
571.3076,-3.23897E-05
571.4075,-3.237086E-05
571.5075,-3.237369E-05
571.6075,-3.235956E-05
571.7075,-3.233696E-05
571.8074,-3.233508E-05
571.9074,-3.234167E-05
572.0074,-3.234449E-05
572.1074,-3.234261E-05
572.2073,-3.234073E-05
572.3073,-3.231059E-05
572.4073,-3.228893E-05
572.5073,-3.232095E-05
572.6072,-3.229552E-05
572.7072,-3.230117E-05
572.8072,-3.228046E-05
572.9072,-3.227104E-05
573.0071,-3.226916E-05
573.1071,-3.230024E-05
573.2071,-3.225503E-05
573.3071,-3.22701E-05
573.407,-3.226445E-05
573.507,-3.223243E-05
573.607,-3.22249E-05
573.707,-3.224279E-05
573.8069,-3.224467E-05
573.9069,-3.222207E-05
574.0069,-3.22136E-05
574.1069,-3.22183E-05
574.2068,-3.216933E-05
574.3068,-3.219099E-05
574.4068,-3.218911E-05
574.5068,-3.217216E-05
574.6068,-3.218629E-05
574.7067,-3.215521E-05
574.8067,-3.212413E-05
574.9067,-3.216462E-05
575.0067,-3.214485E-05
575.1066,-3.21326E-05
575.2066,-3.212978E-05
575.3066,-3.211001E-05
575.4066,-3.211001E-05
575.5065,-3.214956E-05
575.6065,-3.210529E-05
575.7065,-3.209023E-05
575.8065,-3.210247E-05
575.9064,-3.210435E-05
576.0064,-3.209965E-05
576.1064,-3.210906E-05
576.2064,-3.208646E-05
576.3063,-3.206292E-05
576.4063,-3.208458E-05
576.5063,-3.206386E-05
576.6063,-3.20535E-05
576.7062,-3.205633E-05
576.8062,-3.204126E-05
576.9062,-3.203184E-05
577.0062,-3.205256E-05
577.1061,-3.201395E-05
577.2061,-3.198852E-05
577.3061,-3.201018E-05
577.4061,-3.201866E-05
577.506,-3.200547E-05
577.606,-3.198664E-05
577.706,-3.199983E-05
577.806,-3.198287E-05
577.9059,-3.201583E-05
578.0059,-3.198852E-05
578.1059,-3.19744E-05
578.2059,-3.196874E-05
578.3058,-3.195273E-05
578.4058,-3.196403E-05
578.5058,-3.195839E-05
578.6058,-3.191977E-05
578.7057,-3.19226E-05
578.8057,-3.194238E-05
578.9057,-3.194332E-05
579.0057,-3.193014E-05
579.1057,-3.190188E-05
579.2056,-3.189811E-05
579.3056,-3.190282E-05
579.4056,-3.19113E-05
579.5056,-3.188304E-05
579.6055,-3.186798E-05
579.7055,-3.187457E-05
579.8055,-3.18774E-05
579.9055,-3.185385E-05
580.0054,-3.185103E-05
580.1054,-3.182937E-05
580.2054,-3.181713E-05
580.3054,-3.183973E-05
580.4053,-3.183784E-05
580.5053,-3.181336E-05
580.6053,-3.181618E-05
580.7053,-3.179923E-05
580.8052,-3.180394E-05
580.9052,-3.180865E-05
581.0052,-3.17917E-05
581.1052,-3.177475E-05
581.2051,-3.178982E-05
581.3051,-3.177098E-05
581.4051,-3.177663E-05
581.5051,-3.178416E-05
581.605,-3.176251E-05
581.705,-3.175121E-05
581.805,-3.175026E-05
581.905,-3.174556E-05
582.0049,-3.173802E-05
582.1049,-3.172578E-05
582.2049,-3.172201E-05
582.3049,-3.170129E-05
582.4048,-3.172954E-05
582.5048,-3.167398E-05
582.6048,-3.16834E-05
582.7048,-3.170318E-05
582.8047,-3.171353E-05
582.9047,-3.169282E-05
583.0047,-3.166833E-05
583.1047,-3.16495E-05
583.2047,-3.164008E-05
583.3046,-3.167492E-05
583.4046,-3.165609E-05
583.5046,-3.16316E-05
583.6046,-3.16495E-05
583.7045,-3.162689E-05
583.8045,-3.161936E-05
583.9045,-3.163349E-05
584.0045,-3.161748E-05
584.1044,-3.160994E-05
584.2044,-3.162689E-05
584.3044,-3.161277E-05
584.4044,-3.159394E-05
584.5043,-3.158828E-05
584.6043,-3.159206E-05
584.7043,-3.157416E-05
584.8043,-3.159394E-05
584.9042,-3.156945E-05
585.0042,-3.154497E-05
585.1042,-3.156097E-05
585.2042,-3.152895E-05
585.3041,-3.154402E-05
585.4041,-3.153555E-05
585.5041,-3.152425E-05
585.6041,-3.150353E-05
585.704,-3.150636E-05
585.804,-3.149976E-05
585.904,-3.150447E-05
586.004,-3.149788E-05
586.1039,-3.148752E-05
586.2039,-3.147528E-05
586.3039,-3.149411E-05
586.4039,-3.148846E-05
586.5038,-3.145173E-05
586.6038,-3.145644E-05
586.7038,-3.145644E-05
586.8038,-3.143478E-05
586.9037,-3.144232E-05
587.0037,-3.14216E-05
587.1037,-3.140842E-05
587.2037,-3.143007E-05
587.3036,-3.143384E-05
587.4036,-3.141783E-05
587.5036,-3.140559E-05
587.6036,-3.139994E-05
587.7036,-3.139429E-05
587.8035,-3.140182E-05
587.9035,-3.139052E-05
588.0035,-3.137075E-05
588.1035,-3.137263E-05
588.2034,-3.135944E-05
588.3034,-3.135285E-05
588.4034,-3.136509E-05
588.5034,-3.133213E-05
588.6033,-3.133307E-05
588.7033,-3.137357E-05
588.8033,-3.135474E-05
588.9033,-3.130953E-05
589.0032,-3.13359E-05
589.1032,-3.132742E-05
589.2032,-3.13246E-05
589.3032,-3.133496E-05
589.4031,-3.128975E-05
589.5031,-3.127563E-05
589.6031,-3.128693E-05
589.7031,-3.130953E-05
589.803,-3.128693E-05
589.903,-3.126904E-05
590.003,-3.126244E-05
590.103,-3.124644E-05
590.2029,-3.127092E-05
590.3029,-3.12681E-05
590.4029,-3.124738E-05
590.5029,-3.123608E-05
590.6028,-3.122949E-05
590.7028,-3.122289E-05
590.8028,-3.12276E-05
590.9028,-3.12163E-05
591.0027,-3.119935E-05
591.1027,-3.120217E-05
591.2027,-3.119841E-05
591.3027,-3.118428E-05
591.4026,-3.120406E-05
591.5026,-3.11937E-05
591.6026,-3.118052E-05
591.7026,-3.117957E-05
591.8026,-3.115697E-05
591.9025,-3.11532E-05
592.0025,-3.116262E-05
592.1025,-3.116074E-05
592.2025,-3.113908E-05
592.3024,-3.114661E-05
592.4024,-3.112872E-05
592.5024,-3.113437E-05
592.6024,-3.11419E-05
592.7023,-3.111836E-05
592.8023,-3.109011E-05
592.9023,-3.109858E-05
593.0023,-3.110423E-05
593.1022,-3.109294E-05
593.2022,-3.111365E-05
593.3022,-3.108917E-05
593.4022,-3.105809E-05
593.5021,-3.109105E-05
593.6021,-3.108257E-05
593.7021,-3.105903E-05
593.8021,-3.106091E-05
593.902,-3.105997E-05
594.002,-3.105621E-05
594.102,-3.104396E-05
594.202,-3.102136E-05
594.3019,-3.102607E-05
594.4019,-3.105432E-05
594.5019,-3.100347E-05
594.6019,-3.100347E-05
594.7018,-3.100818E-05
594.8018,-3.101006E-05
594.9018,-3.099876E-05
595.0018,-3.099029E-05
595.1017,-3.099499E-05
595.2017,-3.098557E-05
595.3017,-3.098934E-05
595.4017,-3.097616E-05
595.5016,-3.094602E-05
595.6016,-3.094885E-05
595.7016,-3.092625E-05
595.8016,-3.093096E-05
595.9016,-3.093943E-05
596.0015,-3.092907E-05
596.1015,-3.090647E-05
596.2015,-3.092625E-05
596.3015,-3.091777E-05
596.4014,-3.08914E-05
596.5014,-3.090176E-05
596.6014,-3.090082E-05
596.7014,-3.089046E-05
596.8013,-3.089706E-05
596.9013,-3.088481E-05
597.0013,-3.085185E-05
597.1013,-3.085468E-05
597.2012,-3.08575E-05
597.3012,-3.085844E-05
597.4012,-3.086786E-05
597.5012,-3.084714E-05
597.6011,-3.082642E-05
597.7011,-3.08349E-05
597.8011,-3.083207E-05
597.9011,-3.079911E-05
598.001,-3.083113E-05
598.101,-3.081889E-05
598.201,-3.080947E-05
598.301,-3.079629E-05
598.4009,-3.079535E-05
598.5009,-3.077275E-05
598.6009,-3.079535E-05
598.7009,-3.07784E-05
598.8008,-3.076709E-05
598.9008,-3.076615E-05
599.0008,-3.075485E-05
599.1008,-3.074826E-05
599.2007,-3.075768E-05
599.3007,-3.075391E-05
599.4007,-3.073037E-05
599.5007,-3.073884E-05
599.6006,-3.072001E-05
599.7006,-3.070965E-05
599.8006,-3.071624E-05
599.9006,-3.070777E-05
600.0005,-3.069082E-05
