EXPID. 0915
[电化学]: i-t : @ 0(V) X 600(sec)
起始电位 (V),0
静置时间 (秒),0
运行时间 (秒),600
记录间隔,0.1
电解液 信息:
HNO3,0.4
0.1,-0.004880552
0.2,0.002522297
0.3,-4.658347E-05
0.4,-0.002867067
0.5,-0.003669125
0.6,-0.003684949
0.7,-0.003511766
0.8000001,-0.003305747
0.9000001,-0.003111197
1,-0.002950887
1.1,-0.002804153
1.2,-0.002676222
1.3,-0.00256249
1.4,-0.002456458
1.5,-0.002361092
1.6,-0.002274605
1.7,-0.002190538
1.8,-0.002110457
1.9,-0.002032394
2,-0.001959724
2.1,-0.001885235
2.2,-0.001815405
2.3,-0.00175336
2.4,-0.001694397
2.5,-0.001638139
2.6,-0.001587062
2.7,-0.00154115
2.799999,-0.001496352
2.899999,-0.001455243
2.999999,-0.001417922
3.099999,-0.001382912
3.199999,-0.001350444
3.299999,-0.00132098
3.399999,-0.001292724
3.499999,-0.001266426
3.599999,-0.001241741
3.699999,-0.001218779
3.799999,-0.001197632
3.899998,-0.001176753
3.999998,-0.001157402
4.099998,-0.001139753
4.199998,-0.001122278
4.299998,-0.001106234
4.399998,-0.001090852
4.499998,-0.001075927
4.599998,-0.001062291
4.699998,-0.001049346
4.799998,-0.001036247
4.899998,-0.001023958
4.999998,-0.001011912
5.099998,-0.001000678
5.199997,-0.0009899628
5.299997,-0.00097952
5.399997,-0.0009696215
5.499997,-0.000960482
5.599997,-0.000950511
5.699997,-0.0009414835
5.799997,-0.0009330588
5.899997,-0.0009245992
5.999997,-0.0009165907
6.099997,-0.0009090248
6.199996,-0.0009012264
6.299996,-0.0008940833
6.399996,-0.000886849
6.499996,-0.000879834
6.599996,-0.0008732211
6.699996,-0.00086734
6.799996,-0.0008606208
6.899996,-0.0008547802
6.999996,-0.0008485892
7.099996,-0.0008426808
7.199996,-0.000837215
7.299995,-0.0008316635
7.399995,-0.000826435
7.499995,-0.0008218487
7.599995,-0.0008166363
7.699995,-0.0008119332
7.799995,-0.0008073281
7.899995,-0.0008025866
7.999995,-0.0007980333
8.099995,-0.0007935121
8.199995,-0.0007889098
8.299995,-0.0007846287
8.399996,-0.0007801753
8.499996,-0.0007758763
8.599997,-0.0007721479
8.699997,-0.0007680731
8.799997,-0.0007639473
8.899998,-0.000760123
8.999998,-0.0007562995
9.099998,-0.0007525015
9.199999,-0.0007490087
9.299999,-0.0007452069
9.4,-0.0007418289
9.5,-0.0007384745
9.6,-0.0007349383
9.700001,-0.0007316893
9.800001,-0.0007284563
9.900002,-0.0007251245
10,-0.0007219885
10.1,-0.0007190164
10.2,-0.0007157486
10.3,-0.0007127822
10.4,-0.0007100671
10.5,-0.0007068577
10.6,-0.0007043047
10.7,-0.0007016151
10.8,-0.0006986627
10.90001,-0.0006961765
11.00001,-0.0006933796
11.10001,-0.0006906382
11.20001,-0.0006882755
11.30001,-0.0006856932
11.40001,-0.0006829424
11.50001,-0.0006807652
11.60001,-0.000678278
11.70001,-0.0006757354
11.80001,-0.000673511
11.90001,-0.0006712405
12.00001,-0.0006690161
12.10001,-0.0006667626
12.20001,-0.0006645721
12.30001,-0.0006623035
12.40001,-0.0006602298
12.50001,-0.0006579291
12.60001,-0.0006558818
12.70001,-0.0006538929
12.80001,-0.0006518352
12.90001,-0.0006498594
13.00001,-0.000648185
13.10001,-0.0006462102
13.20001,-0.0006441629
13.30001,-0.000642189
13.40001,-0.0006404355
13.50002,-0.0006384192
13.60002,-0.0006365499
13.70002,-0.0006347437
13.80002,-0.0006328545
13.90002,-0.0006309862
14.00002,-0.0006292562
14.10002,-0.0006275921
14.20002,-0.0006256663
14.30002,-0.0006240767
14.40002,-0.0006223053
14.50002,-0.0006206619
14.60002,-0.0006190319
14.70002,-0.0006174601
14.80002,-0.0006156811
14.90002,-0.0006141706
15.00002,-0.0006124416
15.10002,-0.0006107597
15.20002,-0.0006092887
15.30002,-0.0006076595
15.40002,-0.000606083
15.50002,-0.0006046921
15.60002,-0.0006031326
15.70002,-0.000601575
15.80002,-0.0006001492
15.90002,-0.0005986913
16.00002,-0.0005972412
16.10003,-0.0005958643
16.20003,-0.000594494
16.30003,-0.0005929891
16.40003,-0.0005916434
16.50003,-0.000590278
16.60003,-0.0005888474
16.70003,-0.0005874753
16.80003,-0.0005861494
16.90003,-0.0005848281
17.00003,-0.0005835615
17.10003,-0.0005821688
17.20003,-0.0005808955
17.30003,-0.0005796722
17.40003,-0.0005783896
17.50003,-0.0005771399
17.60003,-0.000575909
17.70003,-0.0005745925
17.80003,-0.0005734022
17.90003,-0.0005721854
18.00003,-0.0005709395
18.10003,-0.0005697511
18.20003,-0.000568588
18.30003,-0.0005672677
18.40003,-0.0005661611
18.50003,-0.0005649783
18.60003,-0.0005638134
18.70004,-0.0005626777
18.80004,-0.0005614883
18.90004,-0.0005603469
19.00004,-0.0005592235
19.10004,-0.0005580029
19.20004,-0.0005570208
19.30004,-0.0005561788
19.40004,-0.0005549103
19.50004,-0.0005539064
19.60004,-0.0005527933
19.70004,-0.0005516472
19.80004,-0.0005506395
19.90004,-0.0005495942
20.00004,-0.0005484914
20.10004,-0.0005476957
20.20004,-0.0005468688
20.30004,-0.0005456596
20.40004,-0.0005447094
20.50004,-0.0005437423
20.60004,-0.0005426452
20.70004,-0.0005416978
20.80004,-0.0005406977
20.90004,-0.0005396401
21.00004,-0.0005387248
21.10004,-0.0005376277
21.20004,-0.0005367122
21.30005,-0.0005357818
21.40005,-0.0005347525
21.50005,-0.0005336968
21.60005,-0.0005328973
21.70005,-0.0005318784
21.80005,-0.0005309875
21.90005,-0.00053001
22.00005,-0.0005292123
22.10005,-0.0005282405
22.20005,-0.0005272507
22.30005,-0.000526405
22.40005,-0.0005254417
22.50005,-0.0005245216
22.60005,-0.0005236156
22.70005,-0.0005227191
22.80005,-0.0005217708
22.90005,-0.0005209016
23.00005,-0.000520101
23.10005,-0.000519245
23.20005,-0.0005184531
23.30005,-0.0005174745
23.40005,-0.0005165309
23.50005,-0.0005158623
23.60005,-0.0005151174
23.70005,-0.0005143255
23.80005,-0.0005134157
23.90005,-0.0005125728
24.00006,-0.0005117808
24.10006,-0.0005110275
24.20006,-0.0005102958
24.30006,-0.0005092043
24.40006,-0.0005087655
24.50006,-0.0005089698
24.60006,-0.0005090141
24.70006,-0.0005095574
24.80006,-0.0005096375
24.90006,-0.0005080798
25.00006,-0.0005095499
25.10006,-0.0005081062
25.20006,-0.0005058517
25.30006,-0.000505686
25.40006,-0.0005041999
25.50006,-0.0005026884
25.60006,-0.0005024332
25.70006,-0.0005015141
25.80006,-0.0005006421
25.90006,-0.0005000243
26.00006,-0.0005001599
26.10006,-0.0004992954
26.20006,-0.0004995044
26.30006,-0.0005004678
26.40006,-0.0004998002
26.50006,-0.000498397
26.60007,-0.0004976408
26.70007,-0.0004962903
26.80007,-0.0004949644
26.90007,-0.0004942355
27.00007,-0.0004931346
27.10007,-0.0004922079
27.20007,-0.0004915713
27.30007,-0.0004905816
27.40007,-0.0004895588
27.50007,-0.0004896398
27.60007,-0.0004919245
27.70007,-0.0004889213
27.80007,-0.0004925055
27.90007,-0.00049161
28.00007,-0.0004884513
28.10007,-0.0004889251
28.20007,-0.0004893969
28.30007,-0.0004856845
28.40007,-0.0004854632
28.50007,-0.0004848662
28.60007,-0.0004825495
28.70007,-0.0004819967
28.80007,-0.0004816605
28.90007,-0.0004797667
29.00007,-0.0004791348
29.10007,-0.0004788768
29.20008,-0.0004772448
29.30008,-0.0004765328
29.40008,-0.0004762917
29.50008,-0.0004748528
29.60008,-0.0004741267
29.70008,-0.0004738724
29.80008,-0.0004725757
29.90008,-0.0004717855
30.00008,-0.000471584
30.10008,-0.0004707939
30.20008,-0.0004700838
30.30008,-0.0004698606
30.40008,-0.0004694548
30.50008,-0.000469112
30.60008,-0.0004687457
30.70008,-0.0004677144
30.80008,-0.0004666041
30.90008,-0.0004662406
31.00008,-0.0004649787
31.10008,-0.0004641085
31.20008,-0.000463682
31.30008,-0.0004630962
31.40008,-0.0004624803
31.50008,-0.0004620311
31.60008,-0.0004614378
31.70008,-0.0004607052
31.80009,-0.000460109
31.90009,-0.0004592728
32.00008,-0.000458476
32.10008,-0.0004580721
32.20008,-0.0004575334
32.30008,-0.0004568676
32.40008,-0.0004563383
32.50008,-0.0004556188
32.60007,-0.0004551254
32.70007,-0.0004545547
32.80007,-0.000454097
32.90007,-0.0004536798
33.00007,-0.0004528841
33.10007,-0.0004522079
33.20007,-0.0004515251
33.30006,-0.0004508226
33.40006,-0.000450202
33.50006,-0.0004496973
33.60006,-0.0004489749
33.70006,-0.0004483581
33.80006,-0.0004477751
33.90005,-0.0004472628
34.00005,-0.0004466244
34.10005,-0.0004460396
34.20005,-0.0004455414
34.30005,-0.0004449688
34.40005,-0.0004446646
34.50005,-0.0004438058
34.60004,-0.000443398
34.70004,-0.0004430326
34.80004,-0.0004424111
34.90004,-0.0004421408
35.00004,-0.00044204
35.10004,-0.000441443
35.20004,-0.0004410192
35.30003,-0.0004410672
35.40003,-0.0004409222
35.50003,-0.0004403609
35.60003,-0.0004393985
35.70003,-0.0004387383
35.80003,-0.0004379115
35.90002,-0.0004373276
36.00002,-0.0004371336
36.10002,-0.0004365422
36.20002,-0.0004362371
36.30002,-0.0004355496
36.40002,-0.0004346813
36.50002,-0.0004342726
36.60001,-0.0004337283
36.70001,-0.0004330502
36.80001,-0.0004324871
36.90001,-0.0004319758
37.00001,-0.0004313005
37.10001,-0.000430872
37.2,-0.0004302081
37.3,-0.0004295866
37.4,-0.0004292061
37.5,-0.0004286505
37.6,-0.0004282069
37.7,-0.0004276701
37.8,-0.0004270721
37.89999,-0.0004264506
37.99999,-0.0004261294
38.09999,-0.0004254957
38.19999,-0.0004248694
38.29999,-0.0004244466
38.39999,-0.0004240322
38.49998,-0.000423373
38.59998,-0.0004229313
38.69998,-0.0004225245
38.79998,-0.0004220179
38.89998,-0.0004215404
38.99998,-0.0004210281
39.09998,-0.0004205177
39.19997,-0.0004200148
39.29997,-0.0004195628
39.39997,-0.0004190382
39.49997,-0.0004185514
39.59997,-0.0004180814
39.69997,-0.0004175823
39.79996,-0.0004171265
39.89996,-0.0004166717
39.99996,-0.0004161575
40.09996,-0.0004156856
40.19996,-0.000415276
40.29996,-0.0004147383
40.39996,-0.0004142552
40.49995,-0.0004138427
40.59995,-0.0004134067
40.69995,-0.0004128784
40.79995,-0.0004124376
40.89995,-0.0004120308
40.99995,-0.0004115204
41.09995,-0.0004110966
41.19994,-0.0004106399
41.29994,-0.000410185
41.39994,-0.0004097951
41.49994,-0.0004093836
41.59994,-0.0004088779
41.69994,-0.0004084428
41.79993,-0.0004079427
41.89993,-0.000407502
41.99993,-0.0004071103
42.09993,-0.0004066931
42.19993,-0.000406193
42.29993,-0.0004057391
42.39993,-0.0004052889
42.49992,-0.0004048096
42.59992,-0.0004043792
42.69992,-0.0004039282
42.79992,-0.000403462
42.89992,-0.0004030674
42.99992,-0.0004025683
43.09991,-0.0004021276
43.19991,-0.0004017188
43.29991,-0.0004013205
43.39991,-0.0004008506
43.49991,-0.0004004372
43.59991,-0.0004000181
43.69991,-0.0003995585
43.7999,-0.0003991234
43.8999,-0.0003987411
43.9999,-0.0003982957
44.0999,-0.0003978587
44.1999,-0.0003974349
44.2999,-0.000397029
44.39989,-0.0003965808
44.49989,-0.0003963255
44.59989,-0.0003957888
44.69989,-0.0003952944
44.79989,-0.0003949619
44.89989,-0.0003946154
44.99989,-0.0003941332
45.09988,-0.0003936868
45.19988,-0.0003933177
45.29988,-0.0003928807
45.39988,-0.0003924851
45.49988,-0.0003921188
45.59988,-0.0003916809
45.69987,-0.0003912619
45.79987,-0.00039084
45.89987,-0.0003905452
45.99987,-0.0003900894
46.09987,-0.0003896308
46.19987,-0.0003892249
46.29987,-0.000388835
46.39986,-0.0003884442
46.49986,-0.0003880392
46.59986,-0.0003876579
46.69986,-0.0003873009
46.79986,-0.0003868649
46.89986,-0.0003864929
46.99986,-0.0003861068
47.09985,-0.0003857028
47.19985,-0.0003852819
47.29985,-0.0003849466
47.39985,-0.0003845492
47.49985,-0.0003841414
47.59985,-0.0003838909
47.69984,-0.0003834568
47.79984,-0.0003830264
47.89984,-0.0003826808
47.99984,-0.0003823474
48.09984,-0.0003819651
48.19984,-0.0003815941
48.29984,-0.0003811863
48.39983,-0.0003807926
48.49983,-0.0003804348
48.59983,-0.0003800091
48.69983,-0.0003796239
48.79983,-0.0003792388
48.89983,-0.000378879
48.99982,-0.0003784572
49.09982,-0.0003780757
49.19982,-0.0003776859
49.29982,-0.0003772969
49.39982,-0.000376989
49.49982,-0.0003766151
49.59982,-0.0003762309
49.69981,-0.0003757864
49.79981,-0.0003754116
49.89981,-0.0003750829
49.99981,-0.0003747091
50.09981,-0.000374354
50.19981,-0.0003739651
50.2998,-0.0003735827
50.3998,-0.0003733209
50.4998,-0.0003729405
50.5998,-0.0003724696
50.6998,-0.0003721183
50.7998,-0.000371834
50.8998,-0.0003714177
50.99979,-0.0003710589
51.09979,-0.0003706935
51.19979,-0.0003703168
51.29979,-0.0003699467
51.39979,-0.0003695823
51.49979,-0.0003692206
51.59978,-0.0003689428
51.69978,-0.0003685247
51.79978,-0.0003681376
51.89978,-0.0003678137
51.99978,-0.0003674756
52.09978,-0.0003671545
52.19978,-0.0003667684
52.29977,-0.0003664134
52.39977,-0.0003660442
52.49977,-0.0003657099
52.59977,-0.0003653473
52.69977,-0.000364996
52.79977,-0.0003646551
52.89977,-0.0003643152
52.99976,-0.0003639564
53.09976,-0.0003635853
53.19976,-0.0003632425
53.29976,-0.0003629365
53.39976,-0.0003625249
53.49976,-0.0003622057
53.59975,-0.0003618846
53.69975,-0.0003615324
53.79975,-0.0003612084
53.89975,-0.0003608468
53.99975,-0.0003604738
54.09975,-0.0003601838
54.19975,-0.0003599004
54.29974,-0.0003595095
54.39974,-0.0003591657
54.49974,-0.0003588032
54.59974,-0.0003585056
54.69974,-0.0003582617
54.79974,-0.0003578596
54.89973,-0.0003574848
54.99973,-0.0003571637
55.09973,-0.0003568416
55.19973,-0.000356463
55.29973,-0.0003561362
55.39973,-0.0003558358
55.49973,-0.0003555241
55.59972,-0.0003552152
55.69972,-0.0003548753
55.79972,-0.0003545155
55.89972,-0.0003541755
55.99972,-0.0003538648
56.09972,-0.0003535239
56.19971,-0.0003531801
56.29971,-0.000352858
56.39971,-0.0003525501
56.49971,-0.0003522215
56.59971,-0.0003518871
56.69971,-0.0003515763
56.79971,-0.0003512741
56.8997,-0.0003509426
56.9997,-0.0003505866
57.0997,-0.0003502984
57.1997,-0.0003500065
57.2997,-0.0003496966
57.3997,-0.000349304
57.49969,-0.000349028
57.59969,-0.0003487126
57.69969,-0.0003484253
57.79969,-0.0003480703
57.89969,-0.000347703
57.99969,-0.0003474733
58.09969,-0.0003473282
58.19968,-0.0003469252
58.29968,-0.0003465249
58.39968,-0.0003462556
58.49968,-0.0003460333
58.59968,-0.0003456378
58.69968,-0.0003452885
58.79967,-0.0003449296
58.89967,-0.0003445812
58.99967,-0.0003443015
59.09967,-0.0003440227
59.19967,-0.0003436743
59.29967,-0.0003433795
59.39967,-0.000343064
59.49966,-0.0003427354
59.59966,-0.0003424594
59.69966,-0.0003421723
59.79966,-0.0003418313
59.89966,-0.000341545
59.99966,-0.0003412136
60.09966,-0.0003408962
60.19965,-0.000340624
60.29965,-0.0003403151
60.39965,-0.0003399771
60.49965,-0.0003396748
60.59965,-0.0003393678
60.69965,-0.0003390796
60.79964,-0.0003387292
60.89964,-0.0003384637
60.99964,-0.00033812
61.09964,-0.0003378016
61.19964,-0.000337522
61.29964,-0.0003372093
61.39964,-0.0003368985
61.49963,-0.0003366311
61.59963,-0.0003363514
61.69963,-0.0003360265
61.79963,-0.0003357506
61.89963,-0.0003354455
61.99963,-0.0003351328
62.09962,-0.0003348681
62.19962,-0.00033458
62.29962,-0.00033424
62.39962,-0.0003339914
62.49962,-0.0003337183
62.59962,-0.0003333755
62.69962,-0.0003330845
62.79961,-0.0003327907
62.89961,-0.0003324724
62.99961,-0.00033222
63.09961,-0.0003318942
63.19961,-0.0003315655
63.29961,-0.0003313828
63.3996,-0.0003311041
63.4996,-0.0003307848
63.5996,-0.0003304684
63.6996,-0.0003302819
63.7996,-0.000329926
63.8996,-0.0003296416
63.9996,-0.0003293279
64.09959,-0.0003289946
64.19959,-0.0003287196
64.29959,-0.0003284747
64.39959,-0.0003281301
64.49959,-0.0003278457
64.59959,-0.0003275452
64.69958,-0.0003272364
64.79958,-0.0003269482
64.89958,-0.0003266629
64.99958,-0.0003263624
65.09958,-0.0003261393
65.19958,-0.0003258389
65.29958,-0.0003255365
65.39957,-0.0003252945
65.49957,-0.0003249922
65.59957,-0.0003246965
65.69957,-0.0003243782
65.79957,-0.0003240637
65.89957,-0.0003237868
65.99957,-0.000323493
66.09956,-0.0003232142
66.19956,-0.0003229704
66.29956,-0.0003226643
66.39956,-0.0003223968
66.49956,-0.0003220945
66.59956,-0.0003218299
66.69955,-0.0003215577
66.79955,-0.0003212554
66.89955,-0.0003209833
66.99955,-0.0003207572
67.09955,-0.0003204804
67.19955,-0.0003201536
67.29955,-0.0003199182
67.39954,-0.0003196479
67.49954,-0.0003193578
67.59954,-0.0003191045
67.69954,-0.0003187834
67.79954,-0.0003185922
67.89954,-0.0003183766
67.99953,-0.0003180583
68.09953,-0.0003177352
68.19953,-0.0003174612
68.29953,-0.0003172239
68.39953,-0.0003169263
68.49953,-0.0003166551
68.59953,-0.0003163848
68.69952,-0.0003160881
68.79952,-0.0003158697
68.89952,-0.0003155551
68.99952,-0.0003152679
69.09952,-0.0003150146
69.19952,-0.0003147886
69.29951,-0.0003144957
69.39951,-0.0003142085
69.49951,-0.0003139495
69.59951,-0.0003136877
69.69951,-0.0003133939
69.79951,-0.0003131113
69.89951,-0.0003128608
69.9995,-0.0003126132
70.0995,-0.0003123354
70.1995,-0.000312083
70.2995,-0.0003118127
70.3995,-0.0003115603
70.4995,-0.0003113079
70.59949,-0.0003110621
70.69949,-0.0003107994
70.79949,-0.0003104801
70.89949,-0.0003102334
70.99949,-0.0003100102
71.09949,-0.0003097362
71.19949,-0.000309416
71.29948,-0.0003092173
71.39948,-0.0003090045
71.49948,-0.0003086815
71.59948,-0.0003084102
71.69948,-0.0003081324
71.79948,-0.0003078923
71.89948,-0.0003076361
71.99947,-0.0003073479
72.09947,-0.0003070645
72.19947,-0.0003068536
72.29947,-0.0003066078
72.39947,-0.0003063582
72.49947,-0.0003061067
72.59946,-0.0003058355
72.69946,-0.0003056472
72.79946,-0.0003053863
72.89946,-0.0003051886
72.99946,-0.0003049183
73.09946,-0.0003046329
73.19946,-0.0003043674
73.29945,-0.0003041272
73.39945,-0.0003038654
73.49945,-0.0003036639
73.59945,-0.0003033569
73.69945,-0.0003030753
73.79945,-0.0003028126
73.89944,-0.0003025715
73.99944,-0.0003023181
74.09944,-0.0003020582
74.19944,-0.0003018087
74.29944,-0.0003015488
74.39944,-0.0003013152
74.49944,-0.000301077
74.59943,-0.0003008104
74.69943,-0.0003005393
74.79943,-0.0003002755
74.89943,-0.000300042
74.99943,-0.0002998235
75.09943,-0.0002995561
75.19942,-0.0002992924
75.29942,-0.0002991238
75.39942,-0.0002988761
75.49942,-0.0002986096
75.59942,-0.0002983506
75.69942,-0.000298151
75.79942,-0.0002978628
75.89941,-0.0002976152
75.99941,-0.0002973656
76.09941,-0.0002971
76.19941,-0.0002968825
76.29941,-0.0002966216
76.39941,-0.0002963947
76.4994,-0.0002962073
76.5994,-0.000295921
76.6994,-0.000295646
76.7994,-0.0002954256
76.8994,-0.000295194
76.9994,-0.0002949171
77.0994,-0.000294676
77.19939,-0.0002944283
77.29939,-0.0002942183
77.39939,-0.0002939763
77.49939,-0.0002937286
77.59939,-0.0002935017
77.69939,-0.0002932691
77.79939,-0.000293076
77.89938,-0.0002928076
77.99938,-0.0002925091
78.09938,-0.0002923066
78.19938,-0.0002920844
78.29938,-0.0002918423
78.39938,-0.0002915834
78.49937,-0.0002913413
78.59937,-0.0002911068
78.69937,-0.0002908695
78.79937,-0.0002906284
78.89937,-0.0002903855
78.99937,-0.0002901745
79.09937,-0.0002899381
79.19936,-0.0002896886
79.29936,-0.0002894466
79.39936,-0.0002892017
79.49936,-0.0002889748
79.59936,-0.000288777
79.69936,-0.0002885152
79.79935,-0.0002882619
79.89935,-0.0002880406
79.99935,-0.0002877882
80.09935,-0.0002875537
80.19935,-0.0002873465
80.29935,-0.0002870979
80.39935,-0.0002868455
80.49934,-0.0002866468
80.59934,-0.0002863746
80.69934,-0.0002860996
80.79934,-0.0002858944
80.89934,-0.0002856844
80.99934,-0.000285448
81.09933,-0.0002852097
81.19933,-0.00028498
81.29933,-0.0002847831
81.39933,-0.0002846372
81.49933,-0.0002843301
81.59933,-0.0002841757
81.69933,-0.0002840194
81.79932,-0.0002837548
81.89932,-0.0002835146
81.99932,-0.0002833215
82.09932,-0.0002830786
82.19932,-0.0002828158
82.29932,-0.0002826143
82.39931,-0.0002824034
82.49931,-0.0002821877
82.59931,-0.000281973
82.69931,-0.0002817715
82.79931,-0.0002815521
82.89931,-0.0002813166
82.99931,-0.0002810529
83.0993,-0.0002808269
83.1993,-0.0002806291
83.2993,-0.000280372
83.3993,-0.0002801376
83.4993,-0.0002799398
83.5993,-0.000279726
83.6993,-0.0002795009
83.79929,-0.0002792665
83.89929,-0.00027908
83.99929,-0.0002788201
84.09929,-0.0002785687
84.19929,-0.0002783482
84.29929,-0.0002781458
84.39928,-0.0002778859
84.49928,-0.0002776589
84.59928,-0.0002774677
84.69928,-0.0002772672
84.79928,-0.0002770487
84.89928,-0.0002768236
84.99928,-0.0002765957
85.09927,-0.0002763735
85.19927,-0.0002761635
85.29927,-0.0002759384
85.39927,-0.0002756907
85.49927,-0.0002754845
85.59927,-0.0002752726
85.69926,-0.0002750729
85.79926,-0.0002747895
85.89926,-0.0002746313
85.99926,-0.0002744975
86.09926,-0.0002742235
86.19926,-0.0002739777
86.29926,-0.000273731
86.39925,-0.0002735907
86.49925,-0.0002733383
86.59925,-0.000273084
86.69925,-0.0002729041
86.79925,-0.0002726932
86.89925,-0.0002724672
86.99924,-0.0002722581
87.09924,-0.0002720236
87.19924,-0.0002718315
87.29924,-0.0002716535
87.39924,-0.0002714444
87.49924,-0.0002712033
87.59924,-0.0002709783
87.69923,-0.0002707824
87.79923,-0.0002705828
87.89923,-0.0002703539
87.99923,-0.0002701345
88.09923,-0.0002698953
88.19923,-0.0002697371
88.29922,-0.0002695186
88.39922,-0.0002692794
88.49922,-0.0002691221
88.59922,-0.0002689291
88.69922,-0.0002687313
88.79922,-0.0002685157
88.89922,-0.0002682736
88.99921,-0.0002681644
89.09921,-0.0002680005
89.19921,-0.0002676549
89.29921,-0.0002674204
89.39921,-0.0002672603
89.49921,-0.0002670164
89.59921,-0.0002667527
89.6992,-0.0002665813
89.7992,-0.0002663544
89.8992,-0.0002661265
89.9992,-0.0002659494
90.0992,-0.0002657451
90.1992,-0.0002655144
90.29919,-0.0002653044
90.39919,-0.000265117
90.49919,-0.0002649408
90.59919,-0.0002647355
90.69919,-0.0002645387
90.79919,-0.0002643033
90.89919,-0.0002640933
90.99918,-0.000263904
91.09918,-0.0002637194
91.19918,-0.0002635113
91.29918,-0.000263273
91.39918,-0.0002631063
91.49918,-0.0002629199
91.59917,-0.0002626854
91.69917,-0.0002624858
91.79917,-0.000262288
91.89917,-0.0002620714
91.99917,-0.0002618538
92.09917,-0.0002616768
92.19917,-0.0002614828
92.29916,-0.0002612954
92.39916,-0.0002610458
92.49916,-0.000260882
92.59916,-0.0002606814
92.69916,-0.0002604544
92.79916,-0.000260268
92.89915,-0.0002600598
92.99915,-0.0002598084
93.09915,-0.0002597039
93.19915,-0.0002594835
93.29915,-0.0002592716
93.39915,-0.0002590532
93.49915,-0.000258845
93.59914,-0.0002586623
93.69914,-0.0002584599
93.79914,-0.0002582583
93.89914,-0.0002580747
93.99914,-0.0002578628
94.09914,-0.0002576584
94.19913,-0.000257439
94.29913,-0.0002572761
94.39913,-0.0002571038
94.49913,-0.0002568551
94.59913,-0.000256679
94.69913,-0.0002564709
94.79913,-0.0002562779
94.89912,-0.000256099
94.99912,-0.0002559266
95.09912,-0.0002557185
95.19912,-0.0002555386
95.29912,-0.0002553625
95.39912,-0.0002551789
95.49911,-0.0002549736
95.59911,-0.0002548257
95.69911,-0.0002545733
95.79911,-0.000254368
95.89911,-0.0002542042
95.99911,-0.0002539847
96.09911,-0.0002537757
96.1991,-0.0002536137
96.2991,-0.0002533237
96.3991,-0.0002532257
96.4991,-0.0002530524
96.5991,-0.0002529027
96.6991,-0.0002526456
96.7991,-0.0002524704
96.89909,-0.0002522953
96.99909,-0.0002520862
97.09909,-0.0002518743
97.19909,-0.0002516841
97.29909,-0.0002515071
97.39909,-0.0002513093
97.49908,-0.0002510851
97.59908,-0.000250925
97.69908,-0.0002507499
97.79908,-0.00025057
97.89908,-0.0002503299
97.99908,-0.0002501585
98.09908,-0.0002499711
98.19907,-0.0002497912
98.29907,-0.0002495935
98.39907,-0.0002494136
98.49907,-0.0002492846
98.59907,-0.0002491028
98.69907,-0.0002489126
98.79906,-0.0002486508
98.89906,-0.0002484182
98.99906,-0.0002482703
99.09906,-0.0002480754
99.19906,-0.0002478503
99.29906,-0.0002477269
99.39906,-0.0002475301
99.49905,-0.0002473408
99.59905,-0.0002471431
99.69905,-0.0002469604
99.79905,-0.0002467607
99.89905,-0.0002465535
99.99905,-0.0002463322
100.099,-0.0002461401
100.199,-0.0002459838
100.299,-0.0002457992
100.399,-0.0002455619
100.499,-0.000245383
100.599,-0.0002452219
100.699,-0.0002450279
100.799,-0.0002448678
100.899,-0.0002446541
100.999,-0.0002444742
101.099,-0.0002442934
101.199,-0.0002441031
101.299,-0.0002439176
101.399,-0.0002437519
101.499,-0.0002435202
101.599,-0.0002433272
101.699,-0.0002431718
101.799,-0.0002430013
101.899,-0.000242812
101.999,-0.000242651
102.099,-0.0002424419
102.199,-0.0002422112
102.299,-0.000242085
102.399,-0.0002419033
102.499,-0.0002417714
102.599,-0.0002415642
102.699,-0.0002413684
102.799,-0.0002411857
102.899,-0.000241003
102.999,-0.0002408231
103.099,-0.0002406592
103.199,-0.0002405302
103.299,-0.0002403306
103.399,-0.0002401055
103.499,-0.0002399153
103.599,-0.0002398004
103.699,-0.0002395555
103.799,-0.0002393672
103.899,-0.000239209
103.999,-0.0002390263
104.099,-0.0002388266
104.199,-0.0002387343
104.299,-0.000238562
104.399,-0.0002383463
104.499,-0.0002381938
104.599,-0.0002379838
104.699,-0.0002377728
104.799,-0.0002376382
104.899,-0.0002374564
104.999,-0.0002372389
105.099,-0.0002370769
105.199,-0.0002369441
105.299,-0.0002367445
105.399,-0.0002366258
105.499,-0.0002364205
105.599,-0.0002362246
105.699,-0.0002360316
105.799,-0.0002358592
105.899,-0.0002356916
105.999,-0.0002355334
106.099,-0.0002353526
106.199,-0.0002351831
106.299,-0.0002350465
106.3989,-0.0002348921
106.4989,-0.0002347113
106.5989,-0.0002345417
106.6989,-0.0002343769
106.7989,-0.0002341594
106.8989,-0.0002339607
106.9989,-0.0002338091
107.0989,-0.000233616
107.1989,-0.0002334352
107.2989,-0.0002332704
107.3989,-0.0002330943
107.4989,-0.0002329173
107.5989,-0.0002327694
107.6989,-0.0002325792
107.7989,-0.0002323776
107.8989,-0.0002322599
107.9989,-0.0002320688
108.0989,-0.0002318776
108.1989,-0.0002317175
108.2989,-0.0002315386
108.3989,-0.0002313672
108.4989,-0.0002312683
108.5989,-0.000231047
108.6989,-0.0002308737
108.7989,-0.0002307419
108.8989,-0.0002305413
108.9989,-0.000230351
109.0989,-0.0002302239
109.1989,-0.0002300196
109.2989,-0.0002298133
109.3989,-0.0002296617
109.4989,-0.0002294847
109.5989,-0.0002293029
109.6989,-0.0002291579
109.7989,-0.0002289818
109.8989,-0.0002288094
109.9989,-0.0002286644
110.0989,-0.0002285363
110.1989,-0.0002283555
110.2989,-0.0002281888
110.3989,-0.0002280146
110.4989,-0.000227863
110.5989,-0.0002277048
110.6989,-0.0002275268
110.7989,-0.0002273432
110.8989,-0.0002272198
110.9989,-0.0002270475
111.0989,-0.0002268883
111.1989,-0.0002267113
111.2989,-0.0002265389
111.3989,-0.0002263732
111.4989,-0.0002262244
111.5989,-0.0002260596
111.6989,-0.0002258759
111.7989,-0.0002257215
111.8989,-0.0002256057
111.9989,-0.0002254409
112.0989,-0.0002252422
112.1989,-0.0002251207
112.2989,-0.0002249681
112.3989,-0.0002247675
112.4989,-0.0002246074
112.5989,-0.0002244426
112.6989,-0.0002242854
112.7989,-0.0002241987
112.8988,-0.0002240273
112.9988,-0.0002238041
113.0988,-0.0002236827
113.1988,-0.000223516
113.2988,-0.0002233446
113.3988,-0.000223159
113.4988,-0.0002229867
113.5988,-0.0002228351
113.6988,-0.0002226929
113.7988,-0.0002225196
113.8988,-0.0002223397
113.9988,-0.0002222201
114.0988,-0.0002220958
114.1988,-0.0002219188
114.2988,-0.0002217041
114.3988,-0.0002215864
114.4988,-0.0002214423
114.5988,-0.0002212671
114.6988,-0.0002211192
114.7988,-0.0002209771
114.8988,-0.0002207614
114.9988,-0.0002206248
115.0988,-0.0002204761
115.1988,-0.0002203235
115.2988,-0.0002201634
115.3988,-0.000219992
115.4988,-0.0002198093
115.5988,-0.0002196615
115.6988,-0.0002195004
115.7988,-0.0002193074
115.8988,-0.0002191529
115.9988,-0.0002190324
116.0988,-0.0002188459
116.1988,-0.0002186971
116.2988,-0.0002185135
116.3988,-0.0002183543
116.4988,-0.0002182055
116.5988,-0.0002180784
116.6988,-0.0002179051
116.7988,-0.0002177724
116.8988,-0.0002175981
116.9988,-0.0002174305
117.0988,-0.0002172939
117.1988,-0.0002171292
117.2988,-0.0002169822
117.3988,-0.000216857
117.4988,-0.0002166931
117.5988,-0.000216468
117.6988,-0.0002163673
117.7988,-0.0002161752
117.8988,-0.0002160452
117.9988,-0.0002159068
118.0988,-0.0002157307
118.1988,-0.0002155593
118.2988,-0.0002154086
118.3988,-0.0002152862
118.4988,-0.0002151157
118.5988,-0.000214999
118.6988,-0.00021482
118.7988,-0.0002146693
118.8988,-0.0002145441
118.9988,-0.0002144207
119.0988,-0.0002142493
119.1988,-0.0002140581
119.2988,-0.000213947
119.3988,-0.000213835
119.4987,-0.0002136438
119.5987,-0.000213479
119.6987,-0.0002133406
119.7987,-0.0002131974
119.8987,-0.0002130147
119.9987,-0.0002128443
120.0987,-0.0002127049
120.1987,-0.0002125542
120.2987,-0.0002123866
120.3987,-0.0002122152
120.4987,-0.0002121088
120.5987,-0.0002119666
120.6987,-0.0002117999
120.7987,-0.0002116398
120.8987,-0.0002114637
120.9987,-0.000211313
121.0987,-0.000211184
121.1987,-0.0002110267
121.2987,-0.000210876
121.3987,-0.0002107574
121.4987,-0.0002106076
121.5987,-0.0002104504
121.6987,-0.000210279
121.7987,-0.0002101368
121.8987,-0.0002100144
121.9987,-0.0002098562
122.0987,-0.0002096819
122.1987,-0.0002095105
122.2987,-0.0002093844
122.3987,-0.0002092393
122.4987,-0.000209082
122.5987,-0.0002089521
122.6987,-0.000208808
122.7987,-0.0002086187
122.8987,-0.0002085236
122.9987,-0.0002083673
123.0987,-0.0002081996
123.1987,-0.0002080499
123.2987,-0.0002079039
123.3987,-0.0002077627
123.4987,-0.000207677
123.5987,-0.000207466
123.6987,-0.0002073427
123.7987,-0.0002072504
123.8987,-0.0002071138
123.9987,-0.0002069236
124.0987,-0.0002067644
124.1987,-0.0002066025
124.2987,-0.0002064518
124.3987,-0.0002063002
124.4987,-0.000206174
124.5987,-0.0002060045
124.6987,-0.0002058792
124.7987,-0.000205737
124.8987,-0.0002055995
124.9987,-0.0002054564
125.0987,-0.0002053302
125.1987,-0.0002051776
125.2987,-0.0002050505
125.3987,-0.000204913
125.4987,-0.000204751
125.5987,-0.0002046305
125.6987,-0.0002045721
125.7987,-0.0002043781
125.8987,-0.0002041361
125.9986,-0.000204057
126.0986,-0.0002038865
126.1986,-0.0002037123
126.2986,-0.0002035748
126.3986,-0.0002034326
126.4986,-0.0002032791
126.5986,-0.0002031567
126.6986,-0.0002030088
126.7986,-0.000202892
126.8986,-0.0002027819
126.9986,-0.0002026152
127.0986,-0.000202456
127.1986,-0.0002023327
127.2986,-0.0002022102
127.3986,-0.0002020539
127.4986,-0.0002019164
127.5986,-0.0002017441
127.6986,-0.0002016122
127.7986,-0.0002015115
127.8986,-0.000201374
127.9986,-0.0002012186
128.0986,-0.0002011009
128.1986,-0.0002009521
128.2986,-0.0002008089
128.3986,-0.0002007101
128.4986,-0.0002005085
128.5986,-0.0002003833
128.6987,-0.0002002552
128.7987,-0.0002001017
128.8987,-0.0001999783
128.9987,-0.0001998493
129.0987,-0.0001996817
129.1987,-0.0001995423
129.2987,-0.0001994152
129.3987,-0.0001992711
129.4987,-0.0001991402
129.5987,-0.0001990168
129.6987,-0.0001988737
129.7987,-0.0001987032
129.8987,-0.0001985978
129.9987,-0.0001985092
130.0987,-0.0001983331
130.1987,-0.000198174
130.2988,-0.0001980676
130.3988,-0.0001979188
130.4988,-0.0001977671
130.5988,-0.0001976645
130.6988,-0.0001975147
130.7988,-0.0001973801
130.8988,-0.0001972605
130.9988,-0.000197075
131.0988,-0.0001969459
131.1988,-0.0001968292
131.2988,-0.0001966851
131.3988,-0.0001965193
131.4988,-0.0001964346
131.5988,-0.0001962952
131.6988,-0.0001961455
131.7988,-0.0001960136
131.8988,-0.000195863
131.9989,-0.0001957292
132.0989,-0.000195652
132.1989,-0.0001954938
132.2989,-0.0001953497
132.3989,-0.0001951972
132.4989,-0.0001951039
132.5989,-0.0001949278
132.6989,-0.0001947772
132.7989,-0.000194651
132.8989,-0.0001945464
132.9989,-0.0001944466
133.0989,-0.0001942997
133.1989,-0.0001940934
133.2989,-0.0001939804
133.3989,-0.0001939004
133.4989,-0.0001937836
133.599,-0.0001936226
133.699,-0.0001934531
133.799,-0.0001933363
133.899,-0.0001932534
133.999,-0.000193067
134.099,-0.0001929135
134.199,-0.000192807
134.299,-0.0001926582
134.399,-0.000192516
134.499,-0.0001923946
134.599,-0.0001922834
134.699,-0.0001921497
134.799,-0.0001919934
134.899,-0.0001919293
134.999,-0.0001917382
135.099,-0.0001916035
135.1991,-0.0001914971
135.2991,-0.0001913624
135.3991,-0.0001912202
135.4991,-0.0001911138
135.5991,-0.0001909801
135.6991,-0.0001908586
135.7991,-0.0001907456
135.8991,-0.0001905864
135.9991,-0.0001904377
136.0991,-0.0001903293
136.1991,-0.0001902088
136.2991,-0.0001900704
136.3991,-0.0001899376
136.4991,-0.0001897954
136.5991,-0.0001896504
136.6991,-0.0001895675
136.7991,-0.0001894554
136.8992,-0.0001892972
136.9992,-0.000189155
137.0992,-0.0001890156
137.1992,-0.0001889149
137.2992,-0.0001888141
137.3992,-0.0001886408
137.4992,-0.000188541
137.5992,-0.0001884242
137.6992,-0.0001882745
137.7992,-0.0001881568
137.8992,-0.0001880485
137.9992,-0.0001879345
138.0992,-0.0001878394
138.1992,-0.0001877236
138.2992,-0.0001875767
138.3992,-0.0001874185
138.4993,-0.0001872791
138.5993,-0.0001871576
138.6993,-0.0001870465
138.7993,-0.0001869062
138.8993,-0.0001867856
138.9993,-0.000186667
139.0993,-0.0001865389
139.1993,-0.0001864522
139.2993,-0.0001863138
139.3993,-0.0001861876
139.4993,-0.0001860529
139.5993,-0.0001859221
139.6993,-0.0001858006
139.7993,-0.0001856894
139.8993,-0.0001855755
139.9993,-0.0001854201
140.0993,-0.0001853325
140.1994,-0.0001851979
140.2994,-0.0001850623
140.3994,-0.000184953
140.4994,-0.0001848165
140.5994,-0.0001846987
140.6994,-0.0001846102
140.7994,-0.0001844576
140.8994,-0.0001842985
140.9994,-0.0001842024
141.0994,-0.0001840734
141.1994,-0.000183935
141.2994,-0.0001838314
141.3994,-0.0001836873
141.4994,-0.0001835461
141.5994,-0.0001834745
141.6994,-0.0001833172
141.7995,-0.0001831741
141.8995,-0.0001831044
141.9995,-0.0001829914
142.0995,-0.0001828473
142.1995,-0.0001827852
142.2995,-0.0001826373
142.3995,-0.0001824951
142.4995,-0.0001823802
142.5995,-0.000182238
142.6995,-0.0001820788
142.7995,-0.0001819508
142.8995,-0.0001818556
142.9995,-0.0001817163
143.0995,-0.0001816155
143.1995,-0.0001814855
143.2995,-0.0001813697
143.3996,-0.000181236
143.4996,-0.0001811277
143.5996,-0.0001810128
143.6996,-0.0001808414
143.7996,-0.0001807265
143.8996,-0.0001805928
143.9996,-0.0001804807
144.0996,-0.0001803847
144.1996,-0.0001802368
144.2996,-0.0001801116
144.3996,-0.0001800287
144.4996,-0.0001799279
144.5996,-0.0001797904
144.6996,-0.000179684
144.7996,-0.0001795541
144.8996,-0.0001794457
144.9996,-0.0001793412
145.0997,-0.0001791972
145.1997,-0.0001790653
145.2997,-0.0001790427
145.3997,-0.0001788732
145.4997,-0.0001787498
145.5997,-0.0001786312
145.6997,-0.0001785332
145.7997,-0.0001783675
145.8997,-0.0001782799
145.9997,-0.0001781236
146.0997,-0.0001779861
146.1997,-0.0001778778
146.2997,-0.0001777685
146.3997,-0.0001776734
146.4997,-0.0001775519
146.5997,-0.0001774116
146.6998,-0.0001772892
146.7998,-0.0001772157
146.8998,-0.0001770783
146.9998,-0.0001769549
147.0998,-0.0001768729
147.1998,-0.0001767194
147.2998,-0.0001766017
147.3998,-0.0001765226
147.4998,-0.0001763946
147.5998,-0.0001762881
147.6998,-0.0001761845
147.7998,-0.0001760254
147.8998,-0.0001759209
147.9998,-0.0001758192
148.0998,-0.0001756996
148.1998,-0.0001755856
148.2999,-0.0001754726
148.3999,-0.0001753323
148.4999,-0.000175208
148.5999,-0.0001751157
148.6999,-0.0001750328
148.7999,-0.0001748963
148.8999,-0.0001747673
148.9999,-0.0001746561
149.0999,-0.0001745497
149.1999,-0.0001744536
149.2999,-0.0001743435
149.3999,-0.0001742069
149.4999,-0.0001740788
149.5999,-0.0001739705
149.6999,-0.0001738679
149.7999,-0.000173704
149.8999,-0.0001736221
150,-0.00017351
150.1,-0.0001734017
150.2,-0.0001732755
150.3,-0.0001731927
150.4,-0.0001730938
150.5,-0.0001729742
150.6,-0.0001728461
150.7,-0.0001727359
150.8,-0.0001726408
150.9,-0.0001725033
151,-0.0001723875
151.1,-0.0001723018
151.2,-0.0001721671
151.3,-0.0001720334
151.4,-0.0001719515
151.5,-0.0001718366
151.6001,-0.0001717311
151.7001,-0.0001716162
151.8001,-0.0001715041
151.9001,-0.0001714119
152.0001,-0.0001713205
152.1001,-0.0001711971
152.2001,-0.0001710907
152.3001,-0.0001709702
152.4001,-0.0001708619
152.5001,-0.0001707442
152.6001,-0.0001706142
152.7001,-0.0001705021
152.8001,-0.0001703844
152.9001,-0.0001702319
153.0001,-0.000170132
153.1001,-0.0001700002
153.2001,-0.000169874
153.3002,-0.0001697836
153.4002,-0.0001696772
153.5002,-0.000169535
153.6002,-0.0001694493
153.7002,-0.0001693805
153.8002,-0.0001692468
153.9002,-0.0001691479
154.0002,-0.0001690368
154.1002,-0.0001688965
154.2002,-0.0001688127
154.3002,-0.0001687279
154.4002,-0.0001685942
154.5002,-0.0001684915
154.6002,-0.0001683842
154.7002,-0.0001683183
154.8002,-0.0001682429
154.9003,-0.0001681035
155.0003,-0.0001679839
155.1003,-0.0001678531
155.2003,-0.0001677523
155.3003,-0.0001676383
155.4003,-0.0001675187
155.5003,-0.0001673502
155.6003,-0.0001672437
155.7003,-0.0001671665
155.8003,-0.0001670394
155.9003,-0.0001669198
156.0003,-0.0001668181
156.1003,-0.0001667088
156.2003,-0.0001665855
156.3003,-0.0001665224
156.4003,-0.0001663774
156.5004,-0.0001662502
156.6004,-0.0001661579
156.7004,-0.0001660863
156.8004,-0.0001660101
156.9004,-0.0001658971
157.0004,-0.0001657445
157.1004,-0.0001656466
157.2004,-0.0001656155
157.3004,-0.000165478
157.4004,-0.0001653189
157.5004,-0.0001652219
157.6004,-0.0001651277
157.7004,-0.0001649845
157.8004,-0.0001648828
157.9004,-0.0001647849
158.0004,-0.0001646851
158.1004,-0.0001645589
158.2005,-0.0001644769
158.3005,-0.0001643752
158.4005,-0.0001642556
158.5005,-0.0001641577
158.6005,-0.0001640437
158.7005,-0.0001639618
158.8005,-0.0001638789
158.9005,-0.0001637509
159.0005,-0.0001636303
159.1005,-0.0001635663
159.2005,-0.0001634542
159.3005,-0.0001633327
159.4005,-0.0001632527
159.5005,-0.0001631425
159.6005,-0.0001630041
159.7005,-0.0001629391
159.8006,-0.0001628157
159.9006,-0.0001626961
160.0006,-0.0001626019
160.1006,-0.0001624805
160.2006,-0.0001624334
160.3006,-0.0001623241
160.4006,-0.0001622121
160.5006,-0.0001621
160.6006,-0.0001620068
160.7006,-0.0001618815
160.8006,-0.000161777
160.9006,-0.0001617214
161.0006,-0.0001616207
161.1006,-0.0001614728
161.2006,-0.0001613664
161.3006,-0.0001612741
161.4007,-0.0001611526
161.5007,-0.0001610415
161.6007,-0.0001609257
161.7007,-0.0001608127
161.8007,-0.0001607373
161.9007,-0.0001606648
162.0007,-0.0001605245
162.1007,-0.0001604162
162.2007,-0.0001603644
162.3007,-0.0001602542
162.4007,-0.0001601535
162.5007,-0.0001600574
162.6007,-0.0001599208
162.7007,-0.0001598464
162.8007,-0.0001597504
162.9007,-0.0001596374
163.0007,-0.0001595282
163.1008,-0.0001594321
163.2008,-0.0001593332
163.3008,-0.0001592296
163.4008,-0.0001591232
163.5008,-0.0001589914
163.6008,-0.0001589179
163.7008,-0.0001588322
163.8008,-0.0001587013
163.9008,-0.0001585996
164.0008,-0.0001585233
164.1008,-0.0001584141
164.2008,-0.0001582879
164.3008,-0.0001582417
164.4008,-0.0001581532
164.5008,-0.000158027
164.6008,-0.000157946
164.7009,-0.0001578519
164.8009,-0.0001577379
164.9009,-0.0001576663
165.0009,-0.0001575656
165.1009,-0.0001574422
165.2009,-0.000157332
165.3009,-0.0001572652
165.4009,-0.0001571427
165.5009,-0.0001570354
165.6009,-0.0001569582
165.7009,-0.0001568329
165.8009,-0.0001567331
165.9009,-0.000156637
166.0009,-0.0001565504
166.1009,-0.0001564477
166.2009,-0.0001563611
166.3009,-0.0001562481
166.401,-0.0001561379
166.501,-0.0001560541
166.601,-0.0001559524
166.701,-0.0001558328
166.801,-0.0001557367
166.901,-0.000155635
167.001,-0.0001555531
167.101,-0.000155441
167.201,-0.0001553252
167.301,-0.000155247
167.401,-0.0001551764
167.501,-0.0001550898
167.601,-0.0001549683
167.701,-0.0001548788
167.801,-0.0001547856
167.901,-0.0001546585
168.0011,-0.0001545963
168.1011,-0.0001544842
168.2011,-0.0001543646
168.3011,-0.0001542893
168.4011,-0.0001541735
168.5011,-0.0001541282
168.6011,-0.0001540397
168.7011,-0.0001539051
168.8011,-0.0001538344
168.9011,-0.0001537817
169.0011,-0.0001536423
169.1011,-0.0001535416
169.2011,-0.0001534766
169.3011,-0.000153341
169.4011,-0.0001532129
169.5011,-0.0001531385
169.6012,-0.0001530471
169.7012,-0.000152936
169.8012,-0.0001528353
169.9012,-0.0001527524
170.0012,-0.0001526978
170.1012,-0.0001525885
170.2012,-0.0001524972
170.3012,-0.0001523973
170.4012,-0.0001523069
170.5012,-0.0001522278
170.6012,-0.0001521252
170.7012,-0.0001520254
170.8012,-0.0001519265
170.9012,-0.0001518351
171.0012,-0.0001517419
171.1012,-0.000151643
171.2012,-0.0001515498
171.3013,-0.0001514829
171.4013,-0.0001514142
171.5013,-0.0001512513
171.6013,-0.0001511383
171.7013,-0.0001511156
171.8013,-0.0001509565
171.9013,-0.0001508755
172.0013,-0.0001509028
172.1013,-0.0001507446
172.2013,-0.0001506137
172.3013,-0.0001505525
172.4013,-0.0001504875
172.5013,-0.0001503086
172.6013,-0.0001502078
172.7013,-0.0001501306
172.8013,-0.0001500355
172.9014,-0.000149946
173.0014,-0.0001498387
173.1014,-0.0001497549
173.2014,-0.0001497106
173.3014,-0.0001496023
173.4014,-0.0001494676
173.5014,-0.0001494092
173.6014,-0.0001493292
173.7014,-0.000149251
173.8014,-0.000149154
173.9014,-0.000149041
174.0014,-0.0001489318
174.1014,-0.0001489035
174.2014,-0.0001487886
174.3014,-0.0001486747
174.4014,-0.0001485909
174.5014,-0.0001485099
174.6015,-0.0001484006
174.7015,-0.0001483206
174.8015,-0.0001482227
174.9015,-0.0001481125
175.0015,-0.000148056
175.1015,-0.0001479514
175.2015,-0.0001478591
175.3015,-0.0001477659
175.4015,-0.000147668
175.5015,-0.0001475907
175.6015,-0.0001475333
175.7015,-0.0001474165
175.8015,-0.0001473035
175.9015,-0.0001472367
176.0015,-0.0001471717
176.1015,-0.0001470653
176.2016,-0.0001469711
176.3016,-0.0001468684
176.4016,-0.0001468072
176.5016,-0.0001467394
176.6016,-0.0001466208
176.7016,-0.0001465257
176.8016,-0.0001464108
176.9016,-0.0001463232
177.0016,-0.0001462591
177.1016,-0.0001461537
177.2016,-0.000146068
177.3016,-0.0001459691
177.4016,-0.0001458881
177.5016,-0.0001458316
177.6016,-0.0001457261
177.7016,-0.0001456376
177.8017,-0.0001455783
177.9017,-0.0001454973
178.0017,-0.0001453956
178.1017,-0.0001453052
178.2017,-0.0001452185
178.3017,-0.0001451036
178.4017,-0.0001450302
178.5017,-0.000144937
178.6017,-0.0001448352
178.7017,-0.0001447439
178.8017,-0.000144661
178.9017,-0.0001445669
179.0017,-0.0001445104
179.1017,-0.0001444049
179.2017,-0.0001442966
179.3017,-0.0001442288
179.4017,-0.0001441459
179.5018,-0.0001440612
179.6018,-0.0001439886
179.7018,-0.0001438728
179.8018,-0.0001437824
179.9018,-0.000143757
180.0018,-0.0001436515
180.1018,-0.0001435639
180.2018,-0.0001434801
180.3018,-0.0001433746
180.4018,-0.0001432805
180.5018,-0.000143255
180.6018,-0.0001431354
180.7018,-0.0001430422
180.8018,-0.0001430299
180.9018,-0.0001429433
181.0018,-0.0001428162
181.1019,-0.0001427286
181.2019,-0.0001426608
181.3019,-0.0001425252
181.4019,-0.0001423915
181.5019,-0.0001422963
181.6019,-0.0001421909
181.7019,-0.0001421381
181.8019,-0.0001420571
181.9019,-0.0001419573
182.0019,-0.00014185
182.1019,-0.0001417887
182.2019,-0.0001417172
182.3019,-0.0001416343
182.4019,-0.0001415703
182.5019,-0.0001414733
182.6019,-0.0001413866
182.702,-0.0001413414
182.802,-0.000141236
182.902,-0.0001411371
183.002,-0.0001410636
183.102,-0.000140993
183.202,-0.0001408997
183.302,-0.0001408084
183.402,-0.0001407349
183.502,-0.0001406116
183.602,-0.0001405607
183.702,-0.0001404769
183.802,-0.0001403686
183.902,-0.0001403093
184.002,-0.0001401765
184.102,-0.0001401068
184.202,-0.0001400776
184.302,-0.0001399787
184.4021,-0.0001398723
184.5021,-0.000139797
184.6021,-0.0001397094
184.7021,-0.0001396124
184.8021,-0.0001395616
184.9021,-0.0001394881
185.0021,-0.0001393704
185.1021,-0.0001393035
185.2021,-0.0001392037
185.3021,-0.0001390813
185.4021,-0.000139054
185.5021,-0.0001389862
185.6021,-0.0001388845
185.7021,-0.0001388016
185.8021,-0.0001387328
185.9021,-0.0001386518
186.0022,-0.0001385727
186.1022,-0.0001384635
186.2022,-0.0001383891
186.3022,-0.0001382912
186.4022,-0.0001382224
186.5022,-0.0001381348
186.6022,-0.0001380651
186.7022,-0.0001379747
186.8022,-0.0001378947
186.9022,-0.0001377977
187.0022,-0.0001377412
187.1022,-0.0001376602
187.2022,-0.0001375444
187.3022,-0.0001374568
187.4022,-0.0001373937
187.5022,-0.0001373165
187.6022,-0.0001372327
187.7023,-0.0001371385
187.8023,-0.0001370547
187.9023,-0.0001369793
188.0023,-0.0001368974
188.1023,-0.0001368155
188.2023,-0.0001367533
188.3023,-0.000136646
188.4023,-0.000136564
188.5023,-0.0001364887
188.6023,-0.000136403
188.7023,-0.0001363126
188.8023,-0.0001362504
188.9023,-0.000136144
189.0023,-0.0001360602
189.1023,-0.0001359924
189.2023,-0.0001359199
189.3024,-0.0001358408
189.4024,-0.0001357456
189.5024,-0.0001356543
189.6024,-0.0001355554
189.7024,-0.0001355036
189.8024,-0.0001354198
189.9024,-0.0001353238
190.0024,-0.0001352588
190.1024,-0.0001351665
190.2024,-0.0001350761
190.3024,-0.0001350243
190.4024,-0.0001349188
190.5024,-0.0001348369
190.6024,-0.0001347917
190.7024,-0.0001347126
190.8024,-0.000134608
190.9025,-0.0001345374
191.0025,-0.0001344489
191.1025,-0.000134382
191.2025,-0.0001343029
191.3025,-0.000134221
191.4025,-0.0001341287
191.5025,-0.0001340882
191.6025,-0.000134027
191.7025,-0.0001339196
191.8025,-0.0001338396
191.9025,-0.0001337859
192.0025,-0.0001336936
192.1025,-0.000133606
192.2025,-0.0001335185
192.3025,-0.0001334507
192.4025,-0.0001333565
192.5025,-0.000133284
192.6026,-0.0001332133
192.7026,-0.000133122
192.8026,-0.0001330768
192.9026,-0.0001329647
193.0026,-0.0001328705
193.1026,-0.0001328235
193.2026,-0.0001327321
193.3026,-0.0001326587
193.4026,-0.000132572
193.5026,-0.0001325108
193.6026,-0.0001324345
193.7026,-0.0001323809
193.8026,-0.0001322641
193.9026,-0.0001321897
194.0026,-0.0001321577
194.1026,-0.0001320682
194.2027,-0.0001319863
194.3027,-0.0001319458
194.4027,-0.0001318921
194.5027,-0.000131781
194.6027,-0.0001316689
194.7027,-0.0001315785
194.8027,-0.0001314749
194.9027,-0.0001314203
195.0027,-0.0001313318
195.1027,-0.0001312357
195.2027,-0.0001311547
195.3027,-0.0001311057
195.4027,-0.0001310314
195.5027,-0.000130941
195.6027,-0.0001308741
195.7027,-0.0001308214
195.8027,-0.0001307564
195.9028,-0.000130666
196.0028,-0.0001305737
196.1028,-0.0001305285
196.2028,-0.000130423
196.3028,-0.0001303316
196.4028,-0.0001303006
196.5028,-0.0001302026
196.6028,-0.0001301452
196.7028,-0.0001300698
196.8028,-0.0001299615
196.9028,-0.0001299135
197.0028,-0.0001298561
197.1028,-0.0001297713
197.2028,-0.0001296715
197.3028,-0.0001296075
197.4028,-0.0001295236
197.5029,-0.0001294511
197.6029,-0.0001293843
197.7029,-0.0001293014
197.8029,-0.0001292176
197.9029,-0.0001291319
198.0029,-0.0001290688
198.1029,-0.0001289878
198.2029,-0.0001289134
198.3029,-0.0001288465
198.4029,-0.0001287495
198.5029,-0.0001286921
198.6029,-0.0001286412
198.7029,-0.0001285518
198.8029,-0.0001284529
198.9029,-0.0001284096
199.0029,-0.0001283389
199.103,-0.0001282532
199.203,-0.0001281826
199.303,-0.0001281242
199.403,-0.0001280969
199.503,-0.000128031
199.603,-0.0001279151
199.703,-0.0001278361
199.803,-0.0001278248
199.903,-0.0001277372
200.003,-0.0001276355
200.103,-0.0001275865
200.203,-0.0001275338
200.303,-0.0001274565
200.403,-0.0001274066
200.503,-0.0001273388
200.603,-0.0001272729
200.703,-0.0001272098
200.8031,-0.0001271571
200.9031,-0.0001270893
201.0031,-0.000127028
201.1031,-0.0001269612
201.2031,-0.0001268491
201.3031,-0.0001267888
201.4031,-0.0001267493
201.5031,-0.0001266476
201.6031,-0.00012656
201.7031,-0.0001265223
201.8031,-0.0001264432
201.9031,-0.0001263698
202.0031,-0.0001263246
202.1031,-0.000126221
202.2031,-0.0001261221
202.3031,-0.0001260694
202.4032,-0.0001260053
202.5032,-0.0001259196
202.6032,-0.0001258678
202.7032,-0.0001257774
202.8032,-0.0001256842
202.9032,-0.0001256437
203.0032,-0.0001255759
203.1032,-0.0001254893
203.2032,-0.0001254158
203.3032,-0.0001253198
203.4032,-0.0001252774
203.5032,-0.0001252143
203.6032,-0.0001251267
203.7032,-0.0001250382
203.8032,-0.0001249958
203.9032,-0.0001249289
204.0033,-0.0001248536
204.1033,-0.0001247745
204.2033,-0.0001246888
204.3033,-0.0001246342
204.4033,-0.0001245993
204.5033,-0.0001245014
204.6033,-0.0001244204
204.7033,-0.0001243526
204.8033,-0.000124281
204.9033,-0.000124233
205.0033,-0.0001241699
205.1033,-0.0001240955
205.2033,-0.0001240484
205.3033,-0.0001239957
205.4033,-0.0001239184
205.5033,-0.0001238497
205.6033,-0.0001237725
205.7034,-0.0001236727
205.8034,-0.0001236049
205.9034,-0.0001235116
206.0034,-0.0001234382
206.1034,-0.0001233336
206.2034,-0.0001232941
206.3034,-0.0001232084
206.4034,-0.0001231236
206.5034,-0.0001230878
206.6034,-0.0001230313
206.7034,-0.0001229626
206.8034,-0.0001228882
206.9034,-0.0001228279
207.0034,-0.0001227893
207.1034,-0.0001227093
207.2034,-0.0001226358
207.3035,-0.0001225463
207.4035,-0.0001224946
207.5035,-0.0001224437
207.6035,-0.000122358
207.7035,-0.000122261
207.8035,-0.0001222139
207.9035,-0.0001221386
208.0035,-0.0001220453
208.1035,-0.0001220359
208.2035,-0.0001219634
208.3035,-0.0001218853
208.4035,-0.000121824
208.5035,-0.0001217365
208.6035,-0.0001216743
208.7035,-0.0001216159
208.8035,-0.0001215104
208.9035,-0.0001214304
209.0036,-0.0001213965
209.1036,-0.0001213174
209.2036,-0.0001212063
209.3036,-0.0001211601
209.4036,-0.0001210961
209.5036,-0.0001210264
209.6036,-0.0001209633
209.7036,-0.0001209106
209.8036,-0.0001208343
209.9036,-0.0001207618
210.0036,-0.000120725
210.1036,-0.0001206582
210.2036,-0.0001205781
210.3036,-0.0001205489
210.4036,-0.0001204924
210.5036,-0.000120386
210.6037,-0.0001203531
210.7037,-0.0001202542
210.8037,-0.000120193
210.9037,-0.0001201534
211.0037,-0.000120079
211.1037,-0.0001200074
211.2037,-0.0001199933
211.3037,-0.0001199048
211.4037,-0.0001198087
211.5037,-0.0001197456
211.6037,-0.000119643
211.7037,-0.0001195931
211.8037,-0.0001195535
211.9037,-0.0001194452
212.0037,-0.0001193746
212.1037,-0.0001193558
212.2038,-0.0001193002
212.3038,-0.0001192155
212.4038,-0.0001191297
212.5038,-0.0001190582
212.6038,-0.0001190007
212.7038,-0.0001189273
212.8038,-0.000118851
212.9038,-0.0001187766
213.0038,-0.0001187107
213.1038,-0.0001186485
213.2038,-0.0001185713
213.3038,-0.0001184941
213.4038,-0.0001184216
213.5038,-0.0001183641
213.6038,-0.0001183378
213.7038,-0.0001182379
213.8038,-0.0001181532
213.9039,-0.0001180948
214.0039,-0.0001180345
214.1039,-0.0001179667
214.2039,-0.0001179206
214.3039,-0.000117849
214.4039,-0.0001177755
214.5039,-0.0001177463
214.6039,-0.0001176512
214.7039,-0.0001176079
214.8039,-0.0001175448
214.9039,-0.0001174695
215.0039,-0.0001173772
215.1039,-0.0001173471
215.2039,-0.0001172811
215.3039,-0.0001172086
215.4039,-0.0001171502
215.504,-0.0001170768
215.604,-0.0001169854
215.704,-0.0001169336
215.804,-0.000116879
215.904,-0.0001168169
216.004,-0.0001167613
216.104,-0.0001166728
216.204,-0.0001166106
216.304,-0.0001165569
216.404,-0.0001164854
216.504,-0.0001164081
216.604,-0.0001163601
216.704,-0.0001162622
216.804,-0.0001162
216.904,-0.0001161642
217.004,-0.0001161002
217.104,-0.0001160428
217.2041,-0.0001159571
217.3041,-0.0001158958
217.4041,-0.0001158393
217.5041,-0.0001157471
217.6041,-0.0001157122
217.7041,-0.0001156642
217.8041,-0.0001155888
217.9041,-0.0001155257
218.0041,-0.000115424
218.1041,-0.0001153722
218.2041,-0.0001153647
218.3041,-0.0001152818
218.4041,-0.0001151952
218.5041,-0.0001152187
218.6041,-0.0001151425
218.7041,-0.0001150351
218.8042,-0.0001149965
218.9042,-0.0001149136
219.0042,-0.0001148439
219.1042,-0.0001148082
219.2042,-0.0001147168
219.3042,-0.0001146509
219.4042,-0.0001145925
219.5042,-0.0001145426
219.6042,-0.0001144522
219.7042,-0.0001144107
219.8042,-0.0001143646
219.9042,-0.0001143137
220.0042,-0.0001142798
220.1042,-0.0001141866
220.2042,-0.0001140736
220.3042,-0.0001140491
220.4043,-0.0001140067
220.5043,-0.000113906
220.6043,-0.0001138438
220.7043,-0.000113776
220.8043,-0.0001137317
220.9043,-0.0001136856
221.0043,-0.0001136046
221.1043,-0.0001135406
221.2043,-0.0001134907
221.3043,-0.0001134172
221.4043,-0.000113356
221.5043,-0.0001132985
221.6043,-0.0001132439
221.7043,-0.0001131884
221.8043,-0.0001131187
221.9043,-0.0001130499
222.0043,-0.0001129831
222.1044,-0.0001129237
222.2044,-0.0001128823
222.3044,-0.0001127957
222.4044,-0.0001127298
222.5044,-0.0001126827
222.6044,-0.0001126299
222.7044,-0.0001125838
222.8044,-0.0001125141
222.9044,-0.0001124303
223.0044,-0.0001123898
223.1044,-0.0001123173
223.2044,-0.0001122626
223.3044,-0.0001121996
223.4044,-0.0001121327
223.5044,-0.0001120611
223.6044,-0.0001120197
223.7045,-0.0001119679
223.8045,-0.0001118973
223.9045,-0.0001118285
224.0045,-0.000111756
224.1045,-0.0001116967
224.2045,-0.0001116524
224.3045,-0.0001115658
224.4045,-0.0001115121
224.5045,-0.0001114518
224.6045,-0.0001113708
224.7045,-0.0001113134
224.8045,-0.0001112606
224.9045,-0.0001112107
225.0045,-0.0001111599
225.1045,-0.0001110761
225.2045,-0.0001110177
225.3046,-0.0001109583
225.4046,-0.0001109066
225.5046,-0.0001108369
225.6046,-0.0001107898
225.7046,-0.0001107295
225.8046,-0.0001106758
225.9046,-0.0001106127
226.0046,-0.0001105477
226.1046,-0.0001104931
226.2046,-0.000110431
226.3046,-0.0001103406
226.4046,-0.0001103293
226.5046,-0.0001102812
226.6046,-0.0001101974
226.7046,-0.0001101428
226.8046,-0.0001100722
226.9046,-0.0001100373
227.0047,-0.0001100053
227.1047,-0.0001099196
227.2047,-0.0001098518
227.3047,-0.0001098678
227.4047,-0.000109785
227.5047,-0.0001097266
227.6047,-0.0001096616
227.7047,-0.0001095909
227.8047,-0.0001095269
227.9047,-0.0001094855
228.0047,-0.0001094224
228.1047,-0.0001093461
228.2047,-0.0001092962
228.3047,-0.0001092209
228.4047,-0.0001091785
228.5047,-0.0001091361
228.6048,-0.0001090579
228.7048,-0.0001090099
228.8048,-0.0001089675
228.9048,-0.0001089204
229.0048,-0.0001088338
229.1048,-0.000108782
229.2048,-0.0001087293
229.3048,-0.0001086568
229.4048,-0.0001086078
229.5048,-0.0001085626
229.6048,-0.0001084759
229.7048,-0.0001084439
229.8048,-0.0001084176
229.9048,-0.0001083215
230.0048,-0.0001082527
230.1048,-0.0001082424
230.2048,-0.0001081887
230.3049,-0.0001081134
230.4049,-0.0001080512
230.5049,-0.0001079683
230.6049,-0.0001079401
230.7049,-0.0001078911
230.8049,-0.0001078196
230.9049,-0.0001077659
231.0049,-0.0001077084
231.1049,-0.0001076416
231.2049,-0.0001075935
231.3049,-0.0001075483
231.4049,-0.0001074899
231.5049,-0.0001074429
231.6049,-0.0001074014
231.7049,-0.0001073214
231.8049,-0.0001072611
231.905,-0.0001072093
232.005,-0.000107149
232.105,-0.000107086
232.205,-0.000107053
232.305,-0.0001069428
232.405,-0.0001069042
232.505,-0.000106923
232.605,-0.0001068345
232.705,-0.0001067601
232.805,-0.0001066876
232.905,-0.0001066358
233.005,-0.0001065925
233.105,-0.000106568
233.205,-0.0001064889
233.305,-0.0001064145
233.405,-0.0001063674
233.5051,-0.0001063128
233.6051,-0.0001062695
233.7051,-0.0001062384
233.8051,-0.0001061762
233.9051,-0.0001061122
234.0051,-0.0001060613
234.1051,-0.000106002
234.2051,-0.0001059408
234.3051,-0.0001058834
234.4051,-0.0001058504
234.5051,-0.0001057459
234.6051,-0.0001057167
234.7051,-0.0001056818
234.8051,-0.000105599
234.9051,-0.0001055585
235.0051,-0.0001055085
235.1051,-0.0001054454
235.2052,-0.0001053871
235.3052,-0.0001053692
235.4052,-0.0001053136
235.5052,-0.0001052402
235.6052,-0.000105226
235.7052,-0.0001051422
235.8052,-0.000105081
235.9052,-0.0001050527
236.0052,-0.0001049633
236.1052,-0.0001048964
236.2052,-0.000104822
236.3052,-0.0001047702
236.4052,-0.0001047194
236.5052,-0.0001046704
236.6052,-0.0001046092
236.7052,-0.0001045649
236.8053,-0.0001045188
236.9053,-0.000104467
237.0053,-0.000104402
237.1053,-0.0001043662
237.2053,-0.0001043238
237.3053,-0.0001042749
237.4053,-0.0001042372
237.5053,-0.0001041656
237.6053,-0.000104128
237.7053,-0.0001041214
237.8053,-0.0001040385
237.9053,-0.0001039801
238.0053,-0.0001039293
238.1053,-0.0001038549
238.2053,-0.0001037889
238.3053,-0.0001037475
238.4053,-0.0001036844
238.5054,-0.0001036147
238.6054,-0.0001035695
238.7054,-0.0001034706
238.8054,-0.0001034349
238.9054,-0.0001034122
239.0054,-0.0001033539
239.1054,-0.0001032823
239.2054,-0.0001032343
239.3054,-0.0001031787
239.4054,-0.0001031128
239.5054,-0.0001031015
239.6054,-0.0001030233
239.7054,-0.0001029414
239.8054,-0.0001029329
239.9054,-0.0001028962
240.0054,-0.0001028321
240.1055,-0.0001027596
240.2055,-0.0001026984
240.3055,-0.000102673
240.4055,-0.0001026118
240.5055,-0.0001025562
240.6055,-0.0001024875
240.7055,-0.0001024357
240.8055,-0.0001024046
240.9055,-0.0001023161
241.0055,-0.0001022869
241.1055,-0.0001022454
241.2055,-0.0001021927
241.3055,-0.0001021324
241.4055,-0.0001020778
241.5055,-0.0001020119
241.6055,-0.0001019394
241.7056,-0.000101913
241.8056,-0.0001018735
241.9056,-0.0001018057
242.0056,-0.0001017802
242.1056,-0.0001017124
242.2056,-0.0001016399
242.3056,-0.0001016088
242.4056,-0.0001015552
242.5056,-0.0001014987
242.6056,-0.0001014629
242.7056,-0.0001013743
242.8056,-0.0001013612
242.9056,-0.0001012999
243.0056,-0.0001012312
243.1056,-0.0001011691
243.2056,-0.0001011559
243.3056,-0.0001010965
243.4057,-0.0001010419
243.5057,-0.0001009911
243.6057,-0.0001009186
243.7057,-0.0001009186
243.8057,-0.0001008865
243.9057,-0.0001008131
244.0057,-0.0001007566
244.1057,-0.0001006963
244.2057,-0.0001006558
244.3057,-0.0001005984
244.4057,-0.0001005447
244.5057,-0.0001004731
244.6057,-0.0001004251
244.7057,-0.0001003865
244.8057,-0.0001003394
244.9057,-0.0001002866
245.0058,-0.000100232
245.1058,-0.0001002038
245.2058,-0.0001001614
245.3058,-0.0001001266
245.4058,-0.0001000465
245.5058,-9.998153E-05
245.6058,-9.998246E-05
245.7058,-9.995139E-05
245.8058,-9.984403E-05
245.9058,-9.980825E-05
246.0058,-9.97574E-05
246.1058,-9.969713E-05
246.2058,-9.965192E-05
246.3058,-9.958223E-05
246.4058,-9.953515E-05
246.5058,-9.947299E-05
246.6059,-9.953232E-05
246.7059,-9.969241E-05
246.8059,-9.983461E-05
246.9059,-9.95973E-05
247.0059,-9.931761E-05
247.1059,-9.927146E-05
247.2059,-9.938918E-05
247.3059,-9.941366E-05
247.4059,-9.917351E-05
247.5059,-9.904638E-05
247.6059,-9.901437E-05
247.7059,-9.897576E-05
247.8059,-9.893997E-05
247.9059,-9.883073E-05
248.0059,-9.879118E-05
248.1059,-9.875446E-05
248.2059,-9.866028E-05
248.306,-9.863861E-05
248.406,-9.86226E-05
248.506,-9.85614E-05
248.606,-9.849924E-05
248.706,-9.847381E-05
248.806,-9.842672E-05
248.906,-9.839E-05
249.006,-9.83674E-05
249.106,-9.832125E-05
249.206,-9.824216E-05
249.306,-9.822426E-05
249.406,-9.818282E-05
249.506,-9.814044E-05
249.606,-9.810089E-05
249.706,-9.800671E-05
249.806,-9.796528E-05
249.9061,-9.796528E-05
250.0061,-9.789559E-05
250.1061,-9.784097E-05
250.2061,-9.778918E-05
250.3061,-9.775998E-05
250.4061,-9.774492E-05
250.5061,-9.7695E-05
250.6061,-9.76385E-05
250.7061,-9.756129E-05
250.8061,-9.754056E-05
250.9061,-9.748123E-05
251.0061,-9.741813E-05
251.1061,-9.735692E-05
251.2061,-9.733431E-05
251.3061,-9.728253E-05
251.4061,-9.721566E-05
251.5061,-9.717517E-05
251.6062,-9.71535E-05
251.7062,-9.709041E-05
251.8062,-9.704897E-05
251.9062,-9.697646E-05
252.0062,-9.692278E-05
252.1062,-9.689924E-05
252.2062,-9.683332E-05
252.3062,-9.678624E-05
252.4062,-9.672973E-05
252.5062,-9.666757E-05
252.6062,-9.664403E-05
252.7062,-9.659411E-05
252.8062,-9.65442E-05
252.9062,-9.648864E-05
253.0062,-9.643968E-05
253.1062,-9.63794E-05
253.2063,-9.635303E-05
253.3063,-9.630407E-05
253.4063,-9.625227E-05
253.5063,-9.619671E-05
253.6063,-9.61581E-05
253.7063,-9.610537E-05
253.8063,-9.607805E-05
253.9063,-9.604886E-05
254.0063,-9.597634E-05
254.1063,-9.590948E-05
254.2063,-9.589065E-05
254.3063,-9.584543E-05
254.4063,-9.5788E-05
254.5063,-9.574751E-05
254.6063,-9.569947E-05
254.7063,-9.563543E-05
254.8064,-9.56166E-05
254.9064,-9.556952E-05
255.0064,-9.54857E-05
255.1064,-9.543674E-05
255.2064,-9.537458E-05
255.3064,-9.535292E-05
255.4064,-9.531053E-05
255.5064,-9.527004E-05
255.6064,-9.519376E-05
255.7064,-9.517022E-05
255.8064,-9.512408E-05
255.9064,-9.507417E-05
256.0064,-9.504027E-05
256.1064,-9.495268E-05
256.2064,-9.494137E-05
256.3064,-9.493855E-05
256.4064,-9.488111E-05
256.5064,-9.479729E-05
256.6064,-9.473421E-05
256.7065,-9.47003E-05
256.8065,-9.467111E-05
256.9065,-9.461083E-05
257.0065,-9.457504E-05
257.1065,-9.450442E-05
257.2065,-9.449405E-05
257.3065,-9.442626E-05
257.4065,-9.438859E-05
257.5065,-9.434621E-05
257.6065,-9.428593E-05
257.7065,-9.424449E-05
257.8065,-9.419365E-05
257.9065,-9.415692E-05
258.0065,-9.409665E-05
258.1065,-9.403449E-05
258.2065,-9.401659E-05
258.3065,-9.396009E-05
258.4066,-9.390641E-05
258.5066,-9.385461E-05
258.6066,-9.381225E-05
258.7066,-9.377363E-05
258.8066,-9.372749E-05
258.9066,-9.367851E-05
259.0066,-9.362483E-05
259.1066,-9.358246E-05
259.2066,-9.352125E-05
259.3066,-9.346569E-05
259.4066,-9.346098E-05
259.5066,-9.338941E-05
259.6066,-9.335174E-05
259.7066,-9.331595E-05
259.8066,-9.32764E-05
259.9066,-9.324061E-05
260.0067,-9.31907E-05
260.1067,-9.309087E-05
260.2067,-9.306545E-05
260.3067,-9.304944E-05
260.4067,-9.299576E-05
260.5067,-9.294868E-05
260.6067,-9.291759E-05
260.7067,-9.285827E-05
260.8067,-9.281401E-05
260.9067,-9.279047E-05
261.0067,-9.27123E-05
261.1067,-9.271513E-05
261.2067,-9.268028E-05
261.3067,-9.261529E-05
261.4067,-9.252113E-05
261.5067,-9.251266E-05
261.6068,-9.246934E-05
261.7068,-9.240436E-05
261.8068,-9.236574E-05
261.9068,-9.227816E-05
262.0068,-9.22452E-05
262.1068,-9.220283E-05
262.2068,-9.212466E-05
262.3068,-9.210018E-05
262.4068,-9.206533E-05
262.5068,-9.203237E-05
262.6068,-9.195986E-05
262.7068,-9.191842E-05
262.8068,-9.186945E-05
262.9068,-9.18186E-05
263.0068,-9.178281E-05
263.1068,-9.173949E-05
263.2068,-9.167828E-05
263.3069,-9.162365E-05
263.4069,-9.159823E-05
263.5069,-9.155208E-05
263.6069,-9.149747E-05
263.7069,-9.144756E-05
263.8069,-9.139859E-05
263.9069,-9.139011E-05
264.0069,-9.133926E-05
264.1069,-9.124697E-05
264.2069,-9.124885E-05
264.3069,-9.123943E-05
264.4069,-9.116975E-05
264.5069,-9.111701E-05
264.6069,-9.106521E-05
264.7069,-9.102095E-05
264.8069,-9.100683E-05
264.907,-9.094844E-05
265.007,-9.088722E-05
265.107,-9.082508E-05
265.207,-9.08053E-05
265.307,-9.077893E-05
265.407,-9.073089E-05
265.507,-9.068569E-05
265.607,-9.063955E-05
265.707,-9.05774E-05
265.807,-9.056139E-05
265.907,-9.051242E-05
266.007,-9.048228E-05
266.107,-9.043708E-05
266.207,-9.035797E-05
266.307,-9.031465E-05
266.407,-9.032501E-05
266.507,-9.027604E-05
266.6071,-9.020542E-05
266.7071,-9.016209E-05
266.8071,-9.012066E-05
266.9071,-9.008299E-05
267.0071,-9.00585E-05
267.1071,-8.999729E-05
267.2071,-8.995304E-05
267.3071,-8.992948E-05
267.4071,-8.98711E-05
267.5071,-8.98306E-05
267.6071,-8.9808E-05
267.7071,-8.976562E-05
267.8071,-8.96997E-05
267.9071,-8.965826E-05
268.0071,-8.961966E-05
268.1071,-8.956127E-05
268.2072,-8.953867E-05
268.3072,-8.94652E-05
268.4072,-8.940023E-05
268.5072,-8.939929E-05
268.6072,-8.937198E-05
268.7072,-8.927215E-05
268.8072,-8.926462E-05
268.9072,-8.923543E-05
269.0072,-8.919022E-05
269.1072,-8.912148E-05
269.2072,-8.906874E-05
269.3072,-8.902165E-05
269.4072,-8.900282E-05
269.5072,-8.895385E-05
269.6072,-8.887568E-05
269.7072,-8.885779E-05
269.8073,-8.882106E-05
269.9073,-8.878057E-05
270.0073,-8.873442E-05
270.1073,-8.867228E-05
270.2073,-8.861294E-05
270.3073,-8.861389E-05
270.4073,-8.857528E-05
270.5073,-8.850276E-05
270.6073,-8.84472E-05
270.7073,-8.841424E-05
270.8073,-8.837092E-05
270.9073,-8.834738E-05
271.0073,-8.831536E-05
271.1073,-8.825603E-05
271.2073,-8.822871E-05
271.3073,-8.820046E-05
271.4073,-8.813549E-05
271.5074,-8.812229E-05
271.6074,-8.80884E-05
271.7074,-8.804131E-05
271.8074,-8.799046E-05
271.9074,-8.795561E-05
272.0074,-8.792547E-05
272.1074,-8.787085E-05
272.2074,-8.784355E-05
272.3074,-8.778799E-05
272.4074,-8.777103E-05
272.5074,-8.773054E-05
272.6074,-8.764862E-05
272.7074,-8.761941E-05
272.8074,-8.760435E-05
272.9074,-8.756479E-05
273.0074,-8.750547E-05
273.1075,-8.74904E-05
273.2075,-8.743955E-05
273.3075,-8.737927E-05
273.4075,-8.734067E-05
273.5075,-8.730394E-05
273.6075,-8.723802E-05
273.7075,-8.722954E-05
273.8075,-8.717587E-05
273.9075,-8.712783E-05
274.0075,-8.710711E-05
274.1075,-8.70525E-05
274.2075,-8.700069E-05
274.3075,-8.695738E-05
274.4075,-8.691406E-05
274.5075,-8.686604E-05
274.6075,-8.686226E-05
274.7076,-8.678505E-05
274.8076,-8.673984E-05
274.9076,-8.671441E-05
275.0076,-8.671818E-05
275.1076,-8.666921E-05
275.2076,-8.661177E-05
275.3076,-8.656562E-05
275.4076,-8.651759E-05
275.5076,-8.649404E-05
275.6076,-8.645732E-05
275.7076,-8.640364E-05
275.8076,-8.636503E-05
275.9076,-8.630005E-05
276.0076,-8.626144E-05
276.1076,-8.625579E-05
276.2076,-8.621719E-05
276.3076,-8.616633E-05
276.4077,-8.613243E-05
276.5077,-8.609758E-05
276.6077,-8.603637E-05
276.7077,-8.599776E-05
276.8077,-8.596385E-05
276.9077,-8.592148E-05
277.0077,-8.588758E-05
277.1077,-8.584896E-05
277.2077,-8.581788E-05
277.3077,-8.578116E-05
277.4077,-8.574914E-05
277.5077,-8.571524E-05
277.6077,-8.572466E-05
277.7077,-8.56964E-05
277.8077,-8.564837E-05
277.9077,-8.564272E-05
278.0078,-8.560129E-05
278.1078,-8.550523E-05
278.2078,-8.545061E-05
278.3078,-8.540635E-05
278.4078,-8.538187E-05
278.5078,-8.531688E-05
278.6078,-8.528204E-05
278.7078,-8.524814E-05
278.8078,-8.522647E-05
278.9078,-8.517091E-05
279.0078,-8.51097E-05
279.1078,-8.509368E-05
279.2078,-8.506545E-05
279.3078,-8.504096E-05
279.4078,-8.49788E-05
279.5078,-8.492795E-05
279.6078,-8.492701E-05
279.7079,-8.488275E-05
279.8079,-8.483189E-05
279.9079,-8.480176E-05
280.0079,-8.474148E-05
280.1079,-8.475656E-05
280.2079,-8.471136E-05
280.3079,-8.465297E-05
280.4079,-8.460682E-05
280.5079,-8.459081E-05
280.6079,-8.455502E-05
280.7079,-8.449476E-05
280.8079,-8.447497E-05
280.9079,-8.443448E-05
281.0079,-8.437892E-05
281.1079,-8.437421E-05
281.2079,-8.431865E-05
281.308,-8.426968E-05
281.408,-8.424331E-05
281.508,-8.420188E-05
281.608,-8.414255E-05
281.708,-8.41435E-05
281.808,-8.410581E-05
281.908,-8.405025E-05
282.008,-8.400693E-05
282.108,-8.395797E-05
282.208,-8.392877E-05
282.308,-8.392501E-05
282.408,-8.387227E-05
282.508,-8.381106E-05
282.608,-8.378374E-05
282.708,-8.373478E-05
282.808,-8.369429E-05
282.9081,-8.367733E-05
283.0081,-8.36246E-05
283.1081,-8.35794E-05
283.2081,-8.358034E-05
283.3081,-8.35323E-05
283.4081,-8.348615E-05
283.5081,-8.342966E-05
283.6081,-8.338351E-05
283.7081,-8.335149E-05
283.8081,-8.333172E-05
283.9081,-8.330723E-05
284.0081,-8.325732E-05
284.1081,-8.3214E-05
284.2081,-8.319517E-05
284.3081,-8.316314E-05
284.4081,-8.311982E-05
284.5081,-8.306991E-05
284.6082,-8.302659E-05
284.7082,-8.298893E-05
284.8082,-8.297009E-05
284.9082,-8.294278E-05
285.0082,-8.290699E-05
285.1082,-8.286178E-05
285.2082,-8.281753E-05
285.3082,-8.279305E-05
285.4082,-8.277797E-05
285.5082,-8.272806E-05
285.6082,-8.266685E-05
285.7082,-8.264802E-05
285.8082,-8.26273E-05
285.9082,-8.25708E-05
286.0082,-8.255291E-05
286.1082,-8.251524E-05
286.2083,-8.246249E-05
286.3083,-8.244272E-05
286.4083,-8.240317E-05
286.5083,-8.237398E-05
286.6083,-8.235232E-05
286.7083,-8.229676E-05
286.8083,-8.223649E-05
286.9083,-8.224119E-05
287.0083,-8.220634E-05
287.1083,-8.217433E-05
287.2083,-8.213666E-05
287.3083,-8.208392E-05
287.4083,-8.204531E-05
287.5083,-8.205661E-05
287.6083,-8.199069E-05
287.7083,-8.19502E-05
287.8083,-8.192383E-05
287.9084,-8.186733E-05
288.0084,-8.183248E-05
288.1084,-8.183719E-05
288.2084,-8.180328E-05
288.3084,-8.174113E-05
288.4084,-8.170629E-05
288.5084,-8.166862E-05
288.6084,-8.164414E-05
288.7084,-8.160363E-05
288.8084,-8.156879E-05
288.9084,-8.153301E-05
289.0084,-8.147085E-05
289.1084,-8.148122E-05
289.2084,-8.140776E-05
289.3084,-8.136538E-05
289.4084,-8.133995E-05
289.5085,-8.129381E-05
289.6085,-8.126932E-05
289.7085,-8.123637E-05
289.8085,-8.119587E-05
289.9085,-8.116197E-05
290.0085,-8.11469E-05
290.1085,-8.108098E-05
290.2085,-8.105649E-05
290.3085,-8.105932E-05
290.4085,-8.098681E-05
290.5085,-8.095761E-05
290.6085,-8.094442E-05
290.7085,-8.091241E-05
290.8085,-8.087756E-05
290.9085,-8.083518E-05
291.0085,-8.078715E-05
291.1086,-8.073066E-05
291.2086,-8.074478E-05
291.3086,-8.069204E-05
291.4086,-8.062705E-05
291.5086,-8.061199E-05
291.6086,-8.056585E-05
291.7086,-8.053289E-05
291.8086,-8.051217E-05
291.9086,-8.045284E-05
292.0086,-8.042365E-05
292.1086,-8.038504E-05
292.2086,-8.036244E-05
292.3086,-8.033701E-05
292.4086,-8.031911E-05
292.5086,-8.026732E-05
292.6086,-8.022683E-05
292.7086,-8.022588E-05
292.8087,-8.01788E-05
292.9087,-8.012795E-05
293.0087,-8.009404E-05
293.1087,-8.008462E-05
293.2087,-8.006108E-05
293.3087,-8.005543E-05
293.4087,-7.997915E-05
293.5087,-7.994996E-05
293.6087,-7.992076E-05
293.7087,-7.98718E-05
293.8087,-7.982847E-05
293.9087,-7.98134E-05
294.0087,-7.975408E-05
294.1087,-7.971358E-05
294.2087,-7.969945E-05
294.3087,-7.966932E-05
294.4088,-7.959681E-05
294.5088,-7.956856E-05
294.6088,-7.955726E-05
294.7088,-7.952806E-05
294.8088,-7.949321E-05
294.9088,-7.943483E-05
295.0088,-7.940658E-05
295.1088,-7.936137E-05
295.2088,-7.93529E-05
295.3088,-7.931147E-05
295.4088,-7.927755E-05
295.5088,-7.924554E-05
295.6088,-7.920223E-05
295.7088,-7.918527E-05
295.8088,-7.915514E-05
295.9088,-7.912029E-05
296.0089,-7.90685E-05
296.1089,-7.906002E-05
296.2089,-7.898091E-05
296.3089,-7.895925E-05
296.4089,-7.895078E-05
296.5089,-7.890182E-05
296.6089,-7.885849E-05
296.7089,-7.887262E-05
296.8089,-7.884436E-05
296.9089,-7.879633E-05
297.0089,-7.876996E-05
297.1089,-7.870499E-05
297.2089,-7.866733E-05
297.3089,-7.867391E-05
297.4089,-7.862494E-05
297.5089,-7.857126E-05
297.6089,-7.855055E-05
297.709,-7.851476E-05
297.809,-7.846484E-05
297.909,-7.843942E-05
298.009,-7.839892E-05
298.109,-7.837349E-05
298.209,-7.835843E-05
298.309,-7.830004E-05
298.409,-7.828027E-05
298.509,-7.824166E-05
298.609,-7.821717E-05
298.709,-7.817668E-05
298.809,-7.812488E-05
298.909,-7.810511E-05
299.009,-7.806367E-05
299.109,-7.805613E-05
299.209,-7.803542E-05
299.3091,-7.79629E-05
299.4091,-7.793182E-05
299.5091,-7.792711E-05
299.6091,-7.789228E-05
299.7091,-7.787249E-05
299.8091,-7.781976E-05
299.9091,-7.776703E-05
300.0091,-7.777833E-05
300.1091,-7.774442E-05
300.2091,-7.767285E-05
300.3091,-7.762483E-05
300.4091,-7.763424E-05
300.5091,-7.760034E-05
300.6091,-7.756832E-05
300.7091,-7.753442E-05
300.8091,-7.746756E-05
300.9091,-7.744777E-05
301.0092,-7.747132E-05
301.1092,-7.740634E-05
301.2092,-7.735737E-05
301.3092,-7.733289E-05
301.4092,-7.728391E-05
301.5092,-7.725472E-05
301.6092,-7.724531E-05
301.7092,-7.719162E-05
301.8092,-7.714266E-05
301.9092,-7.713795E-05
302.0092,-7.711251E-05
302.1092,-7.707956E-05
302.2092,-7.705037E-05
302.3092,-7.698915E-05
302.4092,-7.695713E-05
302.5092,-7.697503E-05
302.6093,-7.692888E-05
302.7093,-7.688368E-05
302.8093,-7.685637E-05
302.9093,-7.680646E-05
303.0093,-7.67669E-05
303.1093,-7.675373E-05
303.2093,-7.673112E-05
303.3093,-7.668309E-05
303.4093,-7.667462E-05
303.5093,-7.66153E-05
303.6093,-7.661057E-05
303.7093,-7.659927E-05
303.8093,-7.655125E-05
303.9093,-7.649474E-05
304.0093,-7.647026E-05
304.1093,-7.643823E-05
304.2094,-7.641376E-05
304.3094,-7.637608E-05
304.4094,-7.635631E-05
304.5094,-7.627343E-05
304.6094,-7.628191E-05
304.7094,-7.62546E-05
304.8094,-7.621788E-05
304.9094,-7.61981E-05
305.0094,-7.614442E-05
305.1094,-7.610204E-05
305.2094,-7.609451E-05
305.3094,-7.60785E-05
305.4094,-7.603424E-05
305.5094,-7.598244E-05
305.6094,-7.595702E-05
305.7094,-7.5925E-05
305.8094,-7.591747E-05
305.9095,-7.589016E-05
306.0095,-7.584871E-05
306.1095,-7.579786E-05
306.2095,-7.579409E-05
306.3095,-7.57875E-05
306.4095,-7.574325E-05
306.5095,-7.571122E-05
306.6095,-7.563872E-05
306.7095,-7.564154E-05
306.8095,-7.563589E-05
306.9095,-7.55549E-05
307.0095,-7.555678E-05
307.1095,-7.558786E-05
307.2095,-7.554077E-05
307.3095,-7.546449E-05
307.4095,-7.543153E-05
307.5096,-7.541364E-05
307.6096,-7.536749E-05
307.7096,-7.536654E-05
307.8096,-7.530628E-05
307.9096,-7.524225E-05
308.0096,-7.523847E-05
308.1096,-7.520551E-05
308.2096,-7.517255E-05
308.3096,-7.51669E-05
308.4096,-7.512358E-05
308.5096,-7.510946E-05
308.6096,-7.507367E-05
308.7096,-7.502564E-05
308.8096,-7.497196E-05
308.9096,-7.494748E-05
309.0096,-7.493336E-05
309.1096,-7.488627E-05
309.2097,-7.487497E-05
309.3097,-7.483165E-05
309.4097,-7.479774E-05
309.5097,-7.479304E-05
309.6097,-7.474313E-05
309.7097,-7.471393E-05
309.8097,-7.470546E-05
309.9097,-7.467249E-05
310.0097,-7.461693E-05
310.1097,-7.457362E-05
310.2097,-7.45642E-05
310.3097,-7.453594E-05
310.4097,-7.451334E-05
310.5097,-7.448886E-05
310.6097,-7.443047E-05
310.7097,-7.440034E-05
310.8098,-7.440128E-05
310.9098,-7.437585E-05
311.0098,-7.433064E-05
311.1098,-7.432594E-05
311.2098,-7.431088E-05
311.3098,-7.429298E-05
311.4098,-7.425908E-05
311.5098,-7.418374E-05
311.6098,-7.416114E-05
311.7098,-7.419032E-05
311.8098,-7.411688E-05
311.9098,-7.407543E-05
312.0098,-7.407826E-05
312.1098,-7.401234E-05
312.2098,-7.395113E-05
312.3098,-7.39549E-05
312.4099,-7.392665E-05
312.5099,-7.393606E-05
312.6099,-7.388615E-05
312.7099,-7.383153E-05
312.8099,-7.38174E-05
312.9099,-7.380045E-05
313.0099,-7.37496E-05
313.1099,-7.373736E-05
313.2099,-7.36931E-05
313.3099,-7.366201E-05
313.4099,-7.36366E-05
313.5099,-7.36008E-05
313.6099,-7.359045E-05
313.7099,-7.35283E-05
313.8099,-7.350757E-05
313.9099,-7.350569E-05
314.0099,-7.344259E-05
314.11,-7.340398E-05
314.21,-7.340116E-05
314.31,-7.33729E-05
314.41,-7.33456E-05
314.51,-7.330793E-05
314.61,-7.32646E-05
314.71,-7.32307E-05
314.81,-7.324389E-05
314.91,-7.319021E-05
315.01,-7.315347E-05
315.11,-7.3129E-05
315.21,-7.310357E-05
315.31,-7.307249E-05
315.41,-7.305084E-05
315.51,-7.30141E-05
315.61,-7.297267E-05
315.7101,-7.297738E-05
315.8101,-7.294159E-05
315.9101,-7.289356E-05
316.0101,-7.286907E-05
316.1101,-7.284083E-05
316.2101,-7.281069E-05
316.3101,-7.280692E-05
316.4101,-7.275418E-05
316.5101,-7.269298E-05
316.6101,-7.269203E-05
316.7101,-7.266661E-05
316.8101,-7.263741E-05
316.9101,-7.260068E-05
317.0101,-7.255549E-05
317.1101,-7.254795E-05
317.2101,-7.25197E-05
317.3102,-7.249239E-05
317.4102,-7.245471E-05
317.5102,-7.243871E-05
317.6102,-7.236431E-05
317.7102,-7.235866E-05
317.8102,-7.237844E-05
317.9102,-7.234265E-05
318.0102,-7.227202E-05
318.1102,-7.226825E-05
318.2102,-7.225695E-05
318.3102,-7.223152E-05
318.4102,-7.219292E-05
318.5102,-7.217879E-05
318.6102,-7.212794E-05
318.7102,-7.211947E-05
318.8102,-7.208368E-05
318.9102,-7.205165E-05
319.0103,-7.203942E-05
319.1103,-7.198856E-05
319.2103,-7.19848E-05
319.3103,-7.195749E-05
319.4103,-7.192169E-05
319.5103,-7.190663E-05
319.6103,-7.186331E-05
319.7103,-7.185013E-05
319.8103,-7.180587E-05
319.9103,-7.17682E-05
320.0103,-7.18021E-05
320.1103,-7.174277E-05
320.2103,-7.170886E-05
320.3103,-7.169756E-05
320.4103,-7.166178E-05
320.5103,-7.165519E-05
320.6104,-7.160998E-05
320.7104,-7.159304E-05
320.8104,-7.156101E-05
320.9104,-7.154124E-05
321.0104,-7.150733E-05
321.1104,-7.148474E-05
321.2104,-7.146119E-05
321.3104,-7.142541E-05
321.4104,-7.139998E-05
321.5104,-7.140658E-05
321.6104,-7.138114E-05
321.7104,-7.134629E-05
321.8104,-7.129357E-05
321.9104,-7.128227E-05
322.0104,-7.125213E-05
322.1104,-7.126343E-05
322.2104,-7.117773E-05
322.3105,-7.113629E-05
322.4105,-7.113912E-05
322.5105,-7.113064E-05
322.6105,-7.108074E-05
322.7105,-7.105153E-05
322.8105,-7.101952E-05
322.9105,-7.099692E-05
323.0105,-7.097903E-05
323.1105,-7.094607E-05
323.2105,-7.090086E-05
323.3105,-7.089427E-05
323.4105,-7.087543E-05
323.5105,-7.083494E-05
323.6105,-7.081423E-05
323.7105,-7.07935E-05
323.8105,-7.07257E-05
323.9106,-7.071062E-05
324.0106,-7.070781E-05
324.1106,-7.068709E-05
324.2106,-7.064471E-05
324.3106,-7.063246E-05
324.4106,-7.06127E-05
324.5106,-7.057219E-05
324.6106,-7.055148E-05
324.7106,-7.052323E-05
324.8106,-7.050157E-05
324.9106,-7.046956E-05
325.0106,-7.043659E-05
325.1106,-7.039609E-05
325.2106,-7.040457E-05
325.3106,-7.036031E-05
325.4106,-7.032735E-05
325.5107,-7.028873E-05
325.6107,-7.028026E-05
325.7107,-7.024824E-05
325.8107,-7.025389E-05
325.9107,-7.019927E-05
326.0107,-7.018515E-05
326.1107,-7.016913E-05
326.2107,-7.01503E-05
326.3107,-7.008061E-05
326.4107,-7.006836E-05
326.5107,-7.007496E-05
326.6107,-7.003635E-05
326.7107,-6.998079E-05
326.8107,-6.995913E-05
326.9107,-6.993182E-05
327.0107,-6.993936E-05
327.1107,-6.990734E-05
327.2108,-6.983199E-05
327.3108,-6.983953E-05
327.4108,-6.983765E-05
327.5108,-6.97576E-05
327.6108,-6.973688E-05
327.7108,-6.975383E-05
327.8108,-6.9735E-05
327.9108,-6.970203E-05
328.0108,-6.96606E-05
328.1108,-6.965589E-05
328.2108,-6.960692E-05
328.3108,-6.961163E-05
328.4108,-6.953441E-05
328.5108,-6.952781E-05
328.6108,-6.951464E-05
328.7108,-6.945813E-05
328.8109,-6.942423E-05
328.9109,-6.940822E-05
329.0109,-6.939503E-05
329.1109,-6.936678E-05
329.2109,-6.933758E-05
329.3109,-6.931687E-05
329.4109,-6.927166E-05
329.5109,-6.930274E-05
329.6109,-6.924435E-05
329.7109,-6.920198E-05
329.8109,-6.918879E-05
329.9109,-6.917938E-05
330.0109,-6.915112E-05
330.1109,-6.911628E-05
330.2109,-6.90965E-05
330.3109,-6.907673E-05
330.4109,-6.90692E-05
330.511,-6.90626E-05
330.611,-6.90061E-05
330.711,-6.898161E-05
330.811,-6.895242E-05
330.911,-6.893076E-05
331.011,-6.893076E-05
331.111,-6.891946E-05
331.211,-6.887049E-05
331.311,-6.883281E-05
331.411,-6.880928E-05
331.511,-6.88008E-05
331.611,-6.878667E-05
331.711,-6.875466E-05
331.811,-6.871134E-05
331.911,-6.868591E-05
332.011,-6.870098E-05
332.1111,-6.8652E-05
332.2111,-6.862658E-05
332.3111,-6.862564E-05
332.4111,-6.858514E-05
332.5111,-6.85437E-05
332.6111,-6.854465E-05
332.7111,-6.850604E-05
332.8111,-6.846083E-05
332.9111,-6.846365E-05
333.0111,-6.843352E-05
333.1111,-6.840056E-05
333.2111,-6.838078E-05
333.3111,-6.831958E-05
333.4111,-6.832899E-05
333.5111,-6.833841E-05
333.6111,-6.826589E-05
333.7112,-6.823764E-05
333.8112,-6.822635E-05
333.9112,-6.820845E-05
334.0112,-6.816607E-05
334.1112,-6.816419E-05
334.2112,-6.812558E-05
334.3112,-6.807662E-05
334.4112,-6.809449E-05
334.5112,-6.804082E-05
334.6112,-6.801163E-05
334.7112,-6.802011E-05
334.8112,-6.800597E-05
334.9112,-6.797396E-05
335.0112,-6.793912E-05
335.1112,-6.790333E-05
335.2112,-6.78619E-05
335.3112,-6.787413E-05
335.4113,-6.784588E-05
335.5113,-6.779408E-05
335.6113,-6.778278E-05
335.7113,-6.779221E-05
335.8113,-6.773476E-05
335.9113,-6.770086E-05
336.0113,-6.769991E-05
336.1113,-6.768956E-05
336.2113,-6.764624E-05
336.3113,-6.761328E-05
336.4113,-6.758973E-05
336.5113,-6.757938E-05
336.6113,-6.756053E-05
336.7113,-6.752476E-05
336.8113,-6.747108E-05
336.9113,-6.746166E-05
337.0114,-6.745224E-05
337.1114,-6.744471E-05
337.2114,-6.739385E-05
337.3114,-6.735995E-05
337.4114,-6.732323E-05
337.5114,-6.731852E-05
337.6114,-6.728649E-05
337.7114,-6.724318E-05
337.8114,-6.724318E-05
337.9114,-6.723752E-05
338.0114,-6.719797E-05
338.1114,-6.71782E-05
338.2114,-6.71603E-05
338.3114,-6.714052E-05
338.4114,-6.711793E-05
338.5114,-6.706896E-05
338.6115,-6.702846E-05
338.7115,-6.703223E-05
338.8115,-6.699079E-05
338.9115,-6.697101E-05
339.0115,-6.695783E-05
339.1115,-6.689662E-05
339.2115,-6.687496E-05
339.3115,-6.688061E-05
339.4115,-6.684577E-05
339.5115,-6.680433E-05
339.6115,-6.680433E-05
339.7115,-6.676666E-05
339.8115,-6.674499E-05
339.9115,-6.674782E-05
340.0115,-6.672333E-05
340.1115,-6.670168E-05
340.2115,-6.668002E-05
340.3116,-6.662822E-05
340.4116,-6.659904E-05
340.5116,-6.663105E-05
340.6116,-6.661221E-05
340.7116,-6.656136E-05
340.8116,-6.65218E-05
340.9116,-6.652087E-05
341.0116,-6.649544E-05
341.1116,-6.648697E-05
341.2116,-6.643517E-05
341.3116,-6.641162E-05
341.4116,-6.640127E-05
341.5116,-6.63862E-05
341.6116,-6.63636E-05
341.7116,-6.636736E-05
341.8116,-6.631651E-05
341.9117,-6.628167E-05
342.0117,-6.627413E-05
342.1117,-6.62553E-05
342.2117,-6.622611E-05
342.3117,-6.620162E-05
342.4117,-6.618749E-05
342.5117,-6.613193E-05
342.6117,-6.613476E-05
342.7117,-6.611875E-05
342.8117,-6.608673E-05
342.9117,-6.606884E-05
343.0117,-6.602929E-05
343.1117,-6.601233E-05
343.2117,-6.601328E-05
343.3117,-6.599443E-05
343.4117,-6.595959E-05
343.5117,-6.593134E-05
343.6118,-6.590968E-05
343.7118,-6.588802E-05
343.8118,-6.586542E-05
343.9118,-6.58626E-05
344.0118,-6.581645E-05
344.1118,-6.579479E-05
344.2118,-6.58061E-05
344.3118,-6.577124E-05
344.4118,-6.573546E-05
344.5118,-6.57204E-05
344.6118,-6.568178E-05
344.7118,-6.564412E-05
344.8118,-6.564506E-05
344.9118,-6.562151E-05
345.0118,-6.557066E-05
345.1118,-6.557537E-05
345.2119,-6.554146E-05
345.3119,-6.553111E-05
345.4119,-6.553394E-05
345.5119,-6.547178E-05
345.6119,-6.543223E-05
345.7119,-6.540303E-05
345.8119,-6.539644E-05
345.9119,-6.536913E-05
346.0119,-6.536913E-05
346.1119,-6.533335E-05
346.2119,-6.529379E-05
346.3119,-6.527872E-05
346.4119,-6.529567E-05
346.5119,-6.524954E-05
346.6119,-6.521093E-05
346.7119,-6.520809E-05
346.812,-6.518549E-05
346.912,-6.517984E-05
347.012,-6.513653E-05
347.112,-6.509414E-05
347.212,-6.510544E-05
347.312,-6.510451E-05
347.412,-6.501409E-05
347.512,-6.503011E-05
347.612,-6.505553E-05
347.712,-6.507154E-05
347.812,-6.500845E-05
347.912,-6.497643E-05
348.012,-6.497172E-05
348.112,-6.491334E-05
348.212,-6.491145E-05
348.312,-6.488414E-05
348.412,-6.485872E-05
348.5121,-6.483517E-05
348.6121,-6.479938E-05
348.7121,-6.479656E-05
348.8121,-6.479562E-05
348.9121,-6.474947E-05
349.0121,-6.471462E-05
349.1121,-6.469108E-05
349.2121,-6.469391E-05
349.3121,-6.464493E-05
349.4121,-6.462799E-05
349.5121,-6.459692E-05
349.6121,-6.45583E-05
349.7121,-6.456395E-05
349.8121,-6.453287E-05
349.9121,-6.448673E-05
350.0121,-6.450179E-05
350.1122,-6.447636E-05
350.2122,-6.443117E-05
350.3122,-6.441986E-05
350.4122,-6.442269E-05
350.5122,-6.439632E-05
350.6122,-6.436901E-05
350.7122,-6.434265E-05
350.8122,-6.431252E-05
350.9122,-6.427107E-05
351.0122,-6.426637E-05
351.1122,-6.423435E-05
351.2122,-6.423811E-05
351.3122,-6.419855E-05
351.4122,-6.414393E-05
351.5122,-6.41364E-05
351.6122,-6.4159E-05
351.7122,-6.412605E-05
351.8123,-6.409309E-05
351.9123,-6.405071E-05
352.0123,-6.405164E-05
352.1123,-6.402622E-05
352.2123,-6.402151E-05
352.3123,-6.399138E-05
352.4123,-6.394995E-05
352.5123,-6.395466E-05
352.6123,-6.392734E-05
352.7123,-6.389438E-05
352.8123,-6.390568E-05
352.9123,-6.388025E-05
353.0123,-6.385859E-05
353.1123,-6.384165E-05
353.2123,-6.383034E-05
353.3123,-6.378985E-05
353.4124,-6.378232E-05
353.5124,-6.374182E-05
353.6124,-6.373617E-05
353.7124,-6.371921E-05
353.8124,-6.369568E-05
353.9124,-6.366554E-05
354.0124,-6.366082E-05
354.1124,-6.363258E-05
354.2124,-6.360339E-05
354.3124,-6.358173E-05
354.4124,-6.359209E-05
354.5124,-6.354688E-05
354.6124,-6.352993E-05
354.7124,-6.350545E-05
354.8124,-6.349414E-05
354.9124,-6.347813E-05
355.0125,-6.344423E-05
355.1125,-6.341787E-05
355.2125,-6.34141E-05
355.3125,-6.340467E-05
355.4125,-6.336607E-05
355.5125,-6.335383E-05
355.6125,-6.334441E-05
355.7125,-6.333028E-05
355.8125,-6.331239E-05
355.9125,-6.329732E-05
356.0125,-6.325023E-05
356.1125,-6.324176E-05
356.2125,-6.324835E-05
356.3125,-6.322669E-05
356.4125,-6.317395E-05
356.5125,-6.318243E-05
356.6125,-6.318431E-05
356.7126,-6.314852E-05
356.8126,-6.310992E-05
356.9126,-6.309579E-05
357.0126,-6.308355E-05
357.1126,-6.307979E-05
357.2126,-6.305247E-05
357.3126,-6.301763E-05
357.4126,-6.299032E-05
357.5126,-6.298278E-05
357.6126,-6.293098E-05
357.7126,-6.294512E-05
357.8126,-6.291216E-05
357.9126,-6.287071E-05
358.0126,-6.286131E-05
358.1126,-6.282268E-05
358.2126,-6.279821E-05
358.3127,-6.280856E-05
358.4127,-6.276713E-05
358.5127,-6.273981E-05
358.6127,-6.270403E-05
358.7127,-6.26965E-05
358.8127,-6.267107E-05
358.9127,-6.269461E-05
359.0127,-6.264094E-05
359.1127,-6.261833E-05
359.2127,-6.260421E-05
359.3127,-6.258066E-05
359.4127,-6.256277E-05
359.5127,-6.256465E-05
359.6127,-6.250909E-05
359.7127,-6.249214E-05
359.8127,-6.247519E-05
359.9128,-6.245824E-05
360.0128,-6.242905E-05
360.1128,-6.243093E-05
360.2128,-6.238667E-05
360.3128,-6.235747E-05
360.4128,-6.235936E-05
360.5128,-6.234711E-05
360.6128,-6.230568E-05
360.7128,-6.228779E-05
360.8128,-6.228872E-05
360.9128,-6.225576E-05
361.0128,-6.22341E-05
361.1128,-6.221621E-05
361.2128,-6.219078E-05
361.3128,-6.215877E-05
361.4128,-6.21437E-05
361.5128,-6.212958E-05
361.6129,-6.211733E-05
361.7129,-6.210226E-05
361.8129,-6.204576E-05
361.9129,-6.206271E-05
362.0129,-6.204293E-05
362.1129,-6.201374E-05
362.2129,-6.199491E-05
362.3129,-6.197137E-05
362.4129,-6.195912E-05
362.5129,-6.19158E-05
362.6129,-6.193746E-05
362.7129,-6.18932E-05
362.8129,-6.185364E-05
362.9129,-6.183952E-05
363.0129,-6.183011E-05
363.1129,-6.181316E-05
363.213,-6.181127E-05
363.313,-6.176889E-05
363.413,-6.17331E-05
363.513,-6.173123E-05
363.613,-6.172086E-05
363.713,-6.170674E-05
363.813,-6.16766E-05
363.913,-6.165965E-05
364.013,-6.161445E-05
364.113,-6.161256E-05
364.213,-6.158902E-05
364.313,-6.156171E-05
364.413,-6.156642E-05
364.513,-6.155889E-05
364.613,-6.154853E-05
364.713,-6.152216E-05
364.813,-6.148354E-05
364.9131,-6.150615E-05
365.0131,-6.146095E-05
365.1131,-6.144871E-05
365.2131,-6.146095E-05
365.3131,-6.143269E-05
365.4131,-6.141103E-05
365.5131,-6.140915E-05
365.6131,-6.136771E-05
365.7131,-6.135923E-05
365.8131,-6.133381E-05
365.9131,-6.12952E-05
366.0131,-6.127825E-05
366.1131,-6.124717E-05
366.2131,-6.12274E-05
366.3131,-6.122363E-05
366.4131,-6.118407E-05
366.5132,-6.117277E-05
366.6132,-6.118596E-05
366.7132,-6.115583E-05
366.8132,-6.112381E-05
366.9132,-6.112851E-05
367.0132,-6.111251E-05
367.1132,-6.107107E-05
367.2132,-6.105223E-05
367.3132,-6.103623E-05
367.4132,-6.099856E-05
367.5132,-6.099667E-05
367.6132,-6.097031E-05
367.7132,-6.093923E-05
367.8132,-6.093357E-05
367.9132,-6.089967E-05
368.0132,-6.089214E-05
368.1133,-6.087331E-05
368.2133,-6.087707E-05
368.3133,-6.082622E-05
368.4133,-6.079043E-05
368.5133,-6.082057E-05
368.6133,-6.07942E-05
368.7133,-6.074523E-05
368.8133,-6.0749E-05
368.9133,-6.073487E-05
369.0133,-6.072451E-05
369.1133,-6.071792E-05
369.2133,-6.067554E-05
369.3133,-6.06341E-05
369.4133,-6.064447E-05
369.5133,-6.061998E-05
369.6133,-6.059832E-05
369.7133,-6.058608E-05
369.8134,-6.053805E-05
369.9134,-6.051451E-05
370.0134,-6.056253E-05
370.1134,-6.053146E-05
370.2134,-6.047778E-05
370.3134,-6.047589E-05
370.4134,-6.045894E-05
370.5134,-6.04467E-05
370.6134,-6.044293E-05
370.7134,-6.039773E-05
370.8134,-6.037513E-05
370.9134,-6.041185E-05
371.0134,-6.038925E-05
371.1134,-6.033746E-05
371.2134,-6.032428E-05
371.3134,-6.031015E-05
371.4135,-6.029791E-05
371.5135,-6.028284E-05
371.6135,-6.026589E-05
371.7135,-6.022257E-05
371.8135,-6.02414E-05
371.9135,-6.021692E-05
372.0135,-6.017454E-05
372.1135,-6.016983E-05
372.2135,-6.015382E-05
372.3135,-6.011427E-05
372.4135,-6.010203E-05
372.5135,-6.009732E-05
372.6135,-6.005682E-05
372.7135,-6.008978E-05
372.8135,-6.00474E-05
372.9135,-5.99862E-05
373.0135,-5.999185E-05
373.1136,-5.999373E-05
373.2136,-5.998054E-05
373.3136,-5.992875E-05
373.4136,-5.992216E-05
373.5136,-5.99118E-05
373.6136,-5.990803E-05
373.7136,-5.98713E-05
373.8136,-5.985624E-05
373.9136,-5.985247E-05
374.0136,-5.982893E-05
374.1136,-5.978561E-05
374.2136,-5.97922E-05
374.3136,-5.97922E-05
374.4136,-5.976206E-05
374.5136,-5.97178E-05
374.6136,-5.970085E-05
374.7137,-5.970838E-05
374.8137,-5.969332E-05
374.9137,-5.967636E-05
375.0137,-5.965565E-05
375.1137,-5.96208E-05
375.2137,-5.962928E-05
375.3137,-5.958973E-05
375.4137,-5.957654E-05
375.5137,-5.954452E-05
375.6137,-5.951156E-05
375.7137,-5.952192E-05
375.8137,-5.950968E-05
375.9137,-5.950214E-05
376.0137,-5.945505E-05
376.1137,-5.944941E-05
376.2137,-5.941927E-05
376.3138,-5.942304E-05
376.4138,-5.940797E-05
376.5138,-5.935429E-05
376.6138,-5.934581E-05
376.7138,-5.937784E-05
376.8138,-5.935147E-05
376.9138,-5.929873E-05
377.0138,-5.928178E-05
377.1138,-5.928178E-05
377.2138,-5.925918E-05
377.3138,-5.925636E-05
377.4138,-5.92281E-05
377.5138,-5.919608E-05
377.6138,-5.918666E-05
377.7138,-5.914335E-05
377.8138,-5.914052E-05
377.9138,-5.916594E-05
378.0139,-5.912639E-05
378.1139,-5.909155E-05
378.2139,-5.910756E-05
378.3139,-5.907743E-05
378.4139,-5.904635E-05
378.5139,-5.905293E-05
378.6139,-5.903222E-05
378.7139,-5.900491E-05
378.8139,-5.900962E-05
378.9139,-5.898419E-05
379.0139,-5.894652E-05
379.1139,-5.896442E-05
379.2139,-5.892863E-05
379.3139,-5.889002E-05
379.4139,-5.889849E-05
379.5139,-5.889661E-05
379.614,-5.884482E-05
379.714,-5.88354E-05
379.814,-5.881751E-05
379.914,-5.880621E-05
380.014,-5.878548E-05
380.114,-5.877324E-05
380.214,-5.873652E-05
380.314,-5.871862E-05
380.414,-5.876759E-05
380.514,-5.868943E-05
380.614,-5.868472E-05
380.714,-5.869226E-05
380.814,-5.864611E-05
380.914,-5.86301E-05
381.014,-5.862068E-05
381.114,-5.859526E-05
381.2141,-5.86075E-05
381.3141,-5.859997E-05
381.4141,-5.8551E-05
381.5141,-5.851333E-05
381.6141,-5.855759E-05
381.7141,-5.85284E-05
381.8141,-5.848037E-05
381.9141,-5.847189E-05
382.0141,-5.846718E-05
382.1141,-5.845306E-05
382.2141,-5.843705E-05
382.3141,-5.840974E-05
382.4141,-5.838996E-05
382.5141,-5.839561E-05
382.6141,-5.838243E-05
382.7141,-5.836359E-05
382.8141,-5.833722E-05
382.9142,-5.831839E-05
383.0142,-5.828543E-05
383.1142,-5.828637E-05
383.2142,-5.829484E-05
383.3142,-5.826E-05
383.4142,-5.823928E-05
383.5142,-5.825058E-05
383.6142,-5.822327E-05
383.7142,-5.818749E-05
383.8142,-5.818278E-05
383.9142,-5.81696E-05
384.0142,-5.816677E-05
384.1142,-5.814511E-05
384.2142,-5.811215E-05
384.3142,-5.809991E-05
384.4142,-5.812063E-05
384.5143,-5.810085E-05
384.6143,-5.807542E-05
384.7143,-5.8066E-05
384.8143,-5.804529E-05
384.9143,-5.804529E-05
385.0143,-5.802363E-05
385.1143,-5.798878E-05
385.2143,-5.796712E-05
385.3143,-5.794923E-05
385.4143,-5.795394E-05
385.5143,-5.793793E-05
385.6143,-5.793228E-05
385.7143,-5.789273E-05
385.8143,-5.786259E-05
385.9143,-5.785882E-05
386.0143,-5.784941E-05
386.1143,-5.78334E-05
386.2144,-5.781362E-05
386.3144,-5.777501E-05
386.4144,-5.777501E-05
386.5144,-5.777312E-05
386.6144,-5.774299E-05
386.7144,-5.771003E-05
386.8144,-5.772698E-05
386.9144,-5.770155E-05
387.0144,-5.76846E-05
387.1144,-5.768743E-05
387.2144,-5.765729E-05
387.3144,-5.764129E-05
387.4144,-5.763469E-05
387.5144,-5.760173E-05
387.6144,-5.757819E-05
387.7144,-5.755559E-05
387.8145,-5.757065E-05
387.9145,-5.753675E-05
388.0145,-5.751697E-05
388.1145,-5.751603E-05
388.2145,-5.745293E-05
388.3145,-5.749249E-05
388.4145,-5.747271E-05
388.5145,-5.745105E-05
388.6145,-5.745199E-05
388.7145,-5.741621E-05
388.8145,-5.740302E-05
388.9145,-5.738231E-05
389.0145,-5.735029E-05
389.1145,-5.733616E-05
389.2145,-5.732957E-05
389.3145,-5.72919E-05
389.4146,-5.727118E-05
389.5146,-5.726647E-05
389.6146,-5.724482E-05
389.7146,-5.722409E-05
389.8146,-5.723352E-05
389.9146,-5.723257E-05
390.0146,-5.717983E-05
390.1146,-5.719584E-05
390.2146,-5.720149E-05
390.3146,-5.717042E-05
390.4146,-5.716195E-05
390.5146,-5.71384E-05
390.6146,-5.712051E-05
390.7146,-5.711768E-05
390.8146,-5.710261E-05
390.9146,-5.706588E-05
391.0146,-5.704046E-05
391.1147,-5.705741E-05
391.2147,-5.702351E-05
391.3147,-5.701032E-05
391.4147,-5.698301E-05
391.5147,-5.695853E-05
391.6147,-5.697454E-05
391.7147,-5.694817E-05
391.8147,-5.688884E-05
391.9147,-5.694722E-05
392.0147,-5.694817E-05
392.1147,-5.69218E-05
392.2147,-5.68766E-05
392.3147,-5.687095E-05
392.4147,-5.685776E-05
392.5147,-5.681915E-05
392.6147,-5.682574E-05
392.7148,-5.679278E-05
392.8148,-5.677301E-05
392.9148,-5.677112E-05
393.0148,-5.676548E-05
393.1148,-5.675794E-05
393.2148,-5.676641E-05
393.3148,-5.673722E-05
393.4148,-5.667413E-05
393.5148,-5.667318E-05
393.6148,-5.668919E-05
393.7148,-5.663551E-05
393.8148,-5.664493E-05
393.9148,-5.660726E-05
394.0148,-5.659125E-05
394.1148,-5.659502E-05
394.2148,-5.657619E-05
394.3148,-5.656112E-05
394.4149,-5.655641E-05
394.5149,-5.653381E-05
394.6149,-5.651686E-05
394.7149,-5.652722E-05
394.8149,-5.65112E-05
394.9149,-5.64839E-05
395.0149,-5.644622E-05
395.1149,-5.646318E-05
395.2149,-5.642551E-05
395.3149,-5.639349E-05
395.4149,-5.640008E-05
395.5149,-5.6369E-05
395.6149,-5.635959E-05
395.7149,-5.635393E-05
395.8149,-5.632945E-05
395.9149,-5.631627E-05
396.015,-5.631344E-05
396.115,-5.629649E-05
396.215,-5.625788E-05
396.315,-5.627294E-05
396.415,-5.624563E-05
396.515,-5.621738E-05
396.615,-5.623622E-05
396.715,-5.62155E-05
396.815,-5.618819E-05
396.915,-5.619572E-05
397.015,-5.615146E-05
397.115,-5.618913E-05
397.215,-5.619196E-05
397.315,-5.61477E-05
397.415,-5.611003E-05
397.515,-5.612039E-05
397.6151,-5.610343E-05
397.7151,-5.607895E-05
397.8151,-5.607707E-05
397.9151,-5.606765E-05
398.0151,-5.602527E-05
398.1151,-5.602151E-05
398.2151,-5.601397E-05
398.3151,-5.59876E-05
398.4151,-5.597442E-05
398.5151,-5.596029E-05
398.6151,-5.592922E-05
398.7151,-5.590002E-05
398.8151,-5.590096E-05
398.9151,-5.588966E-05
399.0151,-5.588872E-05
399.1151,-5.58567E-05
399.2151,-5.581621E-05
399.3152,-5.584823E-05
399.4152,-5.584728E-05
399.5152,-5.578513E-05
399.6152,-5.581527E-05
399.7152,-5.582092E-05
399.8152,-5.580396E-05
399.9152,-5.578513E-05
400.0152,-5.577007E-05
400.1152,-5.576535E-05
400.2152,-5.5755E-05
400.3152,-5.573522E-05
400.4152,-5.569566E-05
400.5152,-5.567307E-05
400.6152,-5.569943E-05
400.7152,-5.566271E-05
400.8152,-5.564293E-05
400.9153,-5.562692E-05
401.0153,-5.558643E-05
401.1153,-5.560244E-05
401.2153,-5.56062E-05
401.3153,-5.558643E-05
401.4153,-5.5561E-05
401.5153,-5.554687E-05
401.6153,-5.555158E-05
401.7153,-5.552145E-05
401.8153,-5.552333E-05
401.9153,-5.548472E-05
402.0153,-5.545646E-05
402.1153,-5.546023E-05
402.2153,-5.544328E-05
402.3153,-5.542915E-05
402.4153,-5.541691E-05
402.5154,-5.542068E-05
402.6154,-5.537453E-05
402.7154,-5.538489E-05
402.8154,-5.538584E-05
402.9154,-5.540656E-05
403.0154,-5.537171E-05
403.1154,-5.533592E-05
403.2154,-5.53105E-05
403.3154,-5.533969E-05
403.4154,-5.532086E-05
403.5154,-5.529261E-05
403.6154,-5.527E-05
403.7154,-5.528413E-05
403.8154,-5.525399E-05
403.9154,-5.523799E-05
404.0154,-5.520879E-05
404.1154,-5.520408E-05
404.2155,-5.518431E-05
404.3155,-5.520691E-05
404.4155,-5.517395E-05
404.5155,-5.51231E-05
404.6155,-5.514193E-05
404.7155,-5.514193E-05
404.8155,-5.512403E-05
404.9155,-5.51118E-05
405.0155,-5.507412E-05
405.1155,-5.508637E-05
405.2155,-5.506753E-05
405.3155,-5.505246E-05
405.4155,-5.502327E-05
405.5155,-5.501856E-05
405.6155,-5.50195E-05
405.7155,-5.499407E-05
405.8156,-5.498937E-05
405.9156,-5.496017E-05
406.0156,-5.495923E-05
406.1156,-5.492627E-05
406.2156,-5.493098E-05
406.3156,-5.492062E-05
406.4156,-5.489896E-05
406.5156,-5.489802E-05
406.6156,-5.486223E-05
406.7156,-5.486788E-05
406.8156,-5.4866E-05
406.9156,-5.481797E-05
407.0156,-5.482739E-05
407.1156,-5.479819E-05
407.2156,-5.479254E-05
407.3156,-5.477748E-05
407.4156,-5.476618E-05
407.5157,-5.474829E-05
407.6157,-5.472286E-05
407.7157,-5.471909E-05
407.8157,-5.469272E-05
407.9157,-5.468048E-05
408.0157,-5.46946E-05
408.1157,-5.465223E-05
408.2157,-5.46381E-05
408.3157,-5.46494E-05
408.4157,-5.462115E-05
408.5157,-5.460325E-05
408.6157,-5.45863E-05
408.7157,-5.45703E-05
408.8157,-5.454581E-05
408.9157,-5.454487E-05
409.0157,-5.452886E-05
409.1158,-5.450249E-05
409.2158,-5.451379E-05
409.3158,-5.44733E-05
409.4158,-5.446482E-05
409.5158,-5.448366E-05
409.6158,-5.446577E-05
409.7158,-5.442433E-05
409.8158,-5.441679E-05
409.9158,-5.439608E-05
410.0158,-5.438007E-05
410.1158,-5.440644E-05
410.2158,-5.434805E-05
410.3158,-5.43358E-05
410.4158,-5.434428E-05
410.5158,-5.43245E-05
410.6158,-5.432074E-05
410.7159,-5.429154E-05
410.8159,-5.428024E-05
410.9159,-5.42906E-05
411.0159,-5.427365E-05
411.1159,-5.424634E-05
411.2159,-5.422468E-05
411.3159,-5.422657E-05
411.4159,-5.424163E-05
411.5159,-5.418042E-05
411.6159,-5.417948E-05
411.7159,-5.416535E-05
411.8159,-5.417383E-05
411.9159,-5.414464E-05
412.0159,-5.412109E-05
412.1159,-5.411638E-05
412.2159,-5.411826E-05
412.3159,-5.410979E-05
412.416,-5.407777E-05
412.516,-5.406082E-05
412.616,-5.405894E-05
412.716,-5.403539E-05
412.816,-5.402127E-05
412.916,-5.403069E-05
413.016,-5.39949E-05
413.116,-5.400808E-05
413.216,-5.397041E-05
413.316,-5.392333E-05
413.416,-5.396194E-05
413.516,-5.396759E-05
413.616,-5.392992E-05
413.716,-5.390826E-05
413.816,-5.390355E-05
413.916,-5.388566E-05
414.0161,-5.388942E-05
414.1161,-5.390638E-05
414.2161,-5.383575E-05
414.3161,-5.383103E-05
414.4161,-5.382821E-05
414.5161,-5.38235E-05
414.6161,-5.380467E-05
414.7161,-5.379149E-05
414.8161,-5.375005E-05
414.9161,-5.376041E-05
415.0161,-5.377265E-05
415.1161,-5.374251E-05
415.2161,-5.370767E-05
415.3161,-5.373404E-05
415.4161,-5.36766E-05
415.5161,-5.368413E-05
415.6161,-5.367942E-05
415.7162,-5.364928E-05
415.8162,-5.365682E-05
415.9162,-5.365588E-05
416.0162,-5.364363E-05
416.1162,-5.361444E-05
416.2162,-5.363233E-05
416.3162,-5.361444E-05
416.4162,-5.358336E-05
416.5162,-5.355228E-05
416.6162,-5.357394E-05
416.7162,-5.355417E-05
416.8162,-5.353533E-05
416.9162,-5.353816E-05
417.0162,-5.347695E-05
417.1162,-5.348354E-05
417.2162,-5.348825E-05
417.3163,-5.347036E-05
417.4163,-5.345811E-05
417.5163,-5.343834E-05
417.6163,-5.340632E-05
417.7163,-5.3379E-05
417.8163,-5.339973E-05
417.9163,-5.339313E-05
418.0163,-5.338089E-05
418.1163,-5.337618E-05
418.2163,-5.334699E-05
418.3163,-5.333098E-05
418.4163,-5.33451E-05
418.5163,-5.332533E-05
418.6163,-5.330273E-05
418.7163,-5.330178E-05
418.8163,-5.327165E-05
418.9164,-5.326694E-05
419.0164,-5.325281E-05
419.1164,-5.324057E-05
419.2164,-5.326788E-05
419.3164,-5.326977E-05
419.4164,-5.321515E-05
419.5164,-5.318596E-05
419.6164,-5.324717E-05
419.7164,-5.316994E-05
419.8164,-5.314358E-05
419.9164,-5.315016E-05
420.0164,-5.315205E-05
420.1164,-5.312945E-05
420.2164,-5.311061E-05
420.3164,-5.310025E-05
420.4164,-5.308519E-05
420.5164,-5.308895E-05
420.6165,-5.307389E-05
420.7165,-5.303716E-05
420.8165,-5.30607E-05
420.9165,-5.306353E-05
421.0165,-5.300891E-05
421.1165,-5.299478E-05
421.2165,-5.29929E-05
421.3165,-5.299101E-05
421.4165,-5.298442E-05
421.5165,-5.295523E-05
421.6165,-5.292415E-05
421.7165,-5.294299E-05
421.8165,-5.293639E-05
421.9165,-5.290532E-05
422.0165,-5.289308E-05
422.1165,-5.288177E-05
422.2166,-5.287707E-05
422.3166,-5.285823E-05
422.4166,-5.284598E-05
422.5166,-5.284222E-05
422.6166,-5.284222E-05
422.7166,-5.28441E-05
422.8166,-5.280644E-05
422.9166,-5.278666E-05
423.0166,-5.28102E-05
423.1166,-5.277912E-05
423.2166,-5.275276E-05
423.3166,-5.276877E-05
423.4166,-5.273015E-05
423.5166,-5.271697E-05
423.6166,-5.27245E-05
423.7166,-5.266612E-05
423.8167,-5.270002E-05
423.9167,-5.270378E-05
424.0167,-5.269625E-05
424.1167,-5.265104E-05
424.2167,-5.262845E-05
424.3167,-5.263881E-05
424.4167,-5.259831E-05
424.5167,-5.264351E-05
424.6167,-5.259831E-05
424.7167,-5.256064E-05
424.8167,-5.258513E-05
424.9167,-5.253616E-05
425.0167,-5.253522E-05
425.1167,-5.256064E-05
425.2167,-5.253427E-05
425.3167,-5.249566E-05
425.4167,-5.250414E-05
425.5168,-5.248436E-05
425.6168,-5.246835E-05
425.7168,-5.250131E-05
425.8168,-5.245705E-05
425.9168,-5.24175E-05
426.0168,-5.244198E-05
426.1168,-5.244387E-05
426.2168,-5.241091E-05
426.3168,-5.241185E-05
426.4168,-5.237512E-05
426.5168,-5.237795E-05
426.6168,-5.237418E-05
426.7168,-5.239489E-05
426.8168,-5.235158E-05
426.9168,-5.233463E-05
427.0168,-5.234216E-05
427.1169,-5.234499E-05
427.2169,-5.234969E-05
427.3169,-5.230449E-05
427.4169,-5.229978E-05
427.5169,-5.229413E-05
427.6169,-5.228943E-05
427.7169,-5.227812E-05
427.8169,-5.224611E-05
427.9169,-5.223481E-05
428.0169,-5.220843E-05
428.1169,-5.221503E-05
428.2169,-5.220655E-05
428.3169,-5.218489E-05
428.4169,-5.216982E-05
428.5169,-5.215382E-05
428.6169,-5.216512E-05
428.7169,-5.215193E-05
428.817,-5.213498E-05
428.917,-5.211803E-05
429.017,-5.210767E-05
429.117,-5.210391E-05
429.217,-5.207094E-05
429.317,-5.208319E-05
429.417,-5.209919E-05
429.517,-5.207E-05
429.617,-5.205399E-05
429.717,-5.206529E-05
429.817,-5.202762E-05
429.917,-5.203139E-05
430.017,-5.203892E-05
430.117,-5.199466E-05
430.217,-5.198712E-05
430.317,-5.199937E-05
430.4171,-5.196829E-05
430.5171,-5.195888E-05
430.6171,-5.195699E-05
430.7171,-5.19212E-05
430.8171,-5.191461E-05
430.9171,-5.191273E-05
431.0171,-5.190708E-05
431.1171,-5.189484E-05
431.2171,-5.188824E-05
431.3171,-5.18647E-05
431.4171,-5.183269E-05
431.5171,-5.18534E-05
431.6171,-5.181761E-05
431.7171,-5.180537E-05
431.8171,-5.183363E-05
431.9171,-5.179973E-05
432.0172,-5.178654E-05
432.1172,-5.177806E-05
432.2172,-5.176017E-05
432.3172,-5.174699E-05
432.4172,-5.175169E-05
432.5172,-5.174793E-05
432.6172,-5.170649E-05
432.7172,-5.171214E-05
432.8172,-5.169425E-05
432.9172,-5.168671E-05
433.0172,-5.169802E-05
433.1172,-5.167447E-05
433.2172,-5.165375E-05
433.3172,-5.165846E-05
433.4172,-5.165658E-05
433.5172,-5.164151E-05
433.6172,-5.163586E-05
433.7173,-5.161326E-05
433.8173,-5.160761E-05
433.9173,-5.159631E-05
434.0173,-5.159537E-05
434.1173,-5.157842E-05
434.2173,-5.156147E-05
434.3173,-5.153698E-05
434.4173,-5.153133E-05
434.5173,-5.155487E-05
434.6173,-5.154357E-05
434.7173,-5.152097E-05
434.8173,-5.152191E-05
434.9173,-5.152568E-05
435.0173,-5.149178E-05
435.1173,-5.152756E-05
435.2173,-5.149837E-05
435.3174,-5.149366E-05
435.4174,-5.148236E-05
435.5174,-5.146917E-05
435.6174,-5.143904E-05
435.7174,-5.145693E-05
435.8174,-5.144658E-05
435.9174,-5.140796E-05
436.0174,-5.140608E-05
436.1174,-5.14494E-05
436.2174,-5.137689E-05
436.3174,-5.137218E-05
436.4174,-5.139855E-05
436.5174,-5.138442E-05
436.6174,-5.136935E-05
436.7174,-5.134392E-05
436.8174,-5.131661E-05
436.9174,-5.130154E-05
437.0175,-5.132509E-05
437.1175,-5.127894E-05
437.2175,-5.127047E-05
437.3175,-5.126011E-05
437.4175,-5.125728E-05
437.5175,-5.125635E-05
437.6175,-5.123751E-05
437.7175,-5.121679E-05
437.8175,-5.124128E-05
437.9175,-5.125258E-05
438.0175,-5.120737E-05
438.1175,-5.115652E-05
438.2175,-5.119513E-05
438.3175,-5.119702E-05
438.4175,-5.116406E-05
438.5175,-5.11537E-05
438.6176,-5.111508E-05
438.7176,-5.112262E-05
438.8176,-5.115181E-05
438.9176,-5.111791E-05
439.0176,-5.108118E-05
439.1176,-5.108683E-05
439.2176,-5.108871E-05
439.3176,-5.107647E-05
439.4176,-5.108307E-05
439.5176,-5.107082E-05
439.6176,-5.102091E-05
439.7176,-5.104163E-05
439.8176,-5.102279E-05
439.9176,-5.101997E-05
440.0176,-5.101997E-05
440.1176,-5.098983E-05
440.2177,-5.095687E-05
440.3177,-5.097665E-05
440.4177,-5.096158E-05
440.5177,-5.094557E-05
440.6177,-5.093804E-05
440.7177,-5.094557E-05
440.8177,-5.090978E-05
440.9177,-5.090319E-05
441.0177,-5.088907E-05
441.1177,-5.090319E-05
441.2177,-5.089378E-05
441.3177,-5.085517E-05
441.4177,-5.085234E-05
441.5177,-5.084763E-05
441.6177,-5.081373E-05
441.7177,-5.08109E-05
441.8177,-5.081655E-05
441.9178,-5.080243E-05
442.0178,-5.077135E-05
442.1178,-5.078265E-05
442.2178,-5.078736E-05
442.3178,-5.075346E-05
442.4178,-5.077606E-05
442.5178,-5.075817E-05
442.6178,-5.070826E-05
442.7178,-5.072426E-05
442.8178,-5.074498E-05
442.9178,-5.070543E-05
443.0178,-5.068565E-05
443.1178,-5.069413E-05
443.2178,-5.066023E-05
443.3178,-5.067624E-05
443.4178,-5.068E-05
443.5179,-5.0664E-05
443.6179,-5.063762E-05
443.7179,-5.063009E-05
443.8179,-5.060278E-05
443.9179,-5.062915E-05
444.0179,-5.061785E-05
444.1179,-5.057548E-05
444.2179,-5.057736E-05
444.3179,-5.058018E-05
444.4179,-5.0567E-05
444.5179,-5.055287E-05
444.6179,-5.054817E-05
444.7179,-5.051991E-05
444.8179,-5.053027E-05
444.9179,-5.053027E-05
445.0179,-5.048036E-05
445.118,-5.049448E-05
445.218,-5.049072E-05
445.318,-5.047471E-05
445.418,-5.047E-05
445.518,-5.045399E-05
445.618,-5.045775E-05
445.718,-5.04587E-05
445.818,-5.046812E-05
445.918,-5.043421E-05
446.018,-5.042197E-05
446.118,-5.04474E-05
446.218,-5.042856E-05
446.318,-5.040219E-05
446.418,-5.036547E-05
446.518,-5.036829E-05
446.618,-5.035887E-05
446.718,-5.038053E-05
446.8181,-5.033721E-05
446.9181,-5.030613E-05
447.0181,-5.037865E-05
447.1181,-5.037112E-05
447.2181,-5.032026E-05
447.3181,-5.030237E-05
447.4181,-5.032121E-05
447.5181,-5.02939E-05
447.6181,-5.030802E-05
447.7181,-5.028636E-05
447.8181,-5.025434E-05
447.9181,-5.026753E-05
448.0181,-5.02534E-05
448.1181,-5.023456E-05
448.2181,-5.024963E-05
448.3181,-5.023739E-05
448.4182,-5.019407E-05
448.5182,-5.020725E-05
448.6182,-5.020254E-05
448.7182,-5.018371E-05
448.8182,-5.018842E-05
448.9182,-5.018654E-05
449.0182,-5.017806E-05
449.1182,-5.016676E-05
449.2182,-5.015734E-05
449.3182,-5.011967E-05
449.4182,-5.014887E-05
449.5182,-5.015075E-05
449.6182,-5.009142E-05
449.7182,-5.01225E-05
449.8182,-5.014793E-05
449.9182,-5.012533E-05
450.0182,-5.007824E-05
450.1183,-5.008201E-05
450.2183,-5.006788E-05
450.3183,-5.006976E-05
450.4183,-5.006976E-05
450.5183,-5.005376E-05
450.6183,-5.002267E-05
450.7183,-5.003115E-05
450.8183,-5.001608E-05
450.9183,-5.00029E-05
451.0183,-4.999819E-05
451.1183,-4.996052E-05
451.2183,-4.997559E-05
451.3183,-4.996711E-05
451.4183,-4.994545E-05
451.5183,-4.992944E-05
451.6183,-4.994263E-05
451.7184,-4.992851E-05
451.8184,-4.991249E-05
451.9184,-4.991909E-05
452.0184,-4.98833E-05
452.1184,-4.988424E-05
452.2184,-4.990308E-05
452.3184,-4.987483E-05
452.4184,-4.984563E-05
452.5184,-4.984469E-05
452.6184,-4.984846E-05
452.7184,-4.984092E-05
452.8184,-4.983339E-05
452.9184,-4.980984E-05
453.0184,-4.979007E-05
453.1184,-4.980231E-05
453.2184,-4.97976E-05
453.3185,-4.976182E-05
453.4185,-4.976464E-05
453.5185,-4.974863E-05
453.6185,-4.974957E-05
453.7185,-4.976088E-05
453.8185,-4.973168E-05
453.9185,-4.970532E-05
454.0185,-4.971944E-05
454.1185,-4.969495E-05
454.2185,-4.971285E-05
454.3185,-4.970248E-05
454.4185,-4.966294E-05
454.5185,-4.966953E-05
454.6185,-4.967894E-05
454.7185,-4.968742E-05
454.8185,-4.964881E-05
454.9185,-4.96554E-05
455.0186,-4.960737E-05
455.1186,-4.964316E-05
455.2186,-4.965446E-05
455.3186,-4.959325E-05
455.4186,-4.957912E-05
455.5186,-4.95989E-05
455.6186,-4.958571E-05
455.7186,-4.957535E-05
455.8186,-4.957064E-05
455.9186,-4.954333E-05
456.0186,-4.954993E-05
456.1186,-4.956688E-05
456.2186,-4.955746E-05
456.3186,-4.953015E-05
456.4186,-4.951602E-05
456.5186,-4.949436E-05
456.6187,-4.9468E-05
456.7187,-4.950566E-05
456.8187,-4.948401E-05
456.9187,-4.944539E-05
457.0187,-4.94614E-05
457.1187,-4.948024E-05
457.2187,-4.94567E-05
457.3187,-4.945293E-05
457.4187,-4.942844E-05
457.5187,-4.942279E-05
457.6187,-4.945575E-05
457.7187,-4.944539E-05
457.8187,-4.940302E-05
457.9187,-4.940208E-05
458.0187,-4.939548E-05
458.1187,-4.937006E-05
458.2188,-4.938983E-05
458.3188,-4.937759E-05
458.4188,-4.935499E-05
458.5188,-4.93597E-05
458.6188,-4.937571E-05
458.7188,-4.934651E-05
458.8188,-4.932674E-05
458.9188,-4.933239E-05
459.0188,-4.930414E-05
459.1188,-4.932486E-05
459.2188,-4.932109E-05
459.3188,-4.928718E-05
459.4188,-4.927965E-05
459.5188,-4.92853E-05
459.6188,-4.926458E-05
459.7188,-4.923727E-05
459.8188,-4.925328E-05
459.9189,-4.924104E-05
460.0189,-4.923162E-05
460.1189,-4.92288E-05
460.2189,-4.918925E-05
460.3189,-4.9177E-05
460.4189,-4.91996E-05
460.5189,-4.917794E-05
460.6189,-4.916852E-05
460.7189,-4.917324E-05
460.8189,-4.914781E-05
460.9189,-4.914498E-05
461.0189,-4.915911E-05
461.1189,-4.911861E-05
461.2189,-4.909036E-05
461.3189,-4.91205E-05
461.4189,-4.914969E-05
461.519,-4.908565E-05
461.619,-4.91092E-05
461.719,-4.908377E-05
461.819,-4.907341E-05
461.919,-4.908848E-05
462.019,-4.90753E-05
462.119,-4.904139E-05
462.219,-4.904045E-05
462.319,-4.904328E-05
462.419,-4.901502E-05
462.519,-4.902632E-05
462.619,-4.901408E-05
462.719,-4.901314E-05
462.819,-4.900937E-05
462.919,-4.900184E-05
463.019,-4.897076E-05
463.119,-4.897547E-05
463.2191,-4.898489E-05
463.3191,-4.895852E-05
463.4191,-4.896323E-05
463.5191,-4.894533E-05
463.6191,-4.892462E-05
463.7191,-4.893403E-05
463.8191,-4.891614E-05
463.9191,-4.888884E-05
464.0191,-4.891991E-05
464.1191,-4.892085E-05
464.2191,-4.888789E-05
464.3191,-4.887471E-05
464.4191,-4.887753E-05
464.5191,-4.887094E-05
464.6191,-4.889354E-05
464.7191,-4.887376E-05
464.8192,-4.885963E-05
464.9192,-4.883892E-05
465.0192,-4.88521E-05
465.1192,-4.884457E-05
465.2192,-4.882574E-05
465.3192,-4.883044E-05
465.4192,-4.881349E-05
465.5192,-4.880972E-05
465.6192,-4.880878E-05
465.7192,-4.877582E-05
465.8192,-4.881161E-05
465.9192,-4.880408E-05
466.0192,-4.879183E-05
466.1192,-4.875887E-05
466.2192,-4.878712E-05
466.3192,-4.875605E-05
466.4193,-4.87438E-05
466.5193,-4.874569E-05
466.6193,-4.874286E-05
466.7193,-4.872874E-05
466.8193,-4.873062E-05
466.9193,-4.870991E-05
467.0193,-4.869578E-05
467.1193,-4.870896E-05
467.2193,-4.870519E-05
467.3193,-4.869672E-05
467.4193,-4.86986E-05
467.5193,-4.868165E-05
467.6193,-4.86581E-05
467.7193,-4.865152E-05
467.8193,-4.866282E-05
467.9193,-4.865434E-05
468.0193,-4.861761E-05
468.1194,-4.863268E-05
468.2194,-4.861291E-05
468.3194,-4.862797E-05
468.4194,-4.861479E-05
468.5194,-4.857053E-05
468.6194,-4.857335E-05
468.7194,-4.860349E-05
468.8194,-4.858842E-05
468.9194,-4.857053E-05
469.0194,-4.854792E-05
469.1194,-4.853192E-05
469.2194,-4.852533E-05
469.3194,-4.855263E-05
469.4194,-4.851308E-05
469.5194,-4.850743E-05
469.6194,-4.849895E-05
469.7195,-4.849236E-05
469.8195,-4.849519E-05
469.9195,-4.846505E-05
470.0195,-4.845186E-05
470.1195,-4.847259E-05
470.2195,-4.848671E-05
470.3195,-4.844151E-05
470.4195,-4.843115E-05
470.5195,-4.844998E-05
470.6195,-4.845281E-05
470.7195,-4.840667E-05
470.8195,-4.841891E-05
470.9195,-4.841514E-05
471.0195,-4.842079E-05
471.1195,-4.840949E-05
471.2195,-4.83963E-05
471.3195,-4.83916E-05
471.4196,-4.83916E-05
471.5196,-4.837841E-05
471.6196,-4.835675E-05
471.7196,-4.835864E-05
471.8196,-4.835958E-05
471.9196,-4.834357E-05
472.0196,-4.83511E-05
472.1196,-4.834169E-05
472.2196,-4.830402E-05
472.3196,-4.831249E-05
472.4196,-4.832756E-05
472.5196,-4.829836E-05
472.6196,-4.828801E-05
472.7196,-4.828141E-05
472.8196,-4.826164E-05
472.9196,-4.827576E-05
473.0197,-4.828613E-05
473.1197,-4.824657E-05
473.2197,-4.823339E-05
473.3197,-4.826164E-05
473.4197,-4.823715E-05
473.5197,-4.822114E-05
473.6197,-4.82494E-05
473.7197,-4.821832E-05
473.8197,-4.820325E-05
473.9197,-4.819854E-05
474.0197,-4.817876E-05
474.1197,-4.818441E-05
474.2197,-4.821079E-05
474.3197,-4.817594E-05
474.4197,-4.814204E-05
474.5197,-4.815993E-05
474.6198,-4.81637E-05
474.7198,-4.815145E-05
474.8198,-4.813545E-05
474.9198,-4.811661E-05
475.0198,-4.81185E-05
475.1198,-4.813168E-05
475.2198,-4.81006E-05
475.3198,-4.808742E-05
475.4198,-4.813545E-05
475.5198,-4.812509E-05
475.6198,-4.808271E-05
475.7198,-4.809684E-05
475.8198,-4.80893E-05
475.9198,-4.807894E-05
476.0198,-4.809872E-05
476.1198,-4.808177E-05
476.2198,-4.803562E-05
476.3199,-4.804881E-05
476.4199,-4.806011E-05
476.5199,-4.804033E-05
476.6199,-4.804693E-05
476.7199,-4.803091E-05
476.8199,-4.800925E-05
476.9199,-4.802433E-05
477.0199,-4.799701E-05
477.1199,-4.799795E-05
477.2199,-4.797441E-05
477.3199,-4.79923E-05
477.4199,-4.796217E-05
477.5199,-4.796594E-05
477.6199,-4.796876E-05
477.7199,-4.794899E-05
477.8199,-4.795464E-05
477.92,-4.794145E-05
478.02,-4.792544E-05
478.12,-4.793015E-05
478.22,-4.793768E-05
478.32,-4.790566E-05
478.42,-4.789248E-05
478.52,-4.78906E-05
478.62,-4.7868E-05
478.72,-4.788306E-05
478.82,-4.788118E-05
478.92,-4.785763E-05
479.02,-4.786234E-05
479.12,-4.788118E-05
479.22,-4.78727E-05
479.32,-4.786046E-05
479.42,-4.783221E-05
479.5201,-4.784351E-05
479.6201,-4.78275E-05
479.7201,-4.783692E-05
479.8201,-4.784351E-05
479.9201,-4.781432E-05
480.0201,-4.781055E-05
480.1201,-4.779737E-05
480.2201,-4.780396E-05
480.3201,-4.780584E-05
480.4201,-4.780584E-05
480.5201,-4.777288E-05
480.6201,-4.776535E-05
480.7201,-4.776723E-05
480.8201,-4.776252E-05
480.9201,-4.778041E-05
481.0201,-4.775216E-05
481.1201,-4.771073E-05
481.2202,-4.774745E-05
481.3202,-4.772956E-05
481.4202,-4.772956E-05
481.5202,-4.770696E-05
481.6202,-4.769001E-05
481.7202,-4.768154E-05
481.8202,-4.769566E-05
481.9202,-4.76966E-05
482.0202,-4.765987E-05
482.1202,-4.765139E-05
482.2202,-4.765799E-05
482.3202,-4.76335E-05
482.4202,-4.764386E-05
482.5202,-4.763633E-05
482.6202,-4.760902E-05
482.7202,-4.760148E-05
482.8203,-4.762785E-05
482.9203,-4.759583E-05
483.0203,-4.757323E-05
483.1203,-4.758453E-05
483.2203,-4.75591E-05
483.3203,-4.757135E-05
483.4203,-4.755346E-05
483.5203,-4.757229E-05
483.6203,-4.757888E-05
483.7203,-4.7577E-05
483.8203,-4.757982E-05
483.9203,-4.755252E-05
484.0203,-4.759489E-05
484.1203,-4.756475E-05
484.2203,-4.75431E-05
484.3203,-4.754875E-05
484.4203,-4.754122E-05
484.5204,-4.752521E-05
484.6204,-4.753274E-05
484.7204,-4.752332E-05
484.8204,-4.754498E-05
484.9204,-4.755157E-05
485.0204,-4.751014E-05
485.1204,-4.749506E-05
485.2204,-4.749884E-05
485.3204,-4.749884E-05
485.4204,-4.748659E-05
485.5204,-4.746399E-05
485.6204,-4.746682E-05
485.7204,-4.744704E-05
485.8204,-4.745363E-05
485.9204,-4.744704E-05
486.0204,-4.740937E-05
486.1205,-4.744327E-05
486.2205,-4.745457E-05
486.3205,-4.740466E-05
486.4205,-4.738677E-05
486.5205,-4.738394E-05
486.6205,-4.738583E-05
486.7205,-4.740466E-05
486.8205,-4.7383E-05
486.9205,-4.735757E-05
487.0205,-4.73896E-05
487.1205,-4.735569E-05
487.2205,-4.735287E-05
487.3205,-4.735757E-05
487.4205,-4.737076E-05
487.5205,-4.735004E-05
487.6205,-4.735004E-05
487.7206,-4.733498E-05
487.8206,-4.732085E-05
487.9206,-4.730767E-05
488.0206,-4.733592E-05
488.1206,-4.73086E-05
488.2206,-4.72973E-05
488.3206,-4.731614E-05
488.4206,-4.731425E-05
488.5206,-4.7286E-05
488.6206,-4.734063E-05
488.7206,-4.730296E-05
488.8206,-4.726999E-05
488.9206,-4.728977E-05
489.0206,-4.727659E-05
489.1206,-4.725399E-05
489.2206,-4.725116E-05
489.3206,-4.72408E-05
489.4207,-4.721631E-05
489.5207,-4.723798E-05
489.6207,-4.723703E-05
489.7207,-4.720219E-05
489.8207,-4.721443E-05
489.9207,-4.722008E-05
490.0207,-4.72069E-05
490.1207,-4.719372E-05
490.2207,-4.719089E-05
490.3207,-4.71664E-05
490.4207,-4.71843E-05
490.5207,-4.718995E-05
490.6207,-4.715793E-05
490.7207,-4.713533E-05
490.8207,-4.715322E-05
490.9207,-4.712967E-05
491.0208,-4.714945E-05
491.1208,-4.71325E-05
491.2208,-4.710802E-05
491.3208,-4.713533E-05
491.4208,-4.711461E-05
491.5208,-4.708071E-05
491.6208,-4.711744E-05
491.7208,-4.712779E-05
491.8208,-4.711744E-05
491.9208,-4.707035E-05
492.0208,-4.707788E-05
492.1208,-4.709295E-05
492.2208,-4.704304E-05
492.3208,-4.707317E-05
492.4208,-4.704587E-05
492.5208,-4.704022E-05
492.6208,-4.703739E-05
492.7209,-4.702797E-05
492.8209,-4.70355E-05
492.9209,-4.70355E-05
493.0209,-4.70355E-05
493.1209,-4.701008E-05
493.2209,-4.700914E-05
493.3209,-4.700349E-05
493.4209,-4.698371E-05
493.5209,-4.700914E-05
493.6209,-4.697618E-05
493.7209,-4.696676E-05
493.8209,-4.698183E-05
493.9209,-4.697711E-05
494.0209,-4.694604E-05
494.1209,-4.697147E-05
494.2209,-4.697618E-05
494.321,-4.694792E-05
494.421,-4.694415E-05
494.521,-4.691402E-05
494.621,-4.691873E-05
494.721,-4.694039E-05
494.821,-4.691779E-05
494.921,-4.6882E-05
495.021,-4.693191E-05
495.121,-4.691214E-05
495.221,-4.688954E-05
495.321,-4.689613E-05
495.421,-4.6882E-05
495.521,-4.687352E-05
495.621,-4.688012E-05
495.721,-4.68933E-05
495.821,-4.686222E-05
495.9211,-4.684622E-05
496.0211,-4.684998E-05
496.1211,-4.682456E-05
496.2211,-4.683586E-05
496.3211,-4.686317E-05
496.4211,-4.683021E-05
496.5211,-4.683869E-05
496.6211,-4.685281E-05
496.7211,-4.681514E-05
496.8211,-4.68255E-05
496.9211,-4.681514E-05
497.0211,-4.680195E-05
497.1211,-4.681326E-05
497.2211,-4.680007E-05
497.3211,-4.680384E-05
497.4211,-4.6769E-05
497.5211,-4.681608E-05
497.6212,-4.679913E-05
497.7212,-4.677747E-05
497.8212,-4.676429E-05
497.9212,-4.675581E-05
498.0212,-4.675581E-05
498.1212,-4.675958E-05
498.2212,-4.672662E-05
498.3212,-4.672662E-05
498.4212,-4.67916E-05
498.5212,-4.67737E-05
498.6212,-4.673227E-05
498.7212,-4.670967E-05
498.8212,-4.670872E-05
498.9212,-4.669365E-05
499.0212,-4.673603E-05
499.1212,-4.671437E-05
499.2213,-4.666823E-05
499.3213,-4.668989E-05
499.4213,-4.668989E-05
499.5213,-4.666917E-05
499.6213,-4.670213E-05
499.7213,-4.667388E-05
499.8213,-4.663715E-05
499.9213,-4.667106E-05
500.0213,-4.664751E-05
500.1213,-4.662773E-05
500.2213,-4.662773E-05
500.3213,-4.662585E-05
500.4213,-4.663338E-05
500.5213,-4.662585E-05
500.6213,-4.660796E-05
500.7213,-4.659101E-05
500.8214,-4.660419E-05
500.9214,-4.659666E-05
501.0214,-4.657594E-05
501.1214,-4.657971E-05
501.2214,-4.6575E-05
501.3214,-4.654392E-05
501.4214,-4.654486E-05
501.5214,-4.65571E-05
501.6214,-4.654486E-05
501.7214,-4.653638E-05
501.8214,-4.653921E-05
501.9214,-4.651755E-05
502.0214,-4.65232E-05
502.1214,-4.65185E-05
502.2214,-4.651567E-05
502.3214,-4.65185E-05
502.4214,-4.650625E-05
502.5215,-4.649872E-05
502.6215,-4.649212E-05
502.7215,-4.647894E-05
502.8215,-4.650343E-05
502.9215,-4.647046E-05
503.0215,-4.647329E-05
503.1215,-4.645822E-05
503.2215,-4.643656E-05
503.3215,-4.646105E-05
503.4215,-4.644692E-05
503.5215,-4.642809E-05
503.6215,-4.641961E-05
503.7215,-4.642432E-05
503.8215,-4.643845E-05
503.9215,-4.642244E-05
504.0215,-4.639701E-05
504.1216,-4.639889E-05
504.2216,-4.640078E-05
504.3216,-4.640643E-05
504.4216,-4.638195E-05
504.5216,-4.639983E-05
504.6216,-4.638477E-05
504.7216,-4.639136E-05
504.8216,-4.640361E-05
504.9216,-4.638195E-05
505.0216,-4.636593E-05
505.1216,-4.636688E-05
505.2216,-4.637723E-05
505.3216,-4.633674E-05
505.4216,-4.635745E-05
505.5216,-4.633957E-05
505.6216,-4.630754E-05
505.7216,-4.633392E-05
505.8217,-4.63471E-05
505.9217,-4.631037E-05
506.0217,-4.629531E-05
506.1217,-4.630849E-05
506.2217,-4.629907E-05
506.3217,-4.630189E-05
506.4217,-4.630472E-05
506.5217,-4.626893E-05
506.6217,-4.627741E-05
506.7217,-4.628871E-05
506.8217,-4.628588E-05
506.9217,-4.627741E-05
507.0217,-4.626423E-05
507.1217,-4.6268E-05
507.2217,-4.626517E-05
507.3217,-4.62727E-05
507.4218,-4.626611E-05
507.5218,-4.625669E-05
507.6218,-4.624916E-05
507.7218,-4.625575E-05
507.8218,-4.62614E-05
507.9218,-4.624257E-05
508.0218,-4.62209E-05
508.1218,-4.623221E-05
508.2218,-4.625293E-05
508.3218,-4.620678E-05
508.4218,-4.621149E-05
508.5218,-4.622844E-05
508.6218,-4.62275E-05
508.7218,-4.620584E-05
508.8218,-4.619077E-05
508.9218,-4.618889E-05
509.0219,-4.621243E-05
509.1219,-4.620301E-05
509.2219,-4.619548E-05
509.3219,-4.617476E-05
509.4219,-4.619077E-05
509.5219,-4.617288E-05
509.6219,-4.618136E-05
509.7219,-4.613898E-05
509.8219,-4.617947E-05
509.9219,-4.616064E-05
510.0219,-4.613992E-05
510.1219,-4.615593E-05
510.2219,-4.613521E-05
510.3219,-4.614745E-05
510.4219,-4.613144E-05
510.5219,-4.610978E-05
510.6219,-4.612768E-05
510.722,-4.61192E-05
510.822,-4.608342E-05
510.922,-4.608342E-05
511.022,-4.609283E-05
511.122,-4.609377E-05
511.222,-4.611073E-05
511.322,-4.607305E-05
511.422,-4.605704E-05
511.522,-4.607682E-05
511.622,-4.609283E-05
511.722,-4.603916E-05
511.822,-4.605893E-05
511.922,-4.609095E-05
512.022,-4.605611E-05
512.122,-4.6074E-05
512.222,-4.604763E-05
512.322,-4.604574E-05
512.4219,-4.605799E-05
512.5219,-4.606081E-05
512.6219,-4.603726E-05
512.7219,-4.604292E-05
512.8218,-4.604669E-05
512.9218,-4.602409E-05
513.0218,-4.604104E-05
513.1218,-4.602879E-05
513.2217,-4.600807E-05
513.3217,-4.604386E-05
513.4217,-4.601278E-05
513.5217,-4.599489E-05
513.6216,-4.600337E-05
513.7216,-4.600619E-05
513.8216,-4.598547E-05
513.9216,-4.598359E-05
514.0215,-4.599489E-05
514.1215,-4.598736E-05
514.2215,-4.596758E-05
514.3215,-4.598171E-05
514.4214,-4.596287E-05
514.5214,-4.596381E-05
514.6214,-4.596287E-05
514.7214,-4.595628E-05
514.8214,-4.593368E-05
514.9213,-4.594027E-05
515.0213,-4.592897E-05
515.1213,-4.592615E-05
515.2213,-4.592332E-05
515.3212,-4.591108E-05
515.4212,-4.590072E-05
515.5212,-4.590731E-05
515.6212,-4.589978E-05
515.7211,-4.588659E-05
515.8211,-4.589789E-05
515.9211,-4.590072E-05
516.0211,-4.589884E-05
516.121,-4.588942E-05
516.221,-4.587058E-05
516.321,-4.587246E-05
516.421,-4.590919E-05
516.5209,-4.589695E-05
516.6209,-4.584045E-05
516.7209,-4.585551E-05
516.8209,-4.585646E-05
516.9208,-4.583574E-05
517.0208,-4.586587E-05
517.1208,-4.585646E-05
517.2208,-4.583385E-05
517.3207,-4.58395E-05
517.4207,-4.582538E-05
517.5207,-4.581031E-05
517.6207,-4.582444E-05
517.7206,-4.581879E-05
517.8206,-4.581125E-05
517.9206,-4.584139E-05
518.0206,-4.581125E-05
518.1205,-4.57943E-05
518.2205,-4.581691E-05
518.3205,-4.581125E-05
518.4205,-4.580372E-05
518.5204,-4.580466E-05
518.6204,-4.579242E-05
518.7204,-4.575946E-05
518.8204,-4.578959E-05
518.9203,-4.578677E-05
519.0203,-4.575098E-05
519.1203,-4.576323E-05
519.2203,-4.578771E-05
519.3203,-4.575287E-05
519.4202,-4.575098E-05
519.5202,-4.57425E-05
519.6202,-4.577547E-05
519.7202,-4.575287E-05
519.8201,-4.575946E-05
519.9201,-4.575287E-05
520.0201,-4.571991E-05
520.1201,-4.574156E-05
520.22,-4.571614E-05
520.32,-4.573309E-05
520.42,-4.574439E-05
520.52,-4.570955E-05
520.6199,-4.571896E-05
520.7199,-4.571143E-05
520.8199,-4.569542E-05
520.9199,-4.568694E-05
521.0198,-4.570201E-05
521.1198,-4.568506E-05
521.2198,-4.566811E-05
521.3198,-4.570955E-05
521.4197,-4.568883E-05
521.5197,-4.568318E-05
521.6197,-4.570013E-05
521.7197,-4.565304E-05
521.8196,-4.564456E-05
521.9196,-4.570201E-05
522.0196,-4.565587E-05
522.1196,-4.563044E-05
522.2195,-4.563421E-05
522.3195,-4.564739E-05
522.4195,-4.563797E-05
522.5195,-4.564739E-05
522.6194,-4.563139E-05
522.7194,-4.562573E-05
522.8194,-4.564174E-05
522.9194,-4.561066E-05
523.0193,-4.562291E-05
523.1193,-4.561631E-05
523.2193,-4.563139E-05
523.3193,-4.562291E-05
523.4193,-4.558806E-05
523.5192,-4.561349E-05
523.6192,-4.560973E-05
523.7192,-4.558901E-05
523.8192,-4.557488E-05
523.9191,-4.557582E-05
524.0191,-4.555039E-05
524.1191,-4.558335E-05
524.2191,-4.555228E-05
524.319,-4.553627E-05
524.419,-4.56003E-05
524.519,-4.562385E-05
524.619,-4.555981E-05
524.7189,-4.555699E-05
524.8189,-4.555887E-05
524.9189,-4.557676E-05
525.0189,-4.557865E-05
525.1188,-4.554945E-05
525.2188,-4.555134E-05
525.3188,-4.557017E-05
525.4188,-4.558712E-05
525.5187,-4.553156E-05
525.6187,-4.553439E-05
525.7187,-4.555699E-05
525.8187,-4.553533E-05
525.9186,-4.55551E-05
526.0186,-4.556075E-05
526.1186,-4.550425E-05
526.2186,-4.552591E-05
526.3185,-4.552779E-05
526.4185,-4.550519E-05
526.5185,-4.553062E-05
526.6185,-4.551461E-05
526.7184,-4.547788E-05
526.8184,-4.55099E-05
526.9184,-4.548824E-05
527.0184,-4.547506E-05
527.1183,-4.549107E-05
527.2183,-4.548447E-05
527.3183,-4.548071E-05
527.4183,-4.545528E-05
527.5182,-4.547035E-05
527.6182,-4.545528E-05
527.7182,-4.546376E-05
527.8182,-4.545246E-05
527.9182,-4.543738E-05
528.0181,-4.543456E-05
528.1181,-4.544774E-05
528.2181,-4.544398E-05
528.3181,-4.542891E-05
528.418,-4.542138E-05
528.518,-4.541949E-05
528.618,-4.540066E-05
528.718,-4.541572E-05
528.8179,-4.539312E-05
528.9179,-4.541102E-05
529.0179,-4.54129E-05
529.1179,-4.537994E-05
529.2178,-4.536111E-05
529.3178,-4.538747E-05
529.4178,-4.539501E-05
529.5178,-4.537711E-05
529.6177,-4.537711E-05
529.7177,-4.536205E-05
529.8177,-4.535922E-05
529.9177,-4.538842E-05
530.0176,-4.539595E-05
530.1176,-4.536299E-05
530.2176,-4.536111E-05
530.3176,-4.534039E-05
530.4175,-4.537146E-05
530.5175,-4.538371E-05
530.6175,-4.536487E-05
530.7175,-4.533285E-05
530.8174,-4.534604E-05
530.9174,-4.535546E-05
531.0174,-4.534039E-05
531.1174,-4.533191E-05
531.2173,-4.534886E-05
531.3173,-4.531308E-05
531.4173,-4.533003E-05
531.5173,-4.532532E-05
531.6172,-4.530177E-05
531.7172,-4.532908E-05
531.8172,-4.534039E-05
531.9172,-4.5282E-05
532.0172,-4.530931E-05
532.1171,-4.530648E-05
532.2171,-4.529519E-05
532.3171,-4.528859E-05
532.4171,-4.529989E-05
532.517,-4.527823E-05
532.617,-4.528483E-05
532.717,-4.529989E-05
532.817,-4.529236E-05
532.9169,-4.527823E-05
533.0169,-4.528953E-05
533.1169,-4.5282E-05
533.2169,-4.526788E-05
533.3168,-4.527258E-05
533.4168,-4.526882E-05
533.5168,-4.528671E-05
533.6168,-4.52594E-05
533.7167,-4.521891E-05
533.8167,-4.525375E-05
533.9167,-4.528671E-05
534.0167,-4.525186E-05
534.1166,-4.522738E-05
534.2166,-4.52255E-05
534.3166,-4.523585E-05
534.4166,-4.522456E-05
534.5165,-4.523303E-05
534.6165,-4.519631E-05
534.7165,-4.521891E-05
534.8165,-4.524998E-05
534.9164,-4.523585E-05
535.0164,-4.518595E-05
535.1164,-4.519253E-05
535.2164,-4.52076E-05
535.3163,-4.519536E-05
535.4163,-4.52076E-05
535.5163,-4.518783E-05
535.6163,-4.516522E-05
535.7162,-4.520289E-05
535.8162,-4.519819E-05
535.9162,-4.516522E-05
536.0162,-4.516334E-05
536.1161,-4.518783E-05
536.2161,-4.514168E-05
536.3161,-4.513697E-05
536.4161,-4.5169E-05
536.5161,-4.518406E-05
536.616,-4.518029E-05
536.716,-4.514262E-05
536.816,-4.51172E-05
536.916,-4.513509E-05
537.0159,-4.517747E-05
537.1159,-4.513509E-05
537.2159,-4.511814E-05
537.3159,-4.51511E-05
537.4158,-4.515298E-05
537.5158,-4.510401E-05
537.6158,-4.512096E-05
537.7158,-4.512379E-05
537.8157,-4.514074E-05
537.9157,-4.51285E-05
538.0157,-4.512379E-05
538.1157,-4.51172E-05
538.2156,-4.514168E-05
538.3156,-4.510966E-05
538.4156,-4.509271E-05
538.5156,-4.510684E-05
538.6155,-4.51285E-05
538.7155,-4.509742E-05
538.8155,-4.509365E-05
538.9155,-4.509083E-05
539.0154,-4.507388E-05
539.1154,-4.510307E-05
539.2154,-4.509271E-05
539.3154,-4.504939E-05
539.4153,-4.507764E-05
539.5153,-4.508047E-05
539.6153,-4.504939E-05
539.7153,-4.505127E-05
539.8152,-4.508424E-05
539.9152,-4.508989E-05
540.0152,-4.506069E-05
540.1152,-4.507293E-05
540.2151,-4.505787E-05
540.3151,-4.505033E-05
540.4151,-4.505787E-05
540.5151,-4.505222E-05
540.6151,-4.504657E-05
540.715,-4.505693E-05
540.815,-4.503903E-05
540.915,-4.502773E-05
541.015,-4.504563E-05
541.1149,-4.504751E-05
541.2149,-4.503903E-05
541.3149,-4.504939E-05
541.4149,-4.502114E-05
541.5148,-4.503527E-05
541.6148,-4.505787E-05
541.7148,-4.503056E-05
541.8148,-4.502679E-05
541.9147,-4.50428E-05
542.0147,-4.504186E-05
542.1147,-4.501738E-05
542.2147,-4.503527E-05
542.3146,-4.499665E-05
542.4146,-4.500513E-05
542.5146,-4.503997E-05
542.6146,-4.504092E-05
542.7145,-4.501643E-05
542.8145,-4.500513E-05
542.9145,-4.500701E-05
543.0145,-4.502491E-05
543.1144,-4.502962E-05
543.2144,-4.50089E-05
543.3144,-4.498065E-05
543.4144,-4.498912E-05
543.5143,-4.501926E-05
543.6143,-4.499383E-05
543.7143,-4.500136E-05
543.8143,-4.501078E-05
543.9142,-4.497406E-05
544.0142,-4.497782E-05
544.1142,-4.498818E-05
544.2142,-4.500325E-05
544.3141,-4.501172E-05
544.4141,-4.499572E-05
544.5141,-4.498536E-05
544.6141,-4.496276E-05
544.7141,-4.50202E-05
544.814,-4.498536E-05
544.914,-4.495993E-05
545.014,-4.49797E-05
545.114,-4.496087E-05
545.2139,-4.497406E-05
545.3139,-4.4975E-05
545.4139,-4.496369E-05
545.5139,-4.495804E-05
545.6138,-4.499477E-05
545.7138,-4.498536E-05
545.8138,-4.496369E-05
545.9138,-4.496746E-05
546.0137,-4.496276E-05
546.1137,-4.495522E-05
546.2137,-4.497688E-05
546.3137,-4.495051E-05
546.4136,-4.493827E-05
546.5136,-4.497782E-05
546.6136,-4.497594E-05
546.7136,-4.492414E-05
546.8135,-4.492603E-05
546.9135,-4.494015E-05
547.0135,-4.493921E-05
547.1135,-4.494298E-05
547.2134,-4.494863E-05
547.3134,-4.493827E-05
547.4134,-4.493262E-05
547.5134,-4.495239E-05
547.6133,-4.493638E-05
547.7133,-4.490625E-05
547.8133,-4.493168E-05
547.9133,-4.494203E-05
548.0132,-4.491096E-05
548.1132,-4.491472E-05
548.2132,-4.491002E-05
548.3132,-4.492696E-05
548.4131,-4.492414E-05
548.5131,-4.490531E-05
548.6131,-4.488365E-05
548.7131,-4.490719E-05
548.813,-4.491755E-05
548.913,-4.4894E-05
549.013,-4.491755E-05
549.113,-4.490813E-05
549.213,-4.4878E-05
549.3129,-4.489872E-05
549.4129,-4.489495E-05
549.5129,-4.487706E-05
549.6129,-4.489495E-05
549.7128,-4.492226E-05
549.8128,-4.488177E-05
549.9128,-4.491849E-05
550.0128,-4.490625E-05
550.1127,-4.488082E-05
550.2127,-4.491284E-05
550.3127,-4.491661E-05
550.4127,-4.488742E-05
550.5126,-4.489683E-05
550.6126,-4.490437E-05
550.7126,-4.487046E-05
550.8126,-4.487423E-05
550.9125,-4.490908E-05
551.0125,-4.488082E-05
551.1125,-4.488742E-05
551.2125,-4.489589E-05
551.3124,-4.489777E-05
551.4124,-4.489589E-05
551.5124,-4.489589E-05
551.6124,-4.486858E-05
551.7123,-4.486293E-05
551.8123,-4.489212E-05
551.9123,-4.489024E-05
552.0123,-4.487046E-05
552.1122,-4.485634E-05
552.2122,-4.48667E-05
552.3122,-4.48667E-05
552.4122,-4.4878E-05
552.5121,-4.487234E-05
552.6121,-4.485539E-05
552.7121,-4.486199E-05
552.8121,-4.485917E-05
552.912,-4.485163E-05
553.012,-4.4878E-05
553.112,-4.485069E-05
553.212,-4.484598E-05
553.312,-4.486387E-05
553.4119,-4.485257E-05
553.5119,-4.48328E-05
553.6119,-4.485351E-05
553.7119,-4.485728E-05
553.8118,-4.484786E-05
553.9118,-4.486575E-05
554.0118,-4.484504E-05
554.1118,-4.48488E-05
554.2117,-4.484692E-05
554.3117,-4.485163E-05
554.4117,-4.484221E-05
554.5117,-4.484409E-05
554.6116,-4.485634E-05
554.7116,-4.483845E-05
554.8116,-4.483845E-05
554.9116,-4.482997E-05
555.0115,-4.482526E-05
555.1115,-4.484221E-05
555.2115,-4.486199E-05
555.3115,-4.480831E-05
555.4114,-4.479136E-05
555.5114,-4.48328E-05
555.6114,-4.483656E-05
555.7114,-4.48262E-05
555.8113,-4.481679E-05
555.9113,-4.480737E-05
556.0113,-4.479607E-05
556.1113,-4.482149E-05
556.2112,-4.479701E-05
556.3112,-4.48036E-05
556.4112,-4.481867E-05
556.5112,-4.478854E-05
556.6111,-4.482432E-05
556.7111,-4.481019E-05
556.8111,-4.476876E-05
556.9111,-4.482903E-05
557.011,-4.484598E-05
557.111,-4.481019E-05
557.211,-4.478382E-05
557.311,-4.479513E-05
557.4109,-4.481773E-05
557.5109,-4.478476E-05
557.6109,-4.480737E-05
557.7109,-4.478006E-05
557.8109,-4.478006E-05
557.9108,-4.48036E-05
558.0108,-4.479136E-05
558.1108,-4.478194E-05
558.2108,-4.478382E-05
558.3107,-4.478006E-05
558.4107,-4.47923E-05
558.5107,-4.480454E-05
558.6107,-4.478948E-05
558.7106,-4.477158E-05
558.8106,-4.477629E-05
558.9106,-4.479889E-05
559.0106,-4.477441E-05
559.1105,-4.476217E-05
559.2105,-4.476782E-05
559.3105,-4.479324E-05
559.4105,-4.481773E-05
559.5104,-4.47923E-05
559.6104,-4.475275E-05
559.7104,-4.476311E-05
559.8104,-4.478382E-05
559.9103,-4.477535E-05
560.0103,-4.476876E-05
560.1103,-4.476782E-05
560.2103,-4.474898E-05
560.3102,-4.474898E-05
560.4102,-4.478288E-05
560.5102,-4.475651E-05
560.6102,-4.476688E-05
560.7101,-4.474898E-05
560.8101,-4.47292E-05
560.9101,-4.47405E-05
561.0101,-4.476123E-05
561.11,-4.474804E-05
561.21,-4.473674E-05
561.31,-4.474145E-05
561.41,-4.47358E-05
561.5099,-4.474615E-05
561.6099,-4.477252E-05
561.7099,-4.474898E-05
561.8099,-4.473392E-05
561.9099,-4.47358E-05
562.0098,-4.474333E-05
562.1098,-4.474521E-05
562.2098,-4.475369E-05
562.3098,-4.473297E-05
562.4097,-4.47245E-05
562.5097,-4.474427E-05
562.6097,-4.472355E-05
562.7097,-4.474239E-05
562.8096,-4.474145E-05
562.9096,-4.472355E-05
563.0096,-4.473014E-05
563.1096,-4.472732E-05
563.2095,-4.471414E-05
563.3095,-4.471037E-05
563.4095,-4.474427E-05
563.5095,-4.473485E-05
563.6094,-4.470189E-05
563.7094,-4.473392E-05
563.8094,-4.472826E-05
563.9094,-4.473014E-05
564.0093,-4.475369E-05
564.1093,-4.474333E-05
564.2093,-4.47292E-05
564.3093,-4.474239E-05
564.4092,-4.474333E-05
564.5092,-4.470849E-05
564.6092,-4.473768E-05
564.7092,-4.473109E-05
564.8091,-4.470754E-05
564.9091,-4.47179E-05
565.0091,-4.472544E-05
565.1091,-4.472167E-05
565.209,-4.473014E-05
565.309,-4.472544E-05
565.409,-4.469154E-05
565.509,-4.469342E-05
565.6089,-4.47245E-05
565.7089,-4.470566E-05
565.8089,-4.471602E-05
565.9089,-4.470095E-05
566.0089,-4.469813E-05
566.1088,-4.470472E-05
566.2088,-4.472261E-05
566.3088,-4.469719E-05
566.4088,-4.469531E-05
566.5087,-4.469154E-05
566.6087,-4.469059E-05
566.7087,-4.471885E-05
566.8087,-4.472073E-05
566.9086,-4.470943E-05
567.0086,-4.468306E-05
567.1086,-4.469624E-05
567.2086,-4.469907E-05
567.3085,-4.469248E-05
567.4085,-4.472544E-05
567.5085,-4.468965E-05
567.6085,-4.468777E-05
567.7084,-4.469342E-05
567.8084,-4.468023E-05
567.9084,-4.468118E-05
568.0084,-4.468965E-05
568.1083,-4.469813E-05
568.2083,-4.468965E-05
568.3083,-4.469342E-05
568.4083,-4.469719E-05
568.5082,-4.465293E-05
568.6082,-4.470754E-05
568.7082,-4.471225E-05
568.8082,-4.468777E-05
568.9081,-4.468683E-05
569.0081,-4.467081E-05
569.1081,-4.469813E-05
569.2081,-4.469248E-05
569.308,-4.469248E-05
569.408,-4.467081E-05
569.508,-4.467647E-05
569.608,-4.468023E-05
569.7079,-4.468023E-05
569.8079,-4.466799E-05
569.9079,-4.466705E-05
570.0079,-4.465951E-05
570.1078,-4.468494E-05
570.2078,-4.468212E-05
570.3078,-4.465481E-05
570.4078,-4.466799E-05
570.5078,-4.466234E-05
570.6077,-4.465387E-05
570.7077,-4.468588E-05
570.8077,-4.467458E-05
570.9077,-4.465198E-05
571.0076,-4.466328E-05
571.1076,-4.468683E-05
571.2076,-4.467176E-05
571.3076,-4.46501E-05
571.4075,-4.466893E-05
571.5075,-4.468683E-05
571.6075,-4.467929E-05
571.7075,-4.466423E-05
571.8074,-4.466423E-05
571.9074,-4.467458E-05
572.0074,-4.468777E-05
572.1074,-4.467647E-05
572.2073,-4.466988E-05
572.3073,-4.468683E-05
572.4073,-4.466705E-05
572.5073,-4.468118E-05
572.6072,-4.466516E-05
572.7072,-4.466799E-05
572.8072,-4.468118E-05
572.9072,-4.468118E-05
573.0071,-4.466611E-05
573.1071,-4.466046E-05
573.2071,-4.47179E-05
573.3071,-4.470001E-05
573.407,-4.465763E-05
573.507,-4.466328E-05
573.607,-4.467176E-05
573.707,-4.467081E-05
573.8069,-4.467081E-05
573.9069,-4.466705E-05
574.0069,-4.467081E-05
574.1069,-4.470189E-05
574.2068,-4.468212E-05
574.3068,-4.467553E-05
574.4068,-4.467741E-05
574.5068,-4.466423E-05
574.6068,-4.467081E-05
574.7067,-4.466893E-05
574.8067,-4.466423E-05
574.9067,-4.4684E-05
575.0067,-4.468023E-05
575.1066,-4.47066E-05
575.2066,-4.469248E-05
575.3066,-4.468023E-05
575.4066,-4.471131E-05
575.5065,-4.467458E-05
575.6065,-4.466799E-05
575.7065,-4.468683E-05
575.8065,-4.469248E-05
575.9064,-4.466046E-05
576.0064,-4.467553E-05
576.1064,-4.469624E-05
576.2064,-4.468494E-05
576.3063,-4.466893E-05
576.4063,-4.466988E-05
576.5063,-4.466611E-05
576.6063,-4.470001E-05
576.7062,-4.469436E-05
576.8062,-4.467176E-05
576.9062,-4.466423E-05
577.0062,-4.467741E-05
577.1061,-4.467458E-05
577.2061,-4.469624E-05
577.3061,-4.467647E-05
577.4061,-4.465763E-05
577.506,-4.465763E-05
577.606,-4.468212E-05
577.706,-4.468494E-05
577.806,-4.470284E-05
577.9059,-4.4684E-05
578.0059,-4.466988E-05
578.1059,-4.467364E-05
578.2059,-4.468306E-05
578.3058,-4.467553E-05
578.4058,-4.468306E-05
578.5058,-4.469813E-05
578.6058,-4.468588E-05
578.7057,-4.468777E-05
578.8057,-4.4684E-05
578.9057,-4.46614E-05
579.0057,-4.46727E-05
579.1057,-4.469154E-05
579.2056,-4.469248E-05
579.3056,-4.468306E-05
579.4056,-4.466046E-05
579.5056,-4.467176E-05
579.6055,-4.466516E-05
579.7055,-4.469342E-05
579.8055,-4.468683E-05
579.9055,-4.467081E-05
580.0054,-4.47066E-05
580.1054,-4.473014E-05
580.2054,-4.470754E-05
580.3054,-4.470095E-05
580.4053,-4.471225E-05
580.5053,-4.467458E-05
580.6053,-4.470472E-05
580.7053,-4.471885E-05
580.8052,-4.469907E-05
580.9052,-4.470943E-05
581.0052,-4.470095E-05
581.1052,-4.468023E-05
581.2051,-4.469342E-05
581.3051,-4.468212E-05
581.4051,-4.467835E-05
581.5051,-4.470943E-05
581.605,-4.473203E-05
581.705,-4.468118E-05
581.805,-4.469059E-05
581.905,-4.469342E-05
582.0049,-4.469248E-05
582.1049,-4.472544E-05
582.2049,-4.471225E-05
582.3049,-4.468023E-05
582.4048,-4.470943E-05
582.5048,-4.47245E-05
582.6048,-4.470849E-05
582.7048,-4.469059E-05
582.8047,-4.471319E-05
582.9047,-4.470472E-05
583.0047,-4.472261E-05
583.1047,-4.473297E-05
583.2047,-4.470001E-05
583.3046,-4.469531E-05
583.4046,-4.473485E-05
583.5046,-4.470095E-05
583.6046,-4.472544E-05
583.7045,-4.473109E-05
583.8045,-4.470095E-05
583.9045,-4.470189E-05
584.0045,-4.47245E-05
584.1044,-4.470849E-05
584.2044,-4.471131E-05
584.3044,-4.470943E-05
584.4044,-4.469248E-05
584.5043,-4.470754E-05
584.6043,-4.473768E-05
584.7043,-4.471979E-05
584.8043,-4.471131E-05
584.9042,-4.471037E-05
585.0042,-4.471414E-05
585.1042,-4.472073E-05
585.2042,-4.47471E-05
585.3041,-4.471696E-05
585.4041,-4.469719E-05
585.5041,-4.473392E-05
585.6041,-4.473297E-05
585.704,-4.470189E-05
585.804,-4.471225E-05
585.904,-4.471602E-05
586.004,-4.472826E-05
586.1039,-4.471414E-05
586.2039,-4.472544E-05
586.3039,-4.471131E-05
586.4039,-4.473957E-05
586.5038,-4.47179E-05
586.6038,-4.471131E-05
586.7038,-4.473862E-05
586.8038,-4.473768E-05
586.9037,-4.472167E-05
587.0037,-4.472167E-05
587.1037,-4.472167E-05
587.2037,-4.47245E-05
587.3036,-4.474145E-05
587.4036,-4.473674E-05
587.5036,-4.471037E-05
587.6036,-4.472355E-05
587.7036,-4.47292E-05
587.8035,-4.47358E-05
587.9035,-4.473862E-05
588.0035,-4.473392E-05
588.1035,-4.472826E-05
588.2034,-4.471507E-05
588.3034,-4.473109E-05
588.4034,-4.471979E-05
588.5034,-4.474804E-05
588.6033,-4.474992E-05
588.7033,-4.471696E-05
588.8033,-4.47292E-05
588.9033,-4.477158E-05
589.0032,-4.472638E-05
589.1032,-4.471696E-05
589.2032,-4.475181E-05
589.3032,-4.477723E-05
589.4031,-4.475934E-05
589.5031,-4.476593E-05
589.6031,-4.473674E-05
589.7031,-4.47405E-05
589.803,-4.476593E-05
589.903,-4.476123E-05
590.003,-4.475275E-05
590.103,-4.476593E-05
590.2029,-4.476593E-05
590.3029,-4.474239E-05
590.4029,-4.478194E-05
590.5029,-4.478476E-05
590.6028,-4.473768E-05
590.7028,-4.47923E-05
590.8028,-4.481867E-05
590.9028,-4.477723E-05
591.0027,-4.476688E-05
591.1027,-4.476593E-05
591.2027,-4.478665E-05
591.3027,-4.478382E-05
591.4026,-4.47923E-05
591.5026,-4.476688E-05
591.6026,-4.478571E-05
591.7026,-4.479607E-05
591.8026,-4.478006E-05
591.9025,-4.477347E-05
592.0025,-4.474992E-05
592.1025,-4.477629E-05
592.2025,-4.47697E-05
592.3024,-4.478665E-05
592.4024,-4.477252E-05
592.5024,-4.47471E-05
592.6024,-4.478571E-05
592.7023,-4.479042E-05
592.8023,-4.4781E-05
592.9023,-4.4781E-05
593.0023,-4.477064E-05
593.1022,-4.476405E-05
593.2022,-4.479513E-05
593.3022,-4.476876E-05
593.4022,-4.475275E-05
593.5021,-4.479607E-05
593.6021,-4.479513E-05
593.7021,-4.476782E-05
593.8021,-4.478476E-05
593.902,-4.479513E-05
594.002,-4.476876E-05
594.102,-4.479513E-05
594.202,-4.480831E-05
594.3019,-4.477629E-05
594.4019,-4.478948E-05
594.5019,-4.479795E-05
594.6019,-4.477723E-05
594.7018,-4.4781E-05
594.8018,-4.480454E-05
594.9018,-4.478854E-05
595.0018,-4.480454E-05
595.1017,-4.481302E-05
595.2017,-4.479513E-05
595.3017,-4.479324E-05
595.4017,-4.480454E-05
595.5016,-4.480171E-05
595.6016,-4.481773E-05
595.7016,-4.479042E-05
595.8016,-4.479042E-05
595.9016,-4.481961E-05
596.0015,-4.48149E-05
596.1015,-4.482526E-05
596.2015,-4.480831E-05
596.3015,-4.480737E-05
596.4014,-4.480077E-05
596.5014,-4.480737E-05
596.6014,-4.479701E-05
596.7014,-4.480737E-05
596.8013,-4.482903E-05
596.9013,-4.481584E-05
597.0013,-4.480171E-05
597.1013,-4.479324E-05
597.2012,-4.483656E-05
597.3012,-4.482903E-05
597.4012,-4.481302E-05
597.5012,-4.482055E-05
597.6011,-4.481302E-05
597.7011,-4.481302E-05
597.8011,-4.484127E-05
597.9011,-4.484221E-05
598.001,-4.482243E-05
598.101,-4.481867E-05
598.201,-4.484315E-05
598.301,-4.482997E-05
598.4009,-4.482997E-05
598.5009,-4.485351E-05
598.6009,-4.484221E-05
598.7009,-4.482997E-05
598.8008,-4.483656E-05
598.9008,-4.48149E-05
599.0008,-4.486575E-05
599.1008,-4.48667E-05
599.2007,-4.481867E-05
599.3007,-4.483091E-05
599.4007,-4.485257E-05
599.5007,-4.483656E-05
599.6006,-4.485728E-05
599.7006,-4.483845E-05
599.8006,-4.482149E-05
599.9006,-4.485163E-05
600.0005,-4.486387E-05
