EXPID. 0783
[电化学]: i-t : @ 0(V) X 600(sec)
起始电位 (V),0
静置时间 (秒),0
运行时间 (秒),600
记录间隔,0.1
电解液 信息:
HNO3,0.4
0.1,-0.01005814
0.2,-0.01005814
0.3,-0.009971838
0.4,0.001270738
0.5,0.002741067
0.6,-0.001080655
0.7,-0.003598894
0.8000001,-0.00417971
0.9000001,-0.004146678
1,-0.003974008
1.1,-0.003785982
1.2,-0.003613353
1.3,-0.003466811
1.4,-0.003342264
1.5,-0.003225907
1.6,-0.003121738
1.7,-0.003022718
1.8,-0.002927975
1.9,-0.002840464
2,-0.002755068
2.1,-0.002670864
2.2,-0.002592769
2.3,-0.00251588
2.4,-0.00244023
2.5,-0.002369016
2.6,-0.00230326
2.7,-0.00223558
2.799999,-0.002177112
2.899999,-0.002121393
2.999999,-0.002067206
3.099999,-0.002018257
3.199999,-0.001971253
3.299999,-0.001926048
3.399999,-0.001885197
3.499999,-0.001844045
3.599999,-0.001804236
3.699999,-0.001767483
3.799999,-0.00173266
3.899998,-0.001698409
3.999998,-0.001665805
4.099998,-0.001634374
4.199998,-0.00160586
4.299998,-0.00157882
4.399998,-0.001552488
4.499998,-0.001529282
4.599998,-0.001507037
4.699998,-0.001483796
4.799998,-0.001464385
4.899998,-0.001444655
4.999998,-0.001426208
5.099998,-0.001408721
5.199997,-0.001391801
5.299997,-0.001376273
5.399997,-0.001360572
5.499997,-0.001345566
5.599997,-0.001331576
5.699997,-0.001318277
5.799997,-0.001304584
5.899997,-0.001292162
5.999997,-0.001280721
6.099997,-0.00126818
6.199996,-0.001257423
6.299996,-0.001246856
6.399996,-0.001235734
6.499996,-0.001225952
6.599996,-0.001215951
6.699996,-0.001206518
6.799996,-0.001197454
6.899996,-0.001188561
6.999996,-0.001180142
7.099996,-0.001171487
7.199996,-0.001163322
7.299995,-0.00115616
7.399995,-0.001148174
7.499995,-0.001140583
7.599995,-0.001133821
7.699995,-0.001126391
7.799995,-0.001119481
7.899995,-0.001113105
7.999995,-0.001106383
8.099995,-0.001099838
8.199995,-0.001093734
8.299995,-0.001087801
8.399996,-0.001081411
8.499996,-0.001075843
8.599997,-0.001070121
8.699997,-0.001064459
8.799997,-0.001059165
8.899998,-0.001053854
8.999998,-0.001048432
9.099998,-0.001043575
9.199999,-0.001038432
9.299999,-0.001033554
9.4,-0.001029312
9.5,-0.001024507
9.6,-0.001019464
9.700001,-0.001015455
9.800001,-0.001010785
9.900002,-0.001006391
10,-0.001002431
10.1,-0.0009980344
10.2,-0.0009943193
10.3,-0.0009906946
10.4,-0.0009862026
10.5,-0.00098264
10.6,-0.0009791085
10.7,-0.0009749169
10.8,-0.0009713109
10.90001,-0.0009679536
11.00001,-0.0009639447
11.10001,-0.0009604076
11.20001,-0.0009572179
11.30001,-0.0009534218
11.40001,-0.0009499054
11.50001,-0.0009468231
11.60001,-0.0009432115
11.70001,-0.0009400605
11.80001,-0.0009369283
11.90001,-0.0009336577
12.00001,-0.0009306197
12.10001,-0.000927575
12.20001,-0.0009246811
12.30001,-0.0009215339
12.40001,-0.0009188961
12.50001,-0.0009156763
12.60001,-0.0009132183
12.70001,-0.000910428
12.80001,-0.0009076339
12.90001,-0.0009049725
13.00001,-0.0009021445
13.10001,-0.0008995039
13.20001,-0.0008969311
13.30001,-0.000894282
13.40001,-0.0008918109
13.50002,-0.0008893163
13.60002,-0.0008867472
13.70002,-0.0008840887
13.80002,-0.0008819614
13.90002,-0.0008793292
14.00002,-0.000876974
14.10002,-0.0008749944
14.20002,-0.0008728416
14.30002,-0.000870508
14.40002,-0.0008681979
14.50002,-0.000866096
14.60002,-0.0008639197
14.70002,-0.0008617339
14.80002,-0.000859729
14.90002,-0.0008575696
15.00002,-0.0008553641
15.10002,-0.0008532659
15.20002,-0.0008513654
15.30002,-0.0008491392
15.40002,-0.0008470552
15.50002,-0.0008451434
15.60002,-0.0008429379
15.70002,-0.000841061
15.80002,-0.0008392256
15.90002,-0.0008372856
16.00002,-0.0008351921
16.10003,-0.0008334462
16.20003,-0.0008313386
16.30003,-0.0008296972
16.40003,-0.0008278118
16.50003,-0.0008259114
16.60003,-0.0008242144
16.70003,-0.0008224627
16.80003,-0.0008204437
16.90003,-0.0008187448
17.00003,-0.0008170751
17.10003,-0.0008153357
17.20003,-0.0008138394
17.30003,-0.0008120755
17.40003,-0.0008102296
17.50003,-0.0008086476
17.60003,-0.0008070127
17.70003,-0.000805375
17.80003,-0.0008037307
17.90003,-0.0008020602
18.00003,-0.0008004771
18.10003,-0.0007992435
18.20003,-0.0007979551
18.30003,-0.000796375
18.40003,-0.0007945546
18.50003,-0.0007929743
18.60003,-0.0007913329
18.70004,-0.0007898695
18.80004,-0.0007882864
18.90004,-0.0007868794
19.00004,-0.0007853877
19.10004,-0.0007838593
19.20004,-0.0007822386
19.30004,-0.0007807789
19.40004,-0.0007793089
19.50004,-0.0007777908
19.60004,-0.0007763641
19.70004,-0.0007750409
19.80004,-0.0007735398
19.90004,-0.000772163
20.00004,-0.0007707985
20.10004,-0.0007693623
20.20004,-0.0007679318
20.30004,-0.0007666039
20.40004,-0.0007652272
20.50004,-0.0007639069
20.60004,-0.0007625818
20.70004,-0.0007612398
20.80004,-0.0007599422
20.90004,-0.0007586764
21.00004,-0.0007574126
21.10004,-0.0007560218
21.20004,-0.0007550461
21.30005,-0.0007536852
21.40005,-0.0007523979
21.50005,-0.0007511539
21.60005,-0.0007499391
21.70005,-0.0007487158
21.80005,-0.0007474379
21.90005,-0.000746206
22.00005,-0.0007450628
22.10005,-0.0007438508
22.20005,-0.0007426877
22.30005,-0.000741504
22.40005,-0.0007402938
22.50005,-0.0007390358
22.60005,-0.0007379414
22.70005,-0.0007368207
22.80005,-0.0007357142
22.90005,-0.0007345154
23.00005,-0.0007334239
23.10005,-0.0007323353
23.20005,-0.0007312081
23.30005,-0.0007300761
23.40005,-0.0007290232
23.50005,-0.0007276945
23.60005,-0.0007267622
23.70005,-0.0007257328
23.80005,-0.0007245076
23.90005,-0.0007234548
24.00006,-0.0007224669
24.10006,-0.0007213613
24.20006,-0.0007203593
24.30006,-0.0007192396
24.40006,-0.000718118
24.50006,-0.0007172544
24.60006,-0.0007162091
24.70006,-0.0007149811
24.80006,-0.0007140893
24.90006,-0.000713108
25.00006,-0.0007119412
25.10006,-0.0007110814
25.20006,-0.0007100643
25.30006,-0.0007088702
25.40006,-0.0007080961
25.50006,-0.0007071072
25.60006,-0.0007059065
25.70006,-0.0007049949
25.80006,-0.0007040551
25.90006,-0.00070299
26.00006,-0.0007021114
26.10006,-0.0007012064
26.20006,-0.0007000961
26.30006,-0.0006992024
26.40006,-0.0006985412
26.50006,-0.0006972982
26.60007,-0.0006963612
26.70007,-0.0006954891
26.80007,-0.0006946143
26.90007,-0.0006938665
27.00007,-0.0006929549
27.10007,-0.0006918983
27.20007,-0.0006910583
27.30007,-0.0006899913
27.40007,-0.0006891617
27.50007,-0.0006883282
27.60007,-0.0006874872
27.70007,-0.0006869231
27.80007,-0.0006862094
27.90007,-0.00068518
28.00007,-0.0006841582
28.10007,-0.0006833606
28.20007,-0.0006823699
28.30007,-0.0006814403
28.40007,-0.0006807557
28.50007,-0.0006798168
28.60007,-0.0006790436
28.70007,-0.0006781999
28.80007,-0.0006773391
28.90007,-0.0006764822
29.00007,-0.0006757307
29.10007,-0.0006747598
29.20008,-0.0006739122
29.30008,-0.0006729695
29.40008,-0.0006720749
29.50008,-0.0006712075
29.60008,-0.0006704956
29.70008,-0.0006696763
29.80008,-0.0006687477
29.90008,-0.0006679877
30.00008,-0.0006672071
30.10008,-0.000666335
30.20008,-0.0006656353
30.30008,-0.0006648857
30.40008,-0.0006640513
30.50008,-0.0006632075
30.60008,-0.0006623553
30.70008,-0.0006616047
30.80008,-0.000660791
30.90008,-0.0006600254
31.00008,-0.0006592372
31.10008,-0.000658416
31.20008,-0.0006577708
31.30008,-0.0006570373
31.40008,-0.000656217
31.50008,-0.0006553525
31.60008,-0.0006546
31.70008,-0.000653907
31.80009,-0.0006531611
31.90009,-0.0006523277
32.00008,-0.0006514896
32.10008,-0.0006506749
32.20008,-0.0006500384
32.30008,-0.00064917
32.40008,-0.0006483319
32.50008,-0.0006476624
32.60007,-0.0006468958
32.70007,-0.0006462093
32.80007,-0.0006454116
32.90007,-0.0006445989
33.00007,-0.0006438907
33.10007,-0.0006431995
33.20007,-0.0006424216
33.30006,-0.0006417765
33.40006,-0.0006409497
33.50006,-0.0006402377
33.60006,-0.0006395682
33.70006,-0.0006387422
33.80006,-0.0006381141
33.90005,-0.0006372958
34.00005,-0.0006365753
34.10005,-0.0006358285
34.20005,-0.0006351345
34.30005,-0.0006345299
34.40005,-0.0006337954
34.50005,-0.0006331456
34.60004,-0.0006323281
34.70004,-0.0006315786
34.80004,-0.0006310417
34.90004,-0.0006302318
35.00004,-0.000629599
35.10004,-0.0006294578
35.20004,-0.0006285009
35.30003,-0.0006277287
35.40003,-0.0006269405
35.50003,-0.0006263265
35.60003,-0.0006256221
35.70003,-0.0006249007
35.80003,-0.0006242688
35.90002,-0.0006236058
36.00002,-0.0006228232
36.10002,-0.0006222488
36.20002,-0.0006215369
36.30002,-0.0006208145
36.40002,-0.0006202345
36.50002,-0.0006194914
36.60001,-0.0006189122
36.70001,-0.0006182634
36.80001,-0.000617608
36.90001,-0.0006169619
37.00001,-0.000616249
37.10001,-0.0006155823
37.2,-0.0006150068
37.3,-0.0006143288
37.4,-0.0006136602
37.5,-0.0006130584
37.6,-0.0006124519
37.7,-0.000611724
37.8,-0.0006111495
37.89999,-0.0006105035
37.99999,-0.0006098537
38.09999,-0.0006092237
38.19999,-0.0006086436
38.29999,-0.000607991
38.39999,-0.0006075944
38.49998,-0.0006068439
38.59998,-0.0006061564
38.69998,-0.0006056611
38.79998,-0.0006049596
38.89998,-0.0006043361
38.99998,-0.0006038577
39.09998,-0.0006030978
39.19997,-0.000602626
39.29997,-0.0006022182
39.39997,-0.0006017953
39.49997,-0.0006008084
39.59997,-0.0006000399
39.69997,-0.0005994081
39.79996,-0.0005988468
39.89996,-0.000598212
39.99996,-0.0005975679
40.09996,-0.0005970038
40.19996,-0.0005964161
40.29996,-0.0005959133
40.39996,-0.0005954264
40.49995,-0.0005946862
40.59995,-0.0005940873
40.69995,-0.0005935099
40.79995,-0.0005928592
40.89995,-0.0005923687
40.99995,-0.0005920287
41.09995,-0.0005912075
41.19994,-0.0005906415
41.29994,-0.0005899898
41.39994,-0.0005893287
41.49994,-0.0005889228
41.59994,-0.0005883324
41.69994,-0.0005876693
41.79993,-0.0005871166
41.89993,-0.0005865308
41.99993,-0.0005859403
42.09993,-0.0005855006
42.19993,-0.0005849694
42.29993,-0.000584232
42.39993,-0.0005836256
42.49992,-0.0005831726
42.59992,-0.0005826565
42.69992,-0.0005819841
42.79992,-0.0005813899
42.89992,-0.0005808296
42.99992,-0.0005804453
43.09991,-0.0005799349
43.19991,-0.0005792088
43.29991,-0.0005786108
43.39991,-0.0005780675
43.49991,-0.0005775024
43.59991,-0.0005769826
43.69991,-0.0005764015
43.7999,-0.0005758054
43.8999,-0.0005753402
43.9999,-0.0005748768
44.0999,-0.0005741856
44.1999,-0.0005737054
44.2999,-0.0005731724
44.39989,-0.0005725009
44.49989,-0.000572079
44.59989,-0.0005716044
44.69989,-0.0005709904
44.79989,-0.000570463
44.89989,-0.0005699526
44.99989,-0.0005693207
45.09988,-0.0005689816
45.19988,-0.0005683214
45.29988,-0.0005677527
45.39988,-0.0005672451
45.49988,-0.0005666848
45.59988,-0.0005661366
45.69987,-0.0005656743
45.79987,-0.0005651309
45.89987,-0.0005645207
45.99987,-0.0005640319
46.09987,-0.0005635535
46.19987,-0.0005629385
46.29987,-0.000562446
46.39986,-0.0005619403
46.49986,-0.0005613338
46.59986,-0.0005608413
46.69986,-0.0005603327
46.79986,-0.0005597367
46.89986,-0.0005592291
46.99986,-0.0005587526
47.09985,-0.00055818
47.19985,-0.0005577063
47.29985,-0.0005572542
47.39985,-0.0005566666
47.49985,-0.0005561694
47.59985,-0.0005557032
47.69984,-0.0005551551
47.79984,-0.0005546334
47.89984,-0.000554124
47.99984,-0.0005537086
48.09984,-0.0005534262
48.19984,-0.0005530184
48.29984,-0.0005522743
48.39983,-0.0005517442
48.49983,-0.0005513167
48.59983,-0.0005506885
48.69983,-0.0005502045
48.79983,-0.0005496639
48.89983,-0.0005492128
48.99982,-0.0005487796
49.09982,-0.0005485169
49.19982,-0.0005479518
49.29982,-0.0005473501
49.39982,-0.000546963
49.49982,-0.0005464205
49.59982,-0.0005458405
49.69981,-0.0005453677
49.79981,-0.0005448451
49.89981,-0.0005444279
49.99981,-0.0005439438
50.09981,-0.0005435201
50.19981,-0.0005429531
50.2998,-0.0005423429
50.3998,-0.0005420067
50.4998,-0.0005415612
50.5998,-0.0005410631
50.6998,-0.000540628
50.7998,-0.0005400893
50.8998,-0.000539577
50.99979,-0.0005391909
51.09979,-0.0005386324
51.19979,-0.0005381042
51.29979,-0.0005376088
51.39979,-0.0005371982
51.49979,-0.0005367518
51.59978,-0.0005362574
51.69978,-0.0005357677
51.79978,-0.000535407
51.89978,-0.0005348486
51.99978,-0.0005343231
52.09978,-0.0005338448
52.19978,-0.0005334332
52.29977,-0.0005328672
52.39977,-0.0005326166
52.49977,-0.0005320526
52.59977,-0.0005314273
52.69977,-0.000531027
52.79977,-0.0005305675
52.89977,-0.0005300109
52.99976,-0.0005296389
53.09976,-0.0005291492
53.19976,-0.0005286981
53.29976,-0.000528183
53.39976,-0.0005277563
53.49976,-0.0005273072
53.59975,-0.0005268203
53.69975,-0.0005264154
53.79975,-0.0005258315
53.89975,-0.0005255028
53.99975,-0.000525144
54.09975,-0.0005245187
54.19975,-0.000524062
54.29974,-0.0005236165
54.39974,-0.0005231156
54.49974,-0.0005227699
54.59974,-0.0005222237
54.69974,-0.0005216954
54.79974,-0.0005212961
54.89973,-0.0005208526
54.99973,-0.0005203949
55.09973,-0.0005199626
55.19973,-0.0005194786
55.29973,-0.0005190115
55.39973,-0.0005185961
55.49973,-0.0005181206
55.59972,-0.0005176799
55.69972,-0.0005173258
55.79972,-0.000516806
55.89972,-0.000516385
55.99972,-0.0005158821
56.09972,-0.000515578
56.19971,-0.0005150656
56.29971,-0.0005146108
56.39971,-0.0005140824
56.49971,-0.0005137397
56.59971,-0.0005132067
56.69971,-0.0005128479
56.79971,-0.0005124325
56.8997,-0.0005120126
56.9997,-0.0005114918
57.0997,-0.0005110831
57.1997,-0.0005105991
57.2997,-0.0005101507
57.3997,-0.0005097769
57.49969,-0.0005093032
57.59969,-0.0005089434
57.69969,-0.0005085922
57.79969,-0.0005079998
57.89969,-0.0005076571
57.99969,-0.000507221
58.09969,-0.0005067106
58.19968,-0.0005062633
58.29968,-0.000506008
58.39968,-0.0005054317
58.49968,-0.0005050541
58.59968,-0.0005047358
58.69968,-0.0005041944
58.79967,-0.0005037677
58.89967,-0.0005034588
58.99967,-0.0005029201
59.09967,-0.0005025001
59.19967,-0.0005020952
59.29967,-0.0005016761
59.39967,-0.0005012241
59.49966,-0.0005008577
59.59966,-0.0005003822
59.69966,-0.0005000413
59.79966,-0.0004996024
59.89966,-0.0004991391
59.99966,-0.0004987831
60.09966,-0.0004983951
60.19965,-0.0004978894
60.29965,-0.0004974722
60.39965,-0.0004970654
60.49965,-0.0004966162
60.59965,-0.0004962065
60.69965,-0.0004958204
60.79964,-0.0004953533
60.89964,-0.0004949436
60.99964,-0.0004945886
61.09964,-0.0004941639
61.19964,-0.000493678
61.29964,-0.0004932985
61.39964,-0.0004928144
61.49963,-0.000492482
61.59963,-0.0004920798
61.69963,-0.0004916354
61.79963,-0.0004912182
61.89963,-0.000490849
61.99963,-0.0004903913
62.09962,-0.0004900203
62.19962,-0.0004896247
62.29962,-0.0004891953
62.39962,-0.0004888026
62.49962,-0.0004884918
62.59962,-0.0004879494
62.69962,-0.0004875228
62.79961,-0.0004871838
62.89961,-0.0004867478
62.99961,-0.0004862967
63.09961,-0.0004859304
63.19961,-0.0004854811
63.29961,-0.000485096
63.3996,-0.0004847324
63.4996,-0.0004843322
63.5996,-0.0004838576
63.6996,-0.0004834526
63.7996,-0.0004830411
63.8996,-0.0004826513
63.9996,-0.0004822482
64.09959,-0.0004818988
64.19959,-0.0004814844
64.29959,-0.0004810117
64.39959,-0.0004806416
64.49959,-0.0004803308
64.59959,-0.000479908
64.69958,-0.0004794287
64.79958,-0.0004790256
64.89958,-0.0004786527
64.99958,-0.0004782713
65.09958,-0.000477822
65.19958,-0.0004774293
65.29958,-0.0004770329
65.39957,-0.0004766929
65.49957,-0.0004762861
65.59957,-0.0004759697
65.69957,-0.0004755628
65.79957,-0.0004750402
65.89957,-0.000474752
65.99957,-0.0004743631
66.09956,-0.0004739346
66.19956,-0.0004735946
66.29956,-0.0004731727
66.39956,-0.0004727536
66.49956,-0.0004724316
66.59956,-0.0004720615
66.69955,-0.0004717809
66.79955,-0.0004713373
66.89955,-0.0004709418
66.99955,-0.0004705349
67.09955,-0.0004701931
67.19955,-0.000469839
67.29955,-0.0004693973
67.39954,-0.0004690291
67.49954,-0.0004687127
67.59954,-0.0004682437
67.69954,-0.0004678463
67.79954,-0.0004674526
67.89954,-0.0004670599
67.99953,-0.0004667652
68.09953,-0.0004663875
68.19953,-0.0004659666
68.29953,-0.0004655984
68.39953,-0.0004652141
68.49953,-0.0004648384
68.59953,-0.0004645333
68.69952,-0.0004641104
68.79952,-0.0004637196
68.89952,-0.0004633928
68.99952,-0.0004629747
69.09952,-0.0004625971
69.19952,-0.0004622637
69.29951,-0.0004618861
69.39951,-0.0004616431
69.49951,-0.0004611967
69.59951,-0.000460772
69.69951,-0.0004603793
69.79951,-0.0004601109
69.89951,-0.0004596401
69.9995,-0.0004593236
70.0995,-0.0004589723
70.1995,-0.0004585712
70.2995,-0.0004582707
70.3995,-0.000457959
70.4995,-0.0004575136
70.59949,-0.0004571454
70.69949,-0.0004567998
70.79949,-0.0004563816
70.89949,-0.0004560341
70.99949,-0.0004556989
71.09949,-0.0004552412
71.19949,-0.0004549597
71.29948,-0.0004545707
71.39948,-0.0004541667
71.49948,-0.0004538305
71.59948,-0.0004534585
71.69948,-0.0004530846
71.79948,-0.0004527965
71.89948,-0.0004524094
71.99947,-0.0004520374
72.09947,-0.0004517747
72.19947,-0.0004514027
72.29947,-0.0004509884
72.39947,-0.0004506682
72.49947,-0.0004502679
72.59946,-0.0004499364
72.69946,-0.0004496727
72.79946,-0.0004493158
72.89946,-0.0004489307
72.99946,-0.0004484937
73.09946,-0.0004481773
73.19946,-0.0004477827
73.29945,-0.0004474785
73.39945,-0.0004471583
73.49945,-0.0004467176
73.59945,-0.0004464379
73.69945,-0.0004460452
73.79945,-0.0004456318
73.89944,-0.0004452909
73.99944,-0.0004449349
74.09944,-0.0004446081
74.19944,-0.0004443435
74.29944,-0.000443915
74.39944,-0.0004435176
74.49944,-0.0004431484
74.59943,-0.0004428706
74.69943,-0.0004424713
74.79943,-0.0004421154
74.89943,-0.00044183
74.99943,-0.0004415334
75.09943,-0.0004412311
75.19942,-0.0004409947
75.29942,-0.0004404513
75.39942,-0.0004401293
75.49942,-0.0004399306
75.59942,-0.0004395247
75.69942,-0.0004391235
75.79942,-0.0004387581
75.89941,-0.0004383889
75.99941,-0.0004380989
76.09941,-0.0004377994
76.19941,-0.0004373991
76.29941,-0.0004370809
76.39941,-0.0004367616
76.4994,-0.0004364659
76.5994,-0.0004360534
76.6994,-0.0004357295
76.7994,-0.0004353095
76.8994,-0.0004350542
76.9994,-0.0004346625
77.0994,-0.0004343659
77.19939,-0.0004340579
77.29939,-0.0004336671
77.39939,-0.0004333431
77.49939,-0.0004330116
77.59939,-0.0004326312
77.69939,-0.0004322545
77.79939,-0.0004319456
77.89938,-0.0004315689
77.99938,-0.0004312374
78.09938,-0.0004310029
78.19938,-0.0004305961
78.29938,-0.000430259
78.39938,-0.0004299331
78.49937,-0.0004295489
78.59937,-0.0004292117
78.69937,-0.0004288869
78.79937,-0.0004285582
78.89937,-0.0004282013
78.99937,-0.000427948
79.09937,-0.0004275373
79.19936,-0.0004272341
79.29936,-0.000426913
79.39936,-0.0004265589
79.49936,-0.0004262246
79.59936,-0.0004259279
79.69936,-0.0004255409
79.79935,-0.0004252442
79.89935,-0.0004249768
79.99935,-0.0004245163
80.09935,-0.0004241829
80.19935,-0.0004239164
80.29935,-0.0004235209
80.39935,-0.0004232233
80.49934,-0.0004228833
80.59934,-0.0004225707
80.69934,-0.0004222034
80.79934,-0.0004219322
80.89934,-0.000421579
80.99934,-0.0004212202
81.09933,-0.0004209678
81.19933,-0.0004205865
81.29933,-0.0004202154
81.39933,-0.0004199621
81.49933,-0.0004195816
81.59933,-0.000419349
81.69933,-0.0004191098
81.79932,-0.0004186257
81.89932,-0.0004182509
81.99932,-0.0004181125
82.09932,-0.0004179383
82.19932,-0.0004175183
82.29932,-0.0004170728
82.39931,-0.0004167272
82.49931,-0.000416359
82.59931,-0.0004160831
82.69931,-0.0004157365
82.79931,-0.0004153561
82.89931,-0.0004151216
82.99931,-0.0004147769
83.0993,-0.0004145302
83.1993,-0.0004141864
83.2993,-0.0004138135
83.3993,-0.0004135159
83.4993,-0.0004132014
83.5993,-0.0004129471
83.6993,-0.0004125694
83.79929,-0.0004122634
83.89929,-0.000411979
83.99929,-0.0004116249
84.09929,-0.0004112925
84.19929,-0.0004109808
84.29929,-0.0004107171
84.39928,-0.0004103328
84.49928,-0.00041004
84.59928,-0.0004097339
84.69928,-0.0004093949
84.79928,-0.0004091114
84.89928,-0.0004087668
84.99928,-0.0004084315
85.09927,-0.0004081415
85.19927,-0.0004078335
85.29927,-0.0004074992
85.39927,-0.0004072817
85.49927,-0.0004068842
85.59927,-0.0004065678
85.69926,-0.0004062796
85.79926,-0.0004059303
85.89926,-0.0004055837
85.99926,-0.0004053219
86.09926,-0.0004049471
86.19926,-0.0004046486
86.29926,-0.0004044423
86.39925,-0.0004040393
86.49925,-0.0004037285
86.59925,-0.0004034592
86.69925,-0.0004030401
86.79925,-0.0004027218
86.89925,-0.0004024449
86.99924,-0.0004021294
87.09924,-0.0004018253
87.19924,-0.0004016068
87.29924,-0.0004012386
87.39924,-0.0004008223
87.49924,-0.0004006368
87.59924,-0.0004002817
87.69923,-0.0003999475
87.79923,-0.0003997375
87.89923,-0.0003994653
87.99923,-0.0003990745
88.09923,-0.000398808
88.19923,-0.0003984651
88.29922,-0.000398192
88.39922,-0.0003978408
88.49922,-0.0003976072
88.59922,-0.0003972682
88.69922,-0.0003969574
88.79922,-0.0003966467
88.89922,-0.0003963369
88.99921,-0.0003961372
89.09921,-0.0003959517
89.19921,-0.0003955618
89.29921,-0.0003951663
89.39921,-0.0003948762
89.49921,-0.000394574
89.59921,-0.0003942349
89.6992,-0.0003939599
89.7992,-0.0003936633
89.8992,-0.0003933732
89.9992,-0.0003930766
90.0992,-0.0003928091
90.1992,-0.0003924918
90.29919,-0.0003921998
90.39919,-0.0003918956
90.49919,-0.0003915529
90.59919,-0.0003914238
90.69919,-0.000391066
90.79919,-0.0003907656
90.89919,-0.0003905772
90.99918,-0.0003902467
91.09918,-0.0003898606
91.19918,-0.0003896609
91.29918,-0.0003894113
91.39918,-0.0003889763
91.49918,-0.0003886834
91.59917,-0.0003884508
91.69917,-0.0003880845
91.79917,-0.00038785
91.89917,-0.0003875543
91.99917,-0.0003872181
92.09917,-0.0003869563
92.19917,-0.0003867171
92.29916,-0.0003863244
92.39916,-0.0003860183
92.49916,-0.0003857603
92.59916,-0.0003854693
92.69916,-0.0003852517
92.79916,-0.0003849513
92.89915,-0.0003845746
92.99915,-0.0003843533
93.09915,-0.0003841019
93.19915,-0.0003838043
93.29915,-0.0003834898
93.39915,-0.0003832129
93.49915,-0.0003828889
93.59914,-0.0003826771
93.69914,-0.0003823352
93.79914,-0.0003819811
93.89914,-0.0003817843
93.99914,-0.0003814829
94.09914,-0.0003811571
94.19913,-0.0003809066
94.29913,-0.0003805902
94.39913,-0.0003802775
94.49913,-0.0003800684
94.59913,-0.0003797822
94.69913,-0.00037943
94.79913,-0.0003792312
94.89912,-0.0003788734
94.99912,-0.0003785834
95.09912,-0.0003783131
95.19912,-0.0003780306
95.29912,-0.0003778092
95.39912,-0.0003776021
95.49911,-0.000377183
95.59911,-0.0003768411
95.69911,-0.0003766095
95.79911,-0.0003762911
95.89911,-0.0003759776
95.99911,-0.0003757516
96.09911,-0.0003754549
96.1991,-0.0003751168
96.2991,-0.0003749568
96.3991,-0.0003746422
96.4991,-0.0003743522
96.5991,-0.0003740395
96.6991,-0.0003737701
96.7991,-0.0003734481
96.89909,-0.0003731844
96.99909,-0.0003729113
97.09909,-0.0003726353
97.19909,-0.0003723632
97.29909,-0.0003721334
97.39909,-0.0003718613
97.49908,-0.0003716202
97.59908,-0.0003712953
97.69908,-0.0003709713
97.79908,-0.0003706652
97.89908,-0.000370411
97.99908,-0.0003701529
98.09908,-0.0003698789
98.19907,-0.0003695842
98.29907,-0.0003693092
98.39907,-0.0003690926
98.49907,-0.0003687856
98.59907,-0.0003685398
98.69907,-0.0003682205
98.79906,-0.0003679389
98.89906,-0.0003676771
98.99906,-0.0003674285
99.09906,-0.0003671262
99.19906,-0.0003668663
99.29906,-0.0003665734
99.39906,-0.0003662909
99.49905,-0.0003659679
99.59905,-0.0003657918
99.69905,-0.0003654302
99.79905,-0.000365175
99.89905,-0.0003649254
99.99905,-0.0003646419
100.099,-0.0003643792
100.199,-0.0003641278
100.299,-0.0003638433
100.399,-0.0003635721
100.499,-0.000363332
100.599,-0.0003630438
100.699,-0.0003627632
100.799,-0.0003624854
100.899,-0.0003621963
100.999,-0.0003619429
101.099,-0.0003616952
101.199,-0.0003614457
101.299,-0.000361134
101.399,-0.0003608957
101.499,-0.0003606226
101.599,-0.0003603458
101.699,-0.0003600661
101.799,-0.0003597845
101.899,-0.0003595227
101.999,-0.0003592477
102.099,-0.000358968
102.199,-0.0003587834
102.299,-0.0003584812
102.399,-0.0003582325
102.499,-0.0003579208
102.599,-0.0003576976
102.699,-0.0003574113
102.799,-0.0003571684
102.899,-0.000356932
102.999,-0.0003566363
103.099,-0.0003563613
103.199,-0.0003560515
103.299,-0.0003558019
103.399,-0.0003556032
103.499,-0.0003552689
103.599,-0.0003550128
103.699,-0.0003547924
103.799,-0.0003544835
103.899,-0.000354232
103.999,-0.0003539938
104.099,-0.0003536906
104.199,-0.0003534307
104.299,-0.0003532103
104.399,-0.0003529231
104.499,-0.0003526763
104.599,-0.0003524286
104.699,-0.0003521254
104.799,-0.0003518692
104.899,-0.0003516056
104.999,-0.0003513249
105.099,-0.0003511045
105.199,-0.0003508023
105.299,-0.0003505273
105.399,-0.00035037
105.499,-0.0003500978
105.599,-0.0003498125
105.699,-0.0003495422
105.799,-0.0003493021
105.899,-0.0003490083
105.999,-0.0003487747
106.099,-0.0003485138
106.199,-0.0003482464
106.299,-0.0003480213
106.3989,-0.0003477718
106.4989,-0.0003474497
106.5989,-0.0003472613
106.6989,-0.0003470033
106.7989,-0.0003467538
106.8989,-0.0003465051
106.9989,-0.0003462161
107.0989,-0.0003459429
107.1989,-0.0003457226
107.2989,-0.0003454937
107.3989,-0.0003452545
107.4989,-0.0003449908
107.5989,-0.0003447008
107.6989,-0.0003445153
107.7989,-0.0003442789
107.8989,-0.0003440274
107.9989,-0.0003437534
108.0989,-0.0003435057
108.1989,-0.0003432505
108.2989,-0.0003429708
108.3989,-0.0003427514
108.4989,-0.000342467
108.5989,-0.0003422513
108.6989,-0.0003420338
108.7989,-0.0003418031
108.8989,-0.0003415187
108.9989,-0.0003412465
109.0989,-0.0003410412
109.1989,-0.000340737
109.2989,-0.0003404922
109.3989,-0.0003402275
109.4989,-0.0003399921
109.5989,-0.000339752
109.6989,-0.0003396493
109.7989,-0.0003392952
109.8989,-0.0003390005
109.9989,-0.0003388206
110.0989,-0.0003385315
110.1989,-0.0003382396
110.2989,-0.0003380183
110.3989,-0.0003377564
110.4989,-0.0003375267
110.5989,-0.0003374664
110.6989,-0.0003372018
110.7989,-0.0003369164
110.8989,-0.0003366913
110.9989,-0.0003363806
111.0989,-0.0003361367
111.1989,-0.000335937
111.2989,-0.0003356696
111.3989,-0.0003354266
111.4989,-0.000335226
111.5989,-0.0003349689
111.6989,-0.0003347278
111.7989,-0.0003344839
111.8989,-0.0003342061
111.9989,-0.0003339603
112.0989,-0.0003338087
112.1989,-0.0003335196
112.2989,-0.0003332389
112.3989,-0.0003330196
112.4989,-0.0003327361
112.5989,-0.0003324941
112.6989,-0.000332285
112.7989,-0.0003320062
112.8988,-0.0003317774
112.9988,-0.0003315297
113.0988,-0.000331283
113.1988,-0.000331072
113.2988,-0.0003307858
113.3988,-0.0003305277
113.4988,-0.0003303055
113.5988,-0.0003300832
113.6988,-0.0003298516
113.7988,-0.0003296227
113.8988,-0.0003293487
113.9988,-0.0003290906
114.0988,-0.0003289795
114.1988,-0.0003286697
114.2988,-0.0003283617
114.3988,-0.0003281593
114.4988,-0.0003279229
114.5988,-0.0003276686
114.6988,-0.0003274285
114.7988,-0.0003271686
114.8988,-0.0003268615
114.9988,-0.0003266299
115.0988,-0.0003265206
115.1988,-0.0003262099
115.2988,-0.0003260197
115.3988,-0.0003257889
115.4988,-0.0003254753
115.5988,-0.0003252738
115.6988,-0.0003250384
115.7988,-0.0003248114
115.8988,-0.0003245458
115.9988,-0.000324301
116.0988,-0.0003240656
116.1988,-0.000323768
116.2988,-0.000323558
116.3988,-0.0003234186
116.4988,-0.0003231671
116.5988,-0.0003228432
116.6988,-0.000322652
116.7988,-0.0003223902
116.8988,-0.0003221199
116.9988,-0.0003218845
117.0988,-0.0003216613
117.1988,-0.0003214372
117.2988,-0.0003212055
117.3988,-0.0003210275
117.4988,-0.0003207064
117.5988,-0.0003205359
117.6988,-0.0003203147
117.7988,-0.0003200613
117.8988,-0.0003198231
117.9988,-0.0003196018
118.0988,-0.0003193221
118.1988,-0.0003191196
118.2988,-0.0003189077
118.3988,-0.00031866
118.4988,-0.0003184161
118.5988,-0.0003182071
118.6988,-0.0003179387
118.7988,-0.0003177597
118.8988,-0.000317497
118.9988,-0.0003172616
119.0988,-0.0003170939
119.1988,-0.0003168378
119.2988,-0.0003166843
119.3988,-0.0003164309
119.4987,-0.0003161032
119.5987,-0.0003158734
119.6987,-0.0003156898
119.7987,-0.0003154383
119.8987,-0.000315169
119.9987,-0.000314976
120.0987,-0.0003147358
120.1987,-0.0003145098
120.2987,-0.0003143837
120.3987,-0.0003140898
120.4987,-0.0003138308
120.5987,-0.0003136246
120.6987,-0.000313375
120.7987,-0.0003131245
120.8987,-0.0003129343
120.9987,-0.0003127149
121.0987,-0.0003124276
121.1987,-0.0003122214
121.2987,-0.0003120058
121.3987,-0.0003117722
121.4987,-0.0003116093
121.5987,-0.0003113446
121.6987,-0.0003110988
121.7987,-0.0003108606
121.8987,-0.0003106534
121.9987,-0.000310433
122.0987,-0.000310176
122.1987,-0.0003099471
122.2987,-0.0003097446
122.3987,-0.000309546
122.4987,-0.0003092992
122.5987,-0.000309076
122.6987,-0.0003088858
122.7987,-0.0003086315
122.8987,-0.000308447
122.9987,-0.000308188
123.0987,-0.0003079789
123.1987,-0.0003077953
123.2987,-0.0003076116
123.3987,-0.0003072867
123.4987,-0.0003071323
123.5987,-0.0003070278
123.6987,-0.0003067688
123.7987,-0.0003065079
123.8987,-0.0003062386
123.9987,-0.0003060163
124.0987,-0.0003058205
124.1987,-0.0003056368
124.2987,-0.0003053496
124.3987,-0.0003051857
124.4987,-0.0003050614
124.5987,-0.00030489
124.6987,-0.0003045868
124.7987,-0.0003043259
124.8987,-0.0003041338
124.9987,-0.0003039153
125.0987,-0.0003037402
125.1987,-0.0003034981
125.2987,-0.0003032674
125.3987,-0.0003030781
125.4987,-0.0003028352
125.5987,-0.0003025545
125.6987,-0.0003023323
125.7987,-0.0003021421
125.8987,-0.0003019754
125.9986,-0.0003017277
126.0986,-0.0003015083
126.1986,-0.0003013039
126.2986,-0.0003011259
126.3986,-0.000300915
126.4986,-0.0003006532
126.5986,-0.0003004206
126.6986,-0.0003002369
126.7986,-0.0003000099
126.8986,-0.0002997576
126.9986,-0.0002995363
127.0986,-0.0002993178
127.1986,-0.0002990701
127.2986,-0.0002989279
127.3986,-0.0002986991
127.4986,-0.0002984316
127.5986,-0.0002982461
127.6986,-0.0002980577
127.7986,-0.0002977687
127.8986,-0.0002976057
127.9986,-0.0002973891
128.0986,-0.0002971
128.1986,-0.0002969296
128.2986,-0.0002967582
128.3986,-0.0002964775
128.4986,-0.0002962948
128.5986,-0.0002961037
128.6987,-0.000295889
128.7987,-0.0002956988
128.8987,-0.0002954878
128.9987,-0.0002952683
129.0987,-0.0002950668
129.1987,-0.0002949209
129.2987,-0.0002945941
129.3987,-0.0002944679
129.4987,-0.0002943144
129.5987,-0.0002940262
129.6987,-0.0002938068
129.7987,-0.0002936194
129.8987,-0.0002933774
129.9987,-0.0002932728
130.0987,-0.0002930063
130.1987,-0.0002927483
130.2988,-0.000292591
130.3988,-0.0002923952
130.4988,-0.0002921522
130.5988,-0.0002919553
130.6988,-0.0002917557
130.7988,-0.0002915607
130.8988,-0.0002913658
130.9988,-0.0002911464
131.0988,-0.000290879
131.1988,-0.0002906765
131.2988,-0.0002904985
131.3988,-0.0002902602
131.4988,-0.0002900691
131.5988,-0.0002898817
131.6988,-0.0002896443
131.7988,-0.0002894607
131.8988,-0.0002893025
131.9989,-0.0002890925
132.0989,-0.0002888816
132.1989,-0.0002887139
132.2989,-0.0002884813
132.3989,-0.0002881856
132.4989,-0.0002879935
132.5989,-0.00028784
132.6989,-0.000287614
132.7989,-0.0002873663
132.8989,-0.0002871742
132.9989,-0.0002869906
133.0989,-0.0002867919
133.1989,-0.0002866195
133.2989,-0.0002863812
133.3989,-0.0002861581
133.4989,-0.0002859377
133.599,-0.0002857804
133.699,-0.0002855638
133.799,-0.0002853811
133.899,-0.0002851259
133.999,-0.0002849602
134.099,-0.0002847794
134.199,-0.0002845543
134.299,-0.0002843914
134.399,-0.0002842087
134.499,-0.0002839977
134.599,-0.0002838084
134.699,-0.0002836248
134.799,-0.0002834073
134.899,-0.0002832311
134.999,-0.0002830419
135.099,-0.0002828008
135.1991,-0.0002827179
135.2991,-0.0002825022
135.3991,-0.0002822188
135.4991,-0.000282021
135.5991,-0.0002818054
135.6991,-0.0002815926
135.7991,-0.0002813995
135.8991,-0.0002812196
135.9991,-0.0002809832
136.0991,-0.0002808326
136.1991,-0.0002806112
136.2991,-0.0002804088
136.3991,-0.0002802195
136.4991,-0.000280034
136.5991,-0.0002798522
136.6991,-0.0002796497
136.7991,-0.0002794275
136.8992,-0.0002792034
136.9992,-0.0002790433
137.0992,-0.0002788756
137.1992,-0.0002785988
137.2992,-0.0002784302
137.3992,-0.0002782287
137.4992,-0.0002780856
137.5992,-0.0002779226
137.6992,-0.0002776684
137.7992,-0.0002774743
137.8992,-0.0002772963
137.9992,-0.0002770958
138.0992,-0.0002769018
138.1992,-0.0002767351
138.2992,-0.0002765166
138.3992,-0.0002762896
138.4993,-0.0002761408
138.5993,-0.0002759215
138.6993,-0.0002757614
138.7993,-0.0002755767
138.8993,-0.0002753319
138.9993,-0.0002751304
139.0993,-0.0002749562
139.1993,-0.0002747348
139.2993,-0.0002745625
139.3993,-0.0002743647
139.4993,-0.0002741491
139.5993,-0.0002739645
139.6993,-0.0002737658
139.7993,-0.0002735417
139.8993,-0.0002734136
139.9993,-0.0002732252
140.0993,-0.0002730218
140.1994,-0.0002728222
140.2994,-0.000272598
140.3994,-0.0002724342
140.4994,-0.00027226
140.5994,-0.0002720321
140.6994,-0.0002718409
140.7994,-0.0002716384
140.8994,-0.0002714614
140.9994,-0.0002712636
141.0994,-0.0002710602
141.1994,-0.0002708361
141.2994,-0.0002706741
141.3994,-0.0002704971
141.4994,-0.0002703332
141.5994,-0.0002701364
141.6994,-0.0002699273
141.7995,-0.0002697587
141.8995,-0.0002695836
141.9995,-0.0002693453
142.0995,-0.0002691598
142.1995,-0.0002689639
142.2995,-0.0002687906
142.3995,-0.0002685947
142.4995,-0.0002684045
142.5995,-0.0002681813
142.6995,-0.0002679619
142.7995,-0.0002678112
142.8995,-0.000267605
142.9995,-0.0002674317
143.0995,-0.0002672763
143.1995,-0.0002670654
143.2995,-0.0002668582
143.3996,-0.0002667066
143.4996,-0.0002665022
143.5996,-0.0002662894
143.6996,-0.0002661726
143.7996,-0.0002659786
143.8996,-0.0002657535
143.9996,-0.0002655888
144.0996,-0.000265391
144.1996,-0.0002651725
144.2996,-0.0002650228
144.3996,-0.0002648674
144.4996,-0.0002646178
144.5996,-0.0002644643
144.6996,-0.0002642731
144.7996,-0.0002640895
144.8996,-0.0002639228
144.9996,-0.0002637467
145.0997,-0.00026358
145.1997,-0.0002634614
145.2997,-0.0002632354
145.3997,-0.0002630178
145.4997,-0.0002628577
145.5997,-0.0002626581
145.6997,-0.000262465
145.7997,-0.0002622578
145.8997,-0.0002621044
145.9997,-0.000261884
146.0997,-0.0002617126
146.1997,-0.0002615214
146.2997,-0.0002613359
146.3997,-0.0002612022
146.4997,-0.000260994
146.5997,-0.0002608151
146.6998,-0.000260672
146.7998,-0.0002604667
146.8998,-0.0002602369
146.9998,-0.00026009
147.0998,-0.0002599308
147.1998,-0.000259718
147.2998,-0.0002595363
147.3998,-0.0002593347
147.4998,-0.0002591464
147.5998,-0.0002590051
147.6998,-0.0002587631
147.7998,-0.0002585823
147.8998,-0.000258458
147.9998,-0.0002582649
148.0998,-0.0002580512
148.1998,-0.0002578807
148.2999,-0.0002576989
148.3999,-0.0002574917
148.4999,-0.000257375
148.5999,-0.0002571329
148.6999,-0.0002569512
148.7999,-0.0002567949
148.8999,-0.0002566009
148.9999,-0.0002564125
149.0999,-0.0002562477
149.1999,-0.0002560321
149.2999,-0.0002558635
149.3999,-0.0002557269
149.4999,-0.0002555423
149.5999,-0.0002553352
149.6999,-0.000255192
149.7999,-0.0002550009
149.8999,-0.0002548436
150,-0.0002546421
150.1,-0.0002544292
150.2,-0.0002542663
150.3,-0.0002541571
150.4,-0.000253965
150.5,-0.000253755
150.6,-0.0002535628
150.7,-0.0002533867
150.8,-0.0002532549
150.9,-0.000253044
151,-0.0002528612
151.1,-0.0002526842
151.2,-0.0002525392
151.3,-0.0002524215
151.4,-0.000252252
151.5,-0.0002521163
151.6001,-0.0002518828
151.7001,-0.0002516728
151.8001,-0.0002515334
151.9001,-0.0002513149
152.0001,-0.0002511209
152.1001,-0.0002509571
152.2001,-0.0002507763
152.3001,-0.000250586
152.4001,-0.0002504523
152.5001,-0.0002502734
152.6001,-0.0002500605
152.7001,-0.0002499042
152.8001,-0.0002497394
152.9001,-0.000249569
153.0001,-0.00024939
153.1001,-0.0002492554
153.2001,-0.0002490557
153.3002,-0.0002488448
153.4002,-0.0002486922
153.5002,-0.0002484643
153.6002,-0.0002483777
153.7002,-0.0002481469
153.8002,-0.0002479953
153.9002,-0.0002478503
154.0002,-0.0002476328
154.1002,-0.0002474633
154.2002,-0.0002473163
154.3002,-0.0002471327
154.4002,-0.0002469877
154.5002,-0.0002468078
154.6002,-0.0002465978
154.7002,-0.0002464094
154.8002,-0.0002462456
154.9003,-0.0002460478
155.0003,-0.0002458689
155.1003,-0.0002457098
155.2003,-0.0002455148
155.3003,-0.0002453387
155.4003,-0.0002451965
155.5003,-0.0002450006
155.6003,-0.000244832
155.7003,-0.0002446719
155.8003,-0.0002445194
155.9003,-0.0002443358
156.0003,-0.0002441408
156.1003,-0.0002439534
156.2003,-0.0002437999
156.3003,-0.0002436266
156.4003,-0.0002434571
156.5004,-0.0002432594
156.6004,-0.0002430983
156.7004,-0.0002429316
156.8004,-0.0002427508
156.9004,-0.0002425907
157.0004,-0.0002423958
157.1004,-0.0002422536
157.2004,-0.0002421029
157.3004,-0.0002419155
157.4004,-0.0002417517
157.5004,-0.0002416047
157.6004,-0.0002414296
157.7004,-0.0002412591
157.8004,-0.0002410783
157.9004,-0.0002409625
158.0004,-0.0002407553
158.1004,-0.000240583
158.2005,-0.0002404097
158.3005,-0.0002402392
158.4005,-0.0002400471
158.5005,-0.0002398955
158.6005,-0.0002397448
158.7005,-0.0002395828
158.8005,-0.0002394265
158.9005,-0.0002392184
159.0005,-0.0002390639
159.1005,-0.0002389538
159.2005,-0.000238757
159.3005,-0.0002385564
159.4005,-0.000238417
159.5005,-0.0002382428
159.6005,-0.0002380676
159.7005,-0.0002379762
159.8006,-0.0002377653
159.9006,-0.0002376222
160.0006,-0.0002374592
160.1006,-0.0002372379
160.2006,-0.0002371193
160.3006,-0.0002369328
160.4006,-0.0002367577
160.5006,-0.0002365749
160.6006,-0.000236428
160.7006,-0.0002362868
160.8006,-0.0002361022
160.9006,-0.0002359299
161.0006,-0.0002357895
161.1006,-0.0002356539
161.2006,-0.0002354533
161.3006,-0.0002352735
161.4007,-0.0002351614
161.5007,-0.0002349825
161.6007,-0.0002348205
161.7007,-0.0002346811
161.8007,-0.0002344975
161.9007,-0.000234312
162.0007,-0.0002341613
162.1007,-0.0002339682
162.2007,-0.0002338204
162.3007,-0.0002336735
162.4007,-0.0002334851
162.5007,-0.0002333429
162.6007,-0.0002331725
162.7007,-0.0002329926
162.8007,-0.0002328975
162.9007,-0.0002327082
163.0007,-0.00023255
163.1008,-0.000232372
163.2008,-0.0002322402
163.3008,-0.0002320678
163.4008,-0.0002319341
163.5008,-0.0002317401
163.6008,-0.0002315875
163.7008,-0.0002314095
163.8008,-0.0002312372
163.9008,-0.0002310799
164.0008,-0.0002309378
164.1008,-0.000230789
164.2008,-0.0002306289
164.3008,-0.0002304782
164.4008,-0.0002302917
164.5008,-0.0002301514
164.6008,-0.0002300064
164.7009,-0.0002298293
164.8009,-0.0002296513
164.9009,-0.0002294912
165.0009,-0.0002293434
165.1009,-0.0002291814
165.2009,-0.0002289959
165.3009,-0.000228848
165.4009,-0.0002287219
165.5009,-0.0002286088
165.6009,-0.0002283988
165.7009,-0.0002282529
165.8009,-0.0002280928
165.9009,-0.0002279167
166.0009,-0.0002277716
166.1009,-0.0002276323
166.2009,-0.0002274835
166.3009,-0.0002272744
166.401,-0.0002271718
166.501,-0.0002269966
166.601,-0.0002268676
166.701,-0.0002266924
166.801,-0.0002265483
166.901,-0.0002263882
167.001,-0.0002262357
167.101,-0.0002260925
167.201,-0.0002259221
167.301,-0.0002257714
167.401,-0.0002256349
167.501,-0.0002254653
167.601,-0.0002252685
167.701,-0.0002251405
167.801,-0.0002249945
167.901,-0.0002248344
168.0011,-0.0002246875
168.1011,-0.0002245095
168.2011,-0.0002243607
168.3011,-0.0002242129
168.4011,-0.0002240358
168.5011,-0.0002238654
168.6011,-0.0002237326
168.7011,-0.0002235932
168.8011,-0.0002234274
168.9011,-0.0002232881
169.0011,-0.0002231195
169.1011,-0.0002229726
169.2011,-0.0002228502
169.3011,-0.0002226533
169.4011,-0.0002224951
169.5011,-0.0002223605
169.6012,-0.0002222004
169.7012,-0.0002220073
169.8012,-0.0002219056
169.9012,-0.0002217502
170.0012,-0.0002215703
170.1012,-0.0002214489
170.2012,-0.0002212681
170.3012,-0.0002210872
170.4012,-0.0002209714
170.5012,-0.0002208019
170.6012,-0.0002206484
170.7012,-0.000220542
170.8012,-0.0002203668
170.9012,-0.0002202058
171.0012,-0.0002200909
171.1012,-0.0002199327
171.2012,-0.0002197613
171.3013,-0.0002196002
171.4013,-0.0002194401
171.5013,-0.0002192603
171.6013,-0.0002191492
171.7013,-0.0002189768
171.8013,-0.0002188243
171.9013,-0.0002186679
172.0013,-0.0002185088
172.1013,-0.0002183185
172.2013,-0.0002182197
172.3013,-0.0002180652
172.4013,-0.0002179127
172.5013,-0.0002177545
172.6013,-0.0002176339
172.7013,-0.000217471
172.8013,-0.0002173759
172.9014,-0.0002171828
173.0014,-0.0002170039
173.1014,-0.0002168777
173.2014,-0.000216743
173.3014,-0.0002165669
173.4014,-0.0002164172
173.5014,-0.0002162514
173.6014,-0.0002161328
173.7014,-0.0002159934
173.8014,-0.0002158192
173.9014,-0.0002156412
174.0014,-0.0002155263
174.1014,-0.0002153803
174.2014,-0.00021524
174.3014,-0.0002151025
174.4014,-0.0002149575
174.5014,-0.0002148059
174.6015,-0.0002146929
174.7015,-0.0002145102
174.8015,-0.0002144104
174.9015,-0.0002142587
175.0015,-0.0002141279
175.1015,-0.0002139838
175.2015,-0.0002138434
175.3015,-0.0002136664
175.4015,-0.0002135157
175.5015,-0.0002133698
175.6015,-0.0002132209
175.7015,-0.0002130467
175.8015,-0.0002128838
175.9015,-0.0002127482
176.0015,-0.0002125938
176.1015,-0.0002124412
176.2016,-0.0002123395
176.3016,-0.0002121945
176.4016,-0.0002120645
176.5016,-0.00021196
176.6016,-0.0002118131
176.7016,-0.0002115965
176.8016,-0.0002114505
176.9016,-0.0002112989
177.0016,-0.0002111463
177.1016,-0.000211022
177.2016,-0.0002108817
177.3016,-0.000210731
177.4016,-0.0002105756
177.5016,-0.0002104221
177.6016,-0.0002103053
177.7016,-0.0002102253
177.8017,-0.0002100539
177.9017,-0.0002098486
178.0017,-0.0002097526
178.1017,-0.0002095878
178.2017,-0.000209422
178.3017,-0.0002092902
178.4017,-0.0002091338
178.5017,-0.0002089803
178.6017,-0.0002088523
178.7017,-0.0002086856
178.8017,-0.0002085688
178.9017,-0.0002084435
179.0017,-0.000208307
179.1017,-0.0002081497
179.2017,-0.0002079689
179.3017,-0.0002078437
179.4017,-0.0002076657
179.5018,-0.0002075451
179.6018,-0.0002074284
179.7018,-0.0002072447
179.8018,-0.0002071025
179.9018,-0.0002069613
180.0018,-0.0002068558
180.1018,-0.0002066957
180.2018,-0.0002065497
180.3018,-0.0002064273
180.4018,-0.0002062606
180.5018,-0.0002061401
180.6018,-0.0002059903
180.7018,-0.0002058284
180.8018,-0.0002056749
180.9018,-0.0002055468
181.0018,-0.0002054215
181.1019,-0.0002052793
181.2019,-0.0002051089
181.3019,-0.0002049676
181.4019,-0.0002048508
181.5019,-0.0002047011
181.6019,-0.0002045363
181.7019,-0.0002044073
181.8019,-0.0002042754
181.9019,-0.0002041267
182.0019,-0.0002039854
182.1019,-0.0002038564
182.2019,-0.0002037076
182.3019,-0.0002035691
182.4019,-0.0002034354
182.5019,-0.0002032791
182.6019,-0.0002031388
182.702,-0.0002029966
182.802,-0.0002028779
182.902,-0.0002027319
183.002,-0.0002026039
183.102,-0.0002024654
183.202,-0.0002023204
183.302,-0.0002021631
183.402,-0.0002020247
183.502,-0.0002019127
183.602,-0.0002017573
183.702,-0.000201633
183.802,-0.0002015049
183.902,-0.000201358
184.002,-0.0002012073
184.102,-0.0002010924
184.202,-0.0002009455
184.302,-0.0002008249
184.4021,-0.0002006856
184.5021,-0.0002005292
184.6021,-0.0002003955
184.7021,-0.0002002656
184.8021,-0.0002001271
184.9021,-0.0001999774
185.0021,-0.0001998578
185.1021,-0.0001996779
185.2021,-0.0001995395
185.3021,-0.0001994029
185.4021,-0.0001992494
185.5021,-0.0001991223
185.6021,-0.0001989914
185.7021,-0.0001988567
185.8021,-0.0001987296
185.9021,-0.0001986834
186.0022,-0.0001985573
186.1022,-0.0001983981
186.2022,-0.0001982248
186.3022,-0.0001980902
186.4022,-0.0001979395
186.5022,-0.000197818
186.6022,-0.0001976165
186.7022,-0.0001975647
186.8022,-0.0001975006
186.9022,-0.0001974046
187.0022,-0.000197203
187.1022,-0.0001970401
187.2022,-0.0001968885
187.3022,-0.0001967425
187.4022,-0.00019659
187.5022,-0.0001964497
187.6022,-0.0001962915
187.7023,-0.0001961643
187.8023,-0.0001960457
187.9023,-0.0001959364
188.0023,-0.0001957904
188.1023,-0.0001956567
188.2023,-0.0001955334
188.3023,-0.0001954025
188.4023,-0.0001952687
188.5023,-0.0001951331
188.6023,-0.0001950003
188.7023,-0.0001948224
188.8023,-0.0001946952
188.9023,-0.0001946039
189.0023,-0.0001944372
189.1023,-0.0001942771
189.2023,-0.0001941405
189.3024,-0.000194003
189.4024,-0.0001938816
189.5024,-0.0001937751
189.6024,-0.0001936075
189.7024,-0.0001934728
189.8024,-0.0001933928
189.9024,-0.0001932449
190.0024,-0.0001930999
190.1024,-0.0001929719
190.2024,-0.0001928221
190.3024,-0.000192727
190.4024,-0.0001925952
190.5024,-0.0001924473
190.6024,-0.0001923352
190.7024,-0.0001922138
190.8024,-0.0001920894
190.9025,-0.0001919604
191.0025,-0.0001918079
191.1025,-0.0001916732
191.2025,-0.0001915084
191.3025,-0.0001913653
191.4025,-0.0001912353
191.5025,-0.0001910865
191.6025,-0.0001909773
191.7025,-0.0001908727
191.8025,-0.0001907541
191.9025,-0.0001905836
192.0025,-0.0001904612
192.1025,-0.0001903341
192.2025,-0.000190206
192.3025,-0.0001900826
192.4025,-0.0001899197
192.5025,-0.0001897822
192.6026,-0.0001896626
192.7026,-0.0001895298
192.8026,-0.0001894131
192.9026,-0.0001892774
193.0026,-0.0001891287
193.1026,-0.0001889798
193.2026,-0.0001888791
193.3026,-0.0001887689
193.4026,-0.0001886116
193.5026,-0.0001885014
193.6026,-0.0001883253
193.7026,-0.0001882217
193.8026,-0.0001881398
193.9026,-0.0001879675
194.0026,-0.0001878517
194.1026,-0.0001877952
194.2027,-0.0001876746
194.3027,-0.0001875164
194.4027,-0.0001873817
194.5027,-0.0001872471
194.6027,-0.0001871058
194.7027,-0.0001870107
194.8027,-0.0001868534
194.9027,-0.0001867263
195.0027,-0.0001866227
195.1027,-0.0001864814
195.2027,-0.000186375
195.3027,-0.0001862677
195.4027,-0.0001861085
195.5027,-0.000185988
195.6027,-0.0001858703
195.7027,-0.0001857356
195.8027,-0.0001856
195.9028,-0.0001854662
196.0028,-0.0001853448
196.1028,-0.000185228
196.2028,-0.0001851159
196.3028,-0.0001850086
196.4028,-0.0001848372
196.5028,-0.0001847279
196.6028,-0.000184597
196.7028,-0.0001844953
196.8028,-0.0001843569
196.9028,-0.0001842542
197.0028,-0.0001841215
197.1028,-0.0001839632
197.2028,-0.0001838399
197.3028,-0.0001837269
197.4028,-0.0001835837
197.5029,-0.0001834594
197.6029,-0.0001833417
197.7029,-0.0001832249
197.8029,-0.000183127
197.9029,-0.0001829706
198.0029,-0.0001828106
198.1029,-0.0001827126
198.2029,-0.0001825864
198.3029,-0.0001824424
198.4029,-0.0001823698
198.5029,-0.0001822276
198.6029,-0.0001820779
198.7029,-0.0001819837
198.8029,-0.0001818397
198.9029,-0.0001817294
199.0029,-0.0001816155
199.103,-0.0001814969
199.203,-0.0001813094
199.303,-0.0001812426
199.403,-0.0001811013
199.503,-0.0001809516
199.603,-0.0001808348
199.703,-0.0001807115
199.803,-0.0001805636
199.903,-0.0001804882
200.003,-0.0001803461
200.103,-0.000180202
200.203,-0.0001801163
200.303,-0.000179976
200.403,-0.0001798281
200.503,-0.0001797358
200.603,-0.0001795946
200.703,-0.0001794712
200.8031,-0.0001793892
200.9031,-0.0001792461
201.0031,-0.0001791133
201.1031,-0.0001789994
201.2031,-0.000178892
201.3031,-0.0001787404
201.4031,-0.0001786406
201.5031,-0.0001784918
201.6031,-0.0001783656
201.7031,-0.0001783025
201.8031,-0.0001781744
201.9031,-0.0001780134
202.0031,-0.0001778919
202.1031,-0.0001777685
202.2031,-0.0001776715
202.3031,-0.0001775387
202.4032,-0.0001774097
202.5032,-0.0001773146
202.6032,-0.0001772374
202.7032,-0.0001771225
202.8032,-0.0001769765
202.9032,-0.0001768419
203.0032,-0.0001767355
203.1032,-0.0001766074
203.2032,-0.0001764953
203.3032,-0.0001763578
203.4032,-0.0001762439
203.5032,-0.0001761309
203.6032,-0.0001760103
203.7032,-0.0001758898
203.8032,-0.0001757796
203.9032,-0.0001756317
204.0033,-0.0001754924
204.1033,-0.0001754161
204.2033,-0.0001753087
204.3033,-0.0001751694
204.4033,-0.0001750507
204.5033,-0.000174901
204.6033,-0.0001747823
204.7033,-0.0001747258
204.8033,-0.0001745582
204.9033,-0.0001744527
205.0033,-0.0001743227
205.1033,-0.0001742078
205.2033,-0.0001740835
205.3033,-0.0001739846
205.4033,-0.000173866
205.5033,-0.0001737153
205.6033,-0.0001736296
205.7034,-0.0001734865
205.8034,-0.0001733688
205.9034,-0.0001732671
206.0034,-0.0001731559
206.1034,-0.0001730128
206.2034,-0.000172912
206.3034,-0.0001728094
206.4034,-0.0001726662
206.5034,-0.0001725344
206.6034,-0.0001724355
206.7034,-0.00017233
206.8034,-0.0001722161
206.9034,-0.0001721021
207.0034,-0.0001720004
207.1034,-0.0001718695
207.2034,-0.0001717885
207.3035,-0.000171635
207.4035,-0.0001714909
207.5035,-0.0001713732
207.6035,-0.0001712649
207.7035,-0.0001711557
207.8035,-0.0001710634
207.9035,-0.0001709401
208.0035,-0.0001707903
208.1035,-0.0001706971
208.2035,-0.0001705671
208.3035,-0.0001704645
208.4035,-0.0001703307
208.5035,-0.0001702008
208.6035,-0.0001700595
208.7035,-0.0001699616
208.8035,-0.0001698156
208.9035,-0.0001696875
209.0036,-0.0001696132
209.1036,-0.0001694888
209.2036,-0.0001693617
209.3036,-0.0001692845
209.4036,-0.0001691602
209.5036,-0.0001690679
209.6036,-0.000168953
209.7036,-0.0001688315
209.8036,-0.0001686987
209.9036,-0.0001686319
210.0036,-0.0001685104
210.1036,-0.0001683729
210.2036,-0.0001682599
210.3036,-0.0001681205
210.4036,-0.0001680009
210.5036,-0.0001679387
210.6037,-0.0001678323
210.7037,-0.0001676713
210.8037,-0.0001675743
210.9037,-0.000167433
211.0037,-0.0001673002
211.1037,-0.000167208
211.2037,-0.0001670432
211.3037,-0.000166949
211.4037,-0.0001668633
211.5037,-0.0001667173
211.6037,-0.0001665808
211.7037,-0.0001664988
211.8037,-0.000166383
211.9037,-0.0001662493
212.0037,-0.0001661523
212.1037,-0.0001660346
212.2038,-0.0001658971
212.3038,-0.0001658283
212.4038,-0.0001657172
212.5038,-0.0001656042
212.6038,-0.000165495
212.7038,-0.0001653574
212.8038,-0.0001652379
212.9038,-0.0001651522
213.0038,-0.0001650109
213.1038,-0.0001649016
213.2038,-0.0001647981
213.3038,-0.0001646813
213.4038,-0.000164572
213.5038,-0.000164492
213.6038,-0.0001643705
213.7038,-0.0001642717
213.8038,-0.0001641615
213.9039,-0.0001640259
214.0039,-0.0001639128
214.1039,-0.0001638243
214.2039,-0.0001637151
214.3039,-0.000163603
214.4039,-0.0001634938
214.5039,-0.0001634184
214.6039,-0.0001632998
214.7039,-0.0001631425
214.8039,-0.0001630841
214.9039,-0.0001629419
215.0039,-0.0001628374
215.1039,-0.0001627272
215.2039,-0.0001625991
215.3039,-0.000162472
215.4039,-0.000162423
215.504,-0.000162278
215.604,-0.000162132
215.704,-0.0001620369
215.804,-0.000161954
215.904,-0.0001618222
216.004,-0.0001617469
216.104,-0.0001615896
216.204,-0.0001614794
216.304,-0.000161406
216.404,-0.0001612628
216.504,-0.0001611545
216.604,-0.0001610886
216.704,-0.0001609492
216.804,-0.0001608324
216.904,-0.0001607486
217.004,-0.0001606497
217.104,-0.0001605141
217.2041,-0.0001604152
217.3041,-0.0001602824
217.4041,-0.0001601685
217.5041,-0.0001600772
217.6041,-0.0001599717
217.7041,-0.0001598719
217.8041,-0.0001597692
217.9041,-0.0001596383
218.0041,-0.0001595103
218.1041,-0.0001594283
218.2041,-0.000159304
218.3041,-0.0001592089
218.4041,-0.0001590987
218.5041,-0.000158981
218.6041,-0.0001588896
218.7041,-0.0001587804
218.8042,-0.0001586702
218.9042,-0.0001585327
219.0042,-0.0001584367
219.1042,-0.0001583576
219.2042,-0.0001582427
219.3042,-0.00015814
219.4042,-0.0001580035
219.5042,-0.0001579055
219.6042,-0.0001578208
219.7042,-0.0001577097
219.8042,-0.0001576061
219.9042,-0.0001574921
220.0042,-0.0001573885
220.1042,-0.000157301
220.2042,-0.0001571785
220.3042,-0.0001570702
220.4043,-0.0001569365
220.5043,-0.0001568414
220.6043,-0.0001567707
220.7043,-0.0001566446
220.8043,-0.0001565325
220.9043,-0.0001564242
221.0043,-0.0001563093
221.1043,-0.0001562189
221.2043,-0.0001560692
221.3043,-0.000155974
221.4043,-0.0001558855
221.5043,-0.0001557706
221.6043,-0.0001556548
221.7043,-0.0001555644
221.8043,-0.0001554457
221.9043,-0.0001553544
222.0043,-0.0001552734
222.1044,-0.0001551482
222.2044,-0.000155021
222.3044,-0.0001549457
222.4044,-0.0001548769
222.5044,-0.0001547357
222.6044,-0.0001546443
222.7044,-0.0001545492
222.8044,-0.0001544532
222.9044,-0.0001543524
223.0044,-0.0001542309
223.1044,-0.0001540943
223.2044,-0.0001540275
223.3044,-0.0001539098
223.4044,-0.0001537817
223.5044,-0.0001536649
223.6044,-0.000153599
223.7045,-0.0001534907
223.8045,-0.000153373
223.9045,-0.0001532769
224.0045,-0.000153163
224.1045,-0.0001530603
224.2045,-0.0001529973
224.3045,-0.0001528494
224.4045,-0.0001527703
224.5045,-0.0001526789
224.6045,-0.0001525367
224.7045,-0.0001524765
224.8045,-0.0001524077
224.9045,-0.0001522985
225.0045,-0.0001521525
225.1045,-0.0001520724
225.2045,-0.0001519632
225.3046,-0.0001518445
225.4046,-0.00015174
225.5046,-0.0001516167
225.6046,-0.0001515498
225.7046,-0.0001514566
225.8046,-0.0001513247
225.9046,-0.0001512192
226.0046,-0.0001511288
226.1046,-0.0001510074
226.2046,-0.0001509132
226.3046,-0.0001508096
226.4046,-0.0001506665
226.5046,-0.0001505553
226.6046,-0.0001504951
226.7046,-0.0001503773
226.8046,-0.0001502888
226.9046,-0.0001501786
227.0047,-0.0001500732
227.1047,-0.0001499959
227.2047,-0.0001499036
227.3047,-0.0001498104
227.4047,-0.0001496946
227.5047,-0.0001496051
227.6047,-0.0001495251
227.7047,-0.0001494111
227.8047,-0.0001493198
227.9047,-0.0001492002
228.0047,-0.0001490881
228.1047,-0.0001490231
228.2047,-0.0001489045
228.3047,-0.0001488235
228.4047,-0.0001487368
228.5047,-0.0001486059
228.6048,-0.0001485024
228.7048,-0.0001484496
228.8048,-0.0001483234
228.9048,-0.0001482217
229.0048,-0.0001481426
229.1048,-0.0001480061
229.2048,-0.0001479053
229.3048,-0.0001478432
229.4048,-0.0001477264
229.5048,-0.0001476463
229.6048,-0.0001475597
229.7048,-0.0001474231
229.8048,-0.0001473252
229.9048,-0.0001472423
230.0048,-0.0001471359
230.1048,-0.0001470483
230.2048,-0.0001469457
230.3049,-0.0001468308
230.4049,-0.0001467583
230.5049,-0.0001467065
230.6049,-0.0001466123
230.7049,-0.0001464984
230.8049,-0.0001463806
230.9049,-0.0001462949
231.0049,-0.0001461716
231.1049,-0.0001460736
231.2049,-0.000145955
231.3049,-0.0001458467
231.4049,-0.0001457836
231.5049,-0.0001456969
231.6049,-0.0001455849
231.7049,-0.0001454624
231.8049,-0.0001453767
231.905,-0.0001452779
232.005,-0.000145211
232.105,-0.0001451093
232.205,-0.0001449727
232.305,-0.0001449078
232.405,-0.0001448277
232.505,-0.0001447175
232.605,-0.0001446422
232.705,-0.0001445433
232.805,-0.0001444539
232.905,-0.000144339
233.005,-0.0001442363
233.105,-0.000144144
233.205,-0.0001440395
233.305,-0.0001439632
233.405,-0.0001438323
233.5051,-0.0001437617
233.6051,-0.0001436948
233.7051,-0.0001436054
233.8051,-0.0001434895
233.9051,-0.0001434462
234.0051,-0.0001433322
234.1051,-0.0001431835
234.2051,-0.0001431411
234.3051,-0.0001430073
234.4051,-0.0001428774
234.5051,-0.0001427917
234.6051,-0.0001426909
234.7051,-0.0001426043
234.8051,-0.0001425261
234.9051,-0.0001424056
235.0051,-0.0001422982
235.1051,-0.000142222
235.2052,-0.0001421221
235.3052,-0.0001420515
235.4052,-0.0001419573
235.5052,-0.0001418622
235.6052,-0.0001417756
235.7052,-0.0001416984
235.8052,-0.000141591
235.9052,-0.0001414959
236.0052,-0.0001414092
236.1052,-0.0001413216
236.2052,-0.0001412237
236.3052,-0.0001411342
236.4052,-0.0001410212
236.5052,-0.0001409318
236.6052,-0.0001408771
236.7052,-0.0001407425
236.8053,-0.0001406502
236.9053,-0.0001405946
237.0053,-0.0001405005
237.1053,-0.0001403922
237.2053,-0.0001403206
237.3053,-0.0001401793
237.4053,-0.000140087
237.5053,-0.0001400136
237.6053,-0.0001399034
237.7053,-0.0001397866
237.8053,-0.0001397226
237.9053,-0.0001396124
238.0053,-0.0001395239
238.1053,-0.0001394467
238.2053,-0.0001393628
238.3053,-0.0001392517
238.4053,-0.0001391764
238.5054,-0.0001390841
238.6054,-0.0001389786
238.7054,-0.0001389136
238.8054,-0.0001388119
238.9054,-0.0001387093
239.0054,-0.0001386283
239.1054,-0.0001385492
239.2054,-0.0001384729
239.3054,-0.0001383665
239.4054,-0.0001382488
239.5054,-0.0001381687
239.6054,-0.0001381038
239.7054,-0.0001380039
239.8054,-0.0001378843
239.9054,-0.0001378212
240.0054,-0.0001377242
240.1055,-0.0001375981
240.2055,-0.0001375189
240.3055,-0.0001374304
240.4055,-0.0001373315
240.5055,-0.0001372402
240.6055,-0.0001371545
240.7055,-0.0001370396
240.8055,-0.0001369944
240.9055,-0.0001368927
241.0055,-0.0001367806
241.1055,-0.00013671
241.2055,-0.0001366186
241.3055,-0.0001365452
241.4055,-0.000136484
241.5055,-0.0001363531
241.6055,-0.0001362269
241.7056,-0.0001361497
241.8056,-0.0001360715
241.9056,-0.0001359773
242.0056,-0.000135901
242.1056,-0.0001357749
242.2056,-0.0001356958
242.3056,-0.000135643
242.4056,-0.0001355225
242.5056,-0.0001354274
242.6056,-0.0001353624
242.7056,-0.0001352607
242.8056,-0.000135174
242.9056,-0.0001351025
243.0056,-0.0001349659
243.1056,-0.0001348614
243.2056,-0.0001348369
243.3056,-0.0001347173
243.4057,-0.0001346043
243.5057,-0.0001345384
243.6057,-0.0001344498
243.7057,-0.0001343519
243.8057,-0.0001342822
243.9057,-0.0001341711
244.0057,-0.000134075
244.1057,-0.000134027
244.2057,-0.0001339083
244.3057,-0.0001338462
244.4057,-0.000133768
244.5057,-0.0001336936
244.6057,-0.0001336343
244.7057,-0.0001335222
244.8057,-0.0001334233
244.9057,-0.0001333367
245.0058,-0.0001332491
245.1058,-0.0001331625
245.2058,-0.0001330523
245.3058,-0.0001329704
245.4058,-0.0001328574
245.5058,-0.0001327604
245.6058,-0.0001327114
245.7058,-0.0001326304
245.8058,-0.0001325475
245.9058,-0.0001324185
246.0058,-0.0001323545
246.1058,-0.0001322688
246.2058,-0.0001321642
246.3058,-0.0001320965
246.4058,-0.0001320155
246.5058,-0.0001319166
246.6059,-0.0001318412
246.7059,-0.0001317311
246.8059,-0.0001316708
246.9059,-0.0001316237
247.0059,-0.0001314692
247.1059,-0.0001313864
247.2059,-0.0001313431
247.3059,-0.000131264
247.4059,-0.000131118
247.5059,-0.0001310605
247.6059,-0.0001309965
247.7059,-0.000130891
247.8059,-0.0001308336
247.9059,-0.0001307168
248.0059,-0.0001306368
248.1059,-0.0001305708
248.2059,-0.0001304475
248.306,-0.0001303778
248.406,-0.0001303222
248.506,-0.0001302233
248.606,-0.000130116
248.706,-0.0001300482
248.806,-0.0001299597
248.906,-0.0001298919
249.006,-0.0001298175
249.106,-0.0001297007
249.206,-0.0001296197
249.306,-0.0001296121
249.406,-0.0001294756
249.506,-0.0001293937
249.606,-0.000129291
249.706,-0.000129227
249.806,-0.0001291196
249.9061,-0.0001290499
250.0061,-0.0001289454
250.1061,-0.0001288399
250.2061,-0.0001287863
250.3061,-0.0001286827
250.4061,-0.0001285904
250.5061,-0.0001285245
250.6061,-0.0001284303
250.7061,-0.0001283663
250.8061,-0.0001282721
250.9061,-0.0001281892
251.0061,-0.0001280931
251.1061,-0.000128031
251.2061,-0.0001279575
251.3061,-0.0001278709
251.4061,-0.0001278153
251.5061,-0.0001277202
251.6062,-0.0001276439
251.7062,-0.0001275969
251.8062,-0.0001275253
251.9062,-0.0001274603
252.0062,-0.0001273831
252.1062,-0.0001273238
252.2062,-0.0001272211
252.3062,-0.0001271571
252.4062,-0.0001270798
252.5062,-0.0001270167
252.6062,-0.0001269122
252.7062,-0.0001268491
252.8062,-0.0001267587
252.9062,-0.0001266608
253.0062,-0.0001266052
253.1062,-0.0001265157
253.2063,-0.0001264329
253.3063,-0.0001263914
253.4063,-0.0001263123
253.5063,-0.0001262097
253.6063,-0.0001261193
253.7063,-0.0001260307
253.8063,-0.0001259357
253.9063,-0.0001258867
254.0063,-0.0001257793
254.1063,-0.0001256889
254.2063,-0.0001256173
254.3063,-0.000125542
254.4063,-0.0001254394
254.5063,-0.0001253904
254.6063,-0.000125284
254.7063,-0.0001251879
254.8064,-0.0001251361
254.9064,-0.0001250504
255.0064,-0.0001249581
255.1064,-0.0001248932
255.2064,-0.0001247933
255.3064,-0.0001246935
255.4064,-0.0001246765
255.5064,-0.0001245636
255.6064,-0.0001244675
255.7064,-0.0001244373
255.8064,-0.0001243432
255.9064,-0.0001242669
256.0064,-0.0001242104
256.1064,-0.0001240955
256.2064,-0.0001240051
256.3064,-0.0001239542
256.4064,-0.0001238723
256.5064,-0.0001237508
256.6064,-0.0001236962
256.7065,-0.000123602
256.8065,-0.0001235258
256.9065,-0.000123473
257.0065,-0.0001233572
257.1065,-0.0001232781
257.2065,-0.0001232272
257.3065,-0.0001231538
257.4065,-0.0001230671
257.5065,-0.000122989
257.6065,-0.0001228957
257.7065,-0.0001228034
257.8065,-0.0001227582
257.9065,-0.000122666
258.0065,-0.0001225708
258.1065,-0.0001225172
258.2065,-0.0001224173
258.3065,-0.0001223618
258.4066,-0.0001222798
258.5066,-0.0001221678
258.6066,-0.0001220858
258.7066,-0.0001220501
258.8066,-0.0001219352
258.9066,-0.0001218476
259.0066,-0.0001218062
259.1066,-0.0001217054
259.2066,-0.0001216112
259.3066,-0.0001215434
259.4066,-0.000121437
259.5066,-0.0001213739
259.6066,-0.0001213136
259.7066,-0.0001212194
259.8066,-0.0001211159
259.9066,-0.0001210641
260.0067,-0.0001209784
260.1067,-0.0001209049
260.2067,-0.0001208578
260.3067,-0.0001207674
260.4067,-0.0001206817
260.5067,-0.0001206205
260.6067,-0.0001205489
260.7067,-0.0001204717
260.8067,-0.0001203973
260.9067,-0.0001203069
261.0067,-0.0001202438
261.1067,-0.0001202109
261.2067,-0.0001201167
261.3067,-0.0001200263
261.4067,-0.0001199509
261.5067,-0.0001198671
261.6068,-0.0001197918
261.7068,-0.0001197419
261.8068,-0.0001196496
261.9068,-0.0001195611
262.0068,-0.0001195036
262.1068,-0.0001194057
262.2068,-0.000119319
262.3068,-0.0001192682
262.4068,-0.0001191928
262.5068,-0.000119109
262.6068,-0.0001190243
262.7068,-0.0001189386
262.8068,-0.0001188877
262.9068,-0.0001188124
263.0068,-0.0001187229
263.1068,-0.0001186278
263.2068,-0.000118577
263.3069,-0.0001184978
263.4069,-0.0001184206
263.5069,-0.0001183255
263.6069,-0.0001182643
263.7069,-0.0001182116
263.8069,-0.0001181155
263.9069,-0.0001180599
264.0069,-0.0001179573
264.1069,-0.0001179309
264.2069,-0.0001178386
264.3069,-0.0001177614
264.4069,-0.0001176578
264.5069,-0.0001175966
264.6069,-0.0001175166
264.7069,-0.0001174469
264.8069,-0.0001173697
264.907,-0.0001172576
265.007,-0.0001171841
265.107,-0.0001171681
265.207,-0.0001170702
265.307,-0.0001169845
265.407,-0.0001169289
265.507,-0.0001168235
265.607,-0.0001167811
265.707,-0.0001167076
265.807,-0.0001166106
265.907,-0.0001165296
266.007,-0.0001164844
266.107,-0.0001163912
266.207,-0.0001163224
266.307,-0.000116265
266.407,-0.0001161699
266.507,-0.0001160748
266.6071,-0.0001160267
266.7071,-0.0001159476
266.8071,-0.0001158535
266.9071,-0.0001157875
267.0071,-0.0001157075
267.1071,-0.0001156745
267.2071,-0.0001155757
267.3071,-0.0001155031
267.4071,-0.0001154316
267.5071,-0.0001153986
267.6071,-0.0001153035
267.7071,-0.0001152263
267.8071,-0.0001151594
267.9071,-0.0001150954
268.0071,-0.0001150398
268.1071,-0.0001149456
268.2072,-0.0001148628
268.3072,-0.0001147931
268.4072,-0.0001147356
268.5072,-0.0001146659
268.6072,-0.0001145755
268.7072,-0.0001145303
268.8072,-0.0001144343
268.9072,-0.0001143646
269.0072,-0.00011431
269.1072,-0.0001142638
269.2072,-0.0001141772
269.3072,-0.0001141527
269.4072,-0.0001140265
269.5072,-0.0001139606
269.6072,-0.0001138683
269.7072,-0.0001138108
269.8073,-0.0001137327
269.9073,-0.0001136517
270.0073,-0.0001135688
270.1073,-0.0001134897
270.2073,-0.0001134332
270.3073,-0.0001133692
270.4073,-0.0001132675
270.5073,-0.000113195
270.6073,-0.0001131601
270.7073,-0.000113114
270.8073,-0.0001130349
270.9073,-0.0001129605
271.0073,-0.0001128653
271.1073,-0.0001128117
271.2073,-0.0001127514
271.3073,-0.0001126318
271.4073,-0.0001125565
271.5074,-0.0001125423
271.6074,-0.0001124717
271.7074,-0.0001123728
271.8074,-0.0001122984
271.9074,-0.0001122429
272.0074,-0.0001121845
272.1074,-0.0001121167
272.2074,-0.0001120234
272.3074,-0.0001119792
272.4074,-0.0001119189
272.5074,-0.0001118012
272.6074,-0.0001117466
272.7074,-0.000111692
272.8074,-0.0001116157
272.9074,-0.0001115215
273.0074,-0.0001114612
273.1075,-0.0001113746
273.2075,-0.0001113021
273.3075,-0.0001112597
273.4075,-0.0001111721
273.5075,-0.0001110761
273.6075,-0.0001110422
273.7075,-0.0001109744
273.8075,-0.000110883
273.9075,-0.0001108143
274.0075,-0.0001107352
274.1075,-0.0001106523
274.2075,-0.0001106156
274.3075,-0.0001105656
274.4075,-0.0001104451
274.5075,-0.0001104103
274.6075,-0.0001103547
274.7076,-0.0001102784
274.8076,-0.0001101955
274.9076,-0.0001101362
275.0076,-0.0001100628
275.1076,-0.0001100034
275.2076,-0.0001099253
275.3076,-0.000109848
275.4076,-0.000109784
275.5076,-0.0001097341
275.6076,-0.0001096795
275.7076,-0.0001095966
275.8076,-0.0001095288
275.9076,-0.0001094666
276.0076,-0.0001094177
276.1076,-0.0001093612
276.2076,-0.0001092595
276.3076,-0.0001091879
276.4077,-0.0001091502
276.5077,-0.0001090683
276.6077,-0.0001089995
276.7077,-0.0001089176
276.8077,-0.0001088658
276.9077,-0.0001087952
277.0077,-0.000108749
277.1077,-0.0001086633
277.2077,-0.0001085852
277.3077,-0.0001085371
277.4077,-0.000108459
277.5077,-0.0001083714
277.6077,-0.0001083253
277.7077,-0.0001082386
277.8077,-0.0001081605
277.9077,-0.0001081369
278.0078,-0.0001080531
278.1078,-0.0001079655
278.2078,-0.0001079194
278.3078,-0.000107845
278.4078,-0.0001078026
278.5078,-0.0001077452
278.6078,-0.0001076585
278.7078,-0.00010757
278.8078,-0.000107553
278.9078,-0.0001074815
279.0078,-0.0001073732
279.1078,-0.0001073167
279.2078,-0.0001072752
279.3078,-0.000107215
279.4078,-0.0001071396
279.5078,-0.0001070888
279.6078,-0.0001070473
279.7079,-0.0001069852
279.8079,-0.0001069136
279.9079,-0.0001068722
280.0079,-0.0001068147
280.1079,-0.0001067055
280.2079,-0.0001066292
280.3079,-0.0001065576
280.4079,-0.0001064917
280.5079,-0.0001064145
280.6079,-0.0001063627
280.7079,-0.0001062826
280.8079,-0.0001062092
280.9079,-0.0001061612
281.0079,-0.000106083
281.1079,-0.0001060274
281.2079,-0.0001059662
281.308,-0.0001059041
281.408,-0.0001058127
281.508,-0.0001057779
281.608,-0.000105711
281.708,-0.0001056602
281.808,-0.000105615
281.908,-0.0001054991
282.008,-0.000105437
282.108,-0.0001054002
282.208,-0.0001053616
282.308,-0.0001052392
282.408,-0.0001051912
282.508,-0.0001051347
282.608,-0.0001050876
282.708,-0.000105017
282.808,-0.0001049369
282.9081,-0.0001048682
283.0081,-0.000104807
283.1081,-0.0001047439
283.2081,-0.0001046714
283.3081,-0.0001045979
283.4081,-0.0001045489
283.5081,-0.0001044745
283.6081,-0.0001044133
283.7081,-0.000104369
283.8081,-0.0001042965
283.9081,-0.0001042372
284.0081,-0.0001041638
284.1081,-0.0001041044
284.2081,-0.0001040517
284.3081,-0.0001040008
284.4081,-0.0001039161
284.5081,-0.0001038455
284.6082,-0.0001037993
284.7082,-0.0001037371
284.8082,-0.0001036731
284.9082,-0.0001036279
285.0082,-0.0001035441
285.1082,-0.0001034716
285.2082,-0.000103433
285.3082,-0.0001033322
285.4082,-0.000103271
285.5082,-0.0001032117
285.6082,-0.0001031542
285.7082,-0.0001031071
285.8082,-0.0001030393
285.9082,-0.0001029809
286.0082,-0.0001029075
286.1082,-0.0001028284
286.2083,-0.0001027756
286.3083,-0.0001027107
286.4083,-0.0001026589
286.5083,-0.0001025798
286.6083,-0.0001025167
286.7083,-0.0001024658
286.8083,-0.0001024159
286.9083,-0.000102349
287.0083,-0.0001022822
287.1083,-0.0001022379
287.2083,-0.0001021682
287.3083,-0.0001020882
287.4083,-0.0001020091
287.5083,-0.0001019403
287.6083,-0.0001019008
287.7083,-0.0001018311
287.8083,-0.0001017991
287.9084,-0.0001017435
288.0084,-0.0001016503
288.1084,-0.0001015533
288.2084,-0.0001015297
288.3084,-0.0001014845
288.4084,-0.0001014045
288.5084,-0.0001013508
288.6084,-0.0001012839
288.7084,-0.0001012199
288.8084,-0.0001011898
288.9084,-0.0001011116
289.0084,-0.0001010673
289.1084,-0.0001009816
289.2084,-0.0001009138
289.3084,-0.0001008752
289.4084,-0.0001008197
289.5085,-0.0001007537
289.6085,-0.0001006859
289.7085,-0.0001006219
289.8085,-0.0001005682
289.9085,-0.0001005202
290.0085,-0.0001004627
290.1085,-0.0001003818
290.2085,-0.0001003102
290.3085,-0.0001002735
290.4085,-0.0001002085
290.5085,-0.0001001567
290.6085,-0.0001000955
290.7085,-0.0001000145
290.8085,-9.994197E-05
290.9085,-9.992314E-05
291.0085,-9.986098E-05
291.1086,-9.979224E-05
291.2086,-9.972726E-05
291.3086,-9.966322E-05
291.4086,-9.960389E-05
291.5086,-9.955869E-05
291.6086,-9.9489E-05
291.7086,-9.9408E-05
291.8086,-9.937034E-05
291.9086,-9.931007E-05
292.0086,-9.925075E-05
292.1086,-9.920365E-05
292.2086,-9.909912E-05
292.3086,-9.904638E-05
292.4086,-9.902944E-05
292.5086,-9.893997E-05
292.6086,-9.886652E-05
292.7086,-9.882697E-05
292.8087,-9.878741E-05
292.9087,-9.870736E-05
293.0087,-9.865085E-05
293.1087,-9.859247E-05
293.2087,-9.851525E-05
293.3087,-9.85209E-05
293.4087,-9.844462E-05
293.5087,-9.832691E-05
293.6087,-9.830618E-05
293.7087,-9.82704E-05
293.8087,-9.821013E-05
293.9087,-9.813761E-05
294.0087,-9.806604E-05
294.1087,-9.802178E-05
294.2087,-9.796998E-05
294.3087,-9.790877E-05
294.4088,-9.781837E-05
294.5088,-9.776845E-05
294.6088,-9.771289E-05
294.7088,-9.766016E-05
294.8088,-9.760648E-05
294.9088,-9.754433E-05
295.0088,-9.747841E-05
295.1088,-9.74106E-05
295.2088,-9.73654E-05
295.3088,-9.730794E-05
295.4088,-9.722508E-05
295.5088,-9.717705E-05
295.6088,-9.714127E-05
295.7088,-9.707911E-05
295.8088,-9.703109E-05
295.9088,-9.694256E-05
296.0089,-9.687287E-05
296.1089,-9.683896E-05
296.2089,-9.67787E-05
296.3089,-9.671466E-05
296.4089,-9.665157E-05
296.5089,-9.658188E-05
296.6089,-9.655362E-05
296.7089,-9.649524E-05
296.8089,-9.642367E-05
296.9089,-9.635492E-05
297.0089,-9.631537E-05
297.1089,-9.627393E-05
297.2089,-9.620519E-05
297.3089,-9.614962E-05
297.4089,-9.608464E-05
297.5089,-9.606486E-05
297.6089,-9.600742E-05
297.709,-9.593585E-05
297.809,-9.587558E-05
297.909,-9.583414E-05
298.009,-9.578987E-05
298.109,-9.574938E-05
298.209,-9.568723E-05
298.309,-9.558458E-05
298.409,-9.554879E-05
298.509,-9.553938E-05
298.609,-9.54405E-05
298.709,-9.537552E-05
298.809,-9.534727E-05
298.909,-9.527663E-05
299.009,-9.522954E-05
299.109,-9.516269E-05
299.209,-9.510147E-05
299.3091,-9.503461E-05
299.4091,-9.500353E-05
299.5091,-9.493385E-05
299.6091,-9.488958E-05
299.7091,-9.485191E-05
299.8091,-9.477469E-05
299.9091,-9.472383E-05
300.0091,-9.468993E-05
300.1091,-9.46306E-05
300.2091,-9.457787E-05
300.3091,-9.452231E-05
300.4091,-9.445827E-05
300.5091,-9.439235E-05
300.6091,-9.43575E-05
300.7091,-9.426145E-05
300.8091,-9.421248E-05
300.9091,-9.421154E-05
301.0092,-9.415692E-05
301.1092,-9.40731E-05
301.2092,-9.401189E-05
301.3092,-9.39648E-05
301.4092,-9.390924E-05
301.5092,-9.388476E-05
301.6092,-9.378588E-05
301.7092,-9.371713E-05
301.8092,-9.368605E-05
301.9092,-9.363991E-05
302.0092,-9.359564E-05
302.1092,-9.354196E-05
302.2092,-9.346475E-05
302.3092,-9.339693E-05
302.4092,-9.337811E-05
302.5092,-9.333291E-05
302.6093,-9.325191E-05
302.7093,-9.320764E-05
302.8093,-9.314549E-05
302.9093,-9.313796E-05
303.0093,-9.308523E-05
303.1093,-9.301931E-05
303.2093,-9.295527E-05
303.3093,-9.29223E-05
303.4093,-9.286486E-05
303.5093,-9.279706E-05
303.6093,-9.272925E-05
303.7093,-9.265768E-05
303.8093,-9.261624E-05
303.9093,-9.256822E-05
304.0093,-9.25183E-05
304.1093,-9.244861E-05
304.2094,-9.240341E-05
304.3094,-9.235256E-05
304.4094,-9.229511E-05
304.5094,-9.223861E-05
304.6094,-9.218494E-05
304.7094,-9.213219E-05
304.8094,-9.210865E-05
304.9094,-9.202577E-05
305.0094,-9.195797E-05
305.1094,-9.190995E-05
305.2094,-9.18459E-05
305.3094,-9.178281E-05
305.4094,-9.173666E-05
305.5094,-9.169523E-05
305.6094,-9.162931E-05
305.7094,-9.156057E-05
305.8094,-9.151442E-05
305.9095,-9.14598E-05
306.0095,-9.141742E-05
306.1095,-9.136469E-05
306.2095,-9.131665E-05
306.3095,-9.123943E-05
306.4095,-9.119329E-05
306.5095,-9.113396E-05
306.6095,-9.109158E-05
306.7095,-9.106239E-05
306.8095,-9.098798E-05
306.9095,-9.093242E-05
307.0095,-9.090701E-05
307.1095,-9.084861E-05
307.2095,-9.0794E-05
307.3095,-9.075444E-05
307.4095,-9.069888E-05
307.5096,-9.061883E-05
307.6096,-9.05934E-05
307.7096,-9.052278E-05
307.8096,-9.04917E-05
307.9096,-9.043897E-05
308.0096,-9.037021E-05
308.1096,-9.030994E-05
308.2096,-9.02977E-05
308.3096,-9.026003E-05
308.4096,-9.018469E-05
308.5096,-9.013572E-05
308.6096,-9.005567E-05
308.7096,-8.999823E-05
308.8096,-8.999164E-05
308.9096,-8.992007E-05
309.0096,-8.987016E-05
309.1096,-8.982777E-05
309.2097,-8.979011E-05
309.3097,-8.974114E-05
309.4097,-8.965826E-05
309.5097,-8.9598E-05
309.6097,-8.954902E-05
309.7097,-8.952925E-05
309.8097,-8.942378E-05
309.9097,-8.937292E-05
310.0097,-8.935314E-05
310.1097,-8.92844E-05
310.2097,-8.923354E-05
310.3097,-8.919965E-05
310.4097,-8.912995E-05
310.5097,-8.907345E-05
310.6097,-8.909323E-05
310.7097,-8.899057E-05
310.8098,-8.889829E-05
310.9098,-8.889358E-05
311.0098,-8.882766E-05
311.1098,-8.872971E-05
311.2098,-8.870146E-05
311.3098,-8.864214E-05
311.4098,-8.859599E-05
311.5098,-8.856209E-05
311.6098,-8.849805E-05
311.7098,-8.842366E-05
311.8098,-8.840294E-05
311.9098,-8.835962E-05
312.0098,-8.828052E-05
312.1098,-8.824661E-05
312.2098,-8.81788E-05
312.3098,-8.813079E-05
312.4099,-8.811477E-05
312.5099,-8.806203E-05
312.6099,-8.795845E-05
312.7099,-8.792736E-05
312.8099,-8.788404E-05
312.9099,-8.783508E-05
313.0099,-8.779835E-05
313.1099,-8.77409E-05
313.2099,-8.767969E-05
313.3099,-8.764295E-05
313.4099,-8.760906E-05
313.5099,-8.754314E-05
313.6099,-8.749981E-05
313.7099,-8.747062E-05
313.8099,-8.742071E-05
313.9099,-8.737927E-05
314.0099,-8.730582E-05
314.11,-8.725214E-05
314.21,-8.719752E-05
314.31,-8.714855E-05
314.41,-8.711182E-05
314.51,-8.708263E-05
314.61,-8.701954E-05
314.71,-8.699317E-05
314.81,-8.692631E-05
314.91,-8.687357E-05
315.01,-8.681047E-05
315.11,-8.677186E-05
315.21,-8.6721E-05
315.31,-8.663342E-05
315.41,-8.65967E-05
315.51,-8.659105E-05
315.61,-8.653643E-05
315.7101,-8.647993E-05
315.8101,-8.643472E-05
315.9101,-8.635185E-05
316.0101,-8.633113E-05
316.1101,-8.631889E-05
316.2101,-8.622189E-05
316.3101,-8.61635E-05
316.4101,-8.617668E-05
316.5101,-8.612771E-05
316.6101,-8.60505E-05
316.7101,-8.600717E-05
316.8101,-8.594973E-05
316.9101,-8.588852E-05
317.0101,-8.588381E-05
317.1101,-8.578963E-05
317.2101,-8.575009E-05
317.3102,-8.570581E-05
317.4102,-8.565874E-05
317.5102,-8.562483E-05
317.6102,-8.558152E-05
317.7102,-8.551747E-05
317.8102,-8.546191E-05
317.9102,-8.5428E-05
318.0102,-8.538846E-05
318.1102,-8.532724E-05
318.2102,-8.530371E-05
318.3102,-8.523025E-05
318.4102,-8.515397E-05
318.5102,-8.513984E-05
318.6102,-8.508992E-05
318.7102,-8.504943E-05
318.8102,-8.501836E-05
318.9102,-8.496467E-05
319.0103,-8.48818E-05
319.1103,-8.489499E-05
319.2103,-8.481589E-05
319.3103,-8.475185E-05
319.4103,-8.470288E-05
319.5103,-8.466144E-05
319.6103,-8.465579E-05
319.7103,-8.459081E-05
319.8103,-8.451171E-05
319.9103,-8.44618E-05
320.0103,-8.446273E-05
320.1103,-8.439682E-05
320.2103,-8.43243E-05
320.3103,-8.43064E-05
320.4103,-8.424801E-05
320.5103,-8.418681E-05
320.6104,-8.415667E-05
320.7104,-8.409546E-05
320.8104,-8.407285E-05
320.9104,-8.404649E-05
321.0104,-8.398433E-05
321.1104,-8.393913E-05
321.2104,-8.389016E-05
321.3104,-8.381953E-05
321.4104,-8.377904E-05
321.5104,-8.374702E-05
321.6104,-8.368298E-05
321.7104,-8.363307E-05
321.8104,-8.357468E-05
321.9104,-8.353889E-05
322.0104,-8.347486E-05
322.1104,-8.344849E-05
322.2104,-8.340894E-05
322.3105,-8.336467E-05
322.4105,-8.332795E-05
322.5105,-8.328651E-05
322.6105,-8.323095E-05
322.7105,-8.318009E-05
322.8105,-8.314054E-05
322.9105,-8.310476E-05
323.0105,-8.302942E-05
323.1105,-8.299269E-05
323.2105,-8.294467E-05
323.3105,-8.292677E-05
323.4105,-8.290511E-05
323.5105,-8.284483E-05
323.6105,-8.278174E-05
323.7105,-8.277233E-05
323.8105,-8.273654E-05
323.9106,-8.268098E-05
324.0106,-8.263954E-05
324.1106,-8.257457E-05
324.2106,-8.252371E-05
324.3106,-8.250959E-05
324.4106,-8.24399E-05
324.5106,-8.240129E-05
324.6106,-8.236738E-05
324.7106,-8.230899E-05
324.8106,-8.226191E-05
324.9106,-8.223837E-05
325.0106,-8.219975E-05
325.1106,-8.214608E-05
325.2106,-8.2115E-05
325.3106,-8.205096E-05
325.4106,-8.198692E-05
325.5107,-8.195585E-05
325.6107,-8.191817E-05
325.7107,-8.187204E-05
325.8107,-8.184378E-05
325.9107,-8.178728E-05
326.0107,-8.170534E-05
326.1107,-8.170441E-05
326.2107,-8.165825E-05
326.3107,-8.15914E-05
326.4107,-8.156408E-05
326.5107,-8.148686E-05
326.6107,-8.143695E-05
326.7107,-8.144166E-05
326.8107,-8.13908E-05
326.9107,-8.133242E-05
327.0107,-8.130699E-05
327.1107,-8.122788E-05
327.2108,-8.119116E-05
327.3108,-8.118551E-05
327.4108,-8.114972E-05
327.5108,-8.108098E-05
327.6108,-8.105838E-05
327.7108,-8.099717E-05
327.8108,-8.093406E-05
327.9108,-8.093595E-05
328.0108,-8.086626E-05
328.1108,-8.082671E-05
328.2108,-8.078433E-05
328.3108,-8.074006E-05
328.4108,-8.06864E-05
328.5108,-8.065908E-05
328.6108,-8.061294E-05
328.7108,-8.056208E-05
328.8109,-8.050934E-05
328.9109,-8.045943E-05
329.0109,-8.042271E-05
329.1109,-8.04001E-05
329.2109,-8.034925E-05
329.3109,-8.02805E-05
329.4109,-8.026732E-05
329.5109,-8.024566E-05
329.6109,-8.018822E-05
329.7109,-8.015997E-05
329.8109,-8.009781E-05
329.9109,-8.004036E-05
330.0109,-8.001494E-05
330.1109,-7.996691E-05
330.2109,-7.991512E-05
330.3109,-7.988968E-05
330.4109,-7.981624E-05
330.511,-7.981246E-05
330.611,-7.979081E-05
330.711,-7.974749E-05
330.811,-7.966649E-05
330.911,-7.961658E-05
331.011,-7.959963E-05
331.111,-7.955066E-05
331.211,-7.950264E-05
331.311,-7.948004E-05
331.411,-7.944707E-05
331.511,-7.941034E-05
331.611,-7.936326E-05
331.711,-7.933312E-05
331.811,-7.928039E-05
331.911,-7.923989E-05
332.011,-7.916455E-05
332.1111,-7.911371E-05
332.2111,-7.909675E-05
332.3111,-7.903459E-05
332.4111,-7.898562E-05
332.5111,-7.89489E-05
332.6111,-7.89084E-05
332.7111,-7.886885E-05
332.8111,-7.884436E-05
332.9111,-7.878221E-05
333.0111,-7.875867E-05
333.1111,-7.871535E-05
333.2111,-7.867863E-05
333.3111,-7.862964E-05
333.4111,-7.858068E-05
333.5111,-7.855525E-05
333.6111,-7.850723E-05
333.7112,-7.847991E-05
333.8112,-7.840552E-05
333.9112,-7.83782E-05
334.0112,-7.835278E-05
334.1112,-7.83104E-05
334.2112,-7.824166E-05
334.3112,-7.820775E-05
334.4112,-7.816066E-05
334.5112,-7.813336E-05
334.6112,-7.810323E-05
334.7112,-7.80373E-05
334.8112,-7.800152E-05
334.9112,-7.797044E-05
335.0112,-7.791299E-05
335.1112,-7.789133E-05
335.2112,-7.78499E-05
335.3112,-7.779528E-05
335.4113,-7.776231E-05
335.5113,-7.772747E-05
335.6113,-7.769545E-05
335.7113,-7.764366E-05
335.8113,-7.760975E-05
335.9113,-7.75476E-05
336.0113,-7.752029E-05
336.1113,-7.75137E-05
336.2113,-7.744024E-05
336.3113,-7.738656E-05
336.4113,-7.736679E-05
336.5113,-7.731499E-05
336.6113,-7.728014E-05
336.7113,-7.724059E-05
336.8113,-7.719068E-05
336.9113,-7.713983E-05
337.0114,-7.713512E-05
337.1114,-7.70984E-05
337.2114,-7.703813E-05
337.3114,-7.700988E-05
337.4114,-7.696843E-05
337.5114,-7.691381E-05
337.6114,-7.687615E-05
337.7114,-7.683376E-05
337.8114,-7.679893E-05
337.9114,-7.678669E-05
338.0114,-7.674337E-05
338.1114,-7.665955E-05
338.2114,-7.664072E-05
338.3114,-7.659927E-05
338.4114,-7.656444E-05
338.5114,-7.654089E-05
338.6115,-7.645896E-05
338.7115,-7.644483E-05
338.8115,-7.643542E-05
338.9115,-7.64034E-05
339.0115,-7.635442E-05
339.1115,-7.630922E-05
339.2115,-7.626873E-05
339.3115,-7.622164E-05
339.4115,-7.618208E-05
339.5115,-7.614159E-05
339.6115,-7.609168E-05
339.7115,-7.607473E-05
339.8115,-7.604177E-05
339.9115,-7.597774E-05
340.0115,-7.594949E-05
340.1115,-7.593818E-05
340.2115,-7.590239E-05
340.3116,-7.585342E-05
340.4116,-7.579221E-05
340.5116,-7.575549E-05
340.6116,-7.574513E-05
340.7116,-7.569051E-05
340.8116,-7.563495E-05
340.9116,-7.562364E-05
341.0116,-7.55596E-05
341.1116,-7.553512E-05
341.2116,-7.547673E-05
341.3116,-7.544849E-05
341.4116,-7.542117E-05
341.5116,-7.53788E-05
341.6116,-7.534867E-05
341.7116,-7.530533E-05
341.8116,-7.528932E-05
341.9117,-7.526013E-05
342.0117,-7.519986E-05
342.1117,-7.514242E-05
342.2117,-7.513583E-05
342.3117,-7.509628E-05
342.4117,-7.504542E-05
342.5117,-7.502847E-05
342.6117,-7.49569E-05
342.7117,-7.49343E-05
342.8117,-7.489003E-05
342.9117,-7.485331E-05
343.0117,-7.479304E-05
343.1117,-7.479492E-05
343.2117,-7.474406E-05
343.3117,-7.468756E-05
343.4117,-7.46659E-05
343.5117,-7.46207E-05
343.6118,-7.45802E-05
343.7118,-7.456608E-05
343.8118,-7.450392E-05
343.9118,-7.445495E-05
344.0118,-7.446814E-05
344.1118,-7.441163E-05
344.2118,-7.43589E-05
344.3118,-7.431935E-05
344.4118,-7.427038E-05
344.5118,-7.424495E-05
344.6118,-7.42393E-05
344.7118,-7.418374E-05
344.8118,-7.412818E-05
344.9118,-7.410839E-05
345.0118,-7.405377E-05
345.1118,-7.402458E-05
345.2119,-7.401893E-05
345.3119,-7.397844E-05
345.4119,-7.392476E-05
345.5119,-7.38852E-05
345.6119,-7.38579E-05
345.7119,-7.384284E-05
345.8119,-7.377314E-05
345.9119,-7.371287E-05
346.0119,-7.36978E-05
346.1119,-7.370628E-05
346.2119,-7.365448E-05
346.3119,-7.360835E-05
346.4119,-7.356879E-05
346.5119,-7.352453E-05
346.6119,-7.348874E-05
346.7119,-7.346142E-05
346.812,-7.341341E-05
346.912,-7.336066E-05
347.012,-7.334936E-05
347.112,-7.331828E-05
347.212,-7.327779E-05
347.312,-7.323447E-05
347.412,-7.31855E-05
347.512,-7.315347E-05
347.612,-7.313465E-05
347.712,-7.307343E-05
347.812,-7.304518E-05
347.912,-7.300374E-05
348.012,-7.296702E-05
348.112,-7.291428E-05
348.212,-7.290675E-05
348.312,-7.286155E-05
348.412,-7.281257E-05
348.5121,-7.27928E-05
348.6121,-7.275136E-05
348.7121,-7.271087E-05
348.8121,-7.267696E-05
348.9121,-7.264307E-05
349.0121,-7.259692E-05
349.1121,-7.255549E-05
349.2121,-7.251593E-05
349.3121,-7.248863E-05
349.4121,-7.246037E-05
349.5121,-7.243212E-05
349.6121,-7.239351E-05
349.7121,-7.232665E-05
349.8121,-7.233041E-05
349.9121,-7.228521E-05
350.0121,-7.224095E-05
350.1122,-7.221646E-05
350.2122,-7.21609E-05
350.3122,-7.211004E-05
350.4122,-7.212982E-05
350.5122,-7.206767E-05
350.6122,-7.201964E-05
350.7122,-7.200269E-05
350.8122,-7.198291E-05
350.9122,-7.19443E-05
351.0122,-7.191605E-05
351.1122,-7.187555E-05
351.2122,-7.181434E-05
351.3122,-7.181434E-05
351.4122,-7.178797E-05
351.5122,-7.1739E-05
351.6122,-7.170886E-05
351.7122,-7.167873E-05
351.8123,-7.164295E-05
351.9123,-7.163258E-05
352.0123,-7.157043E-05
352.1123,-7.154501E-05
352.2123,-7.154595E-05
352.3123,-7.149509E-05
352.4123,-7.147155E-05
352.5123,-7.143859E-05
352.6123,-7.140375E-05
352.7123,-7.136985E-05
352.8123,-7.132276E-05
352.9123,-7.128886E-05
353.0123,-7.127472E-05
353.1123,-7.124177E-05
353.2123,-7.120034E-05
353.3123,-7.112217E-05
353.4124,-7.115324E-05
353.5124,-7.110333E-05
353.6124,-7.102706E-05
353.7124,-7.098938E-05
353.8124,-7.100633E-05
353.9124,-7.094042E-05
354.0124,-7.090934E-05
354.1124,-7.088296E-05
354.2124,-7.083306E-05
354.3124,-7.079915E-05
354.4124,-7.077656E-05
354.5124,-7.071817E-05
354.6124,-7.069462E-05
354.7124,-7.065319E-05
354.8124,-7.063058E-05
354.9124,-7.057503E-05
355.0125,-7.057031E-05
355.1125,-7.051852E-05
355.2125,-7.049215E-05
355.3125,-7.046201E-05
355.4125,-7.040174E-05
355.5125,-7.03895E-05
355.6125,-7.036314E-05
355.7125,-7.03151E-05
355.8125,-7.026237E-05
355.9125,-7.02473E-05
356.0125,-7.019927E-05
356.1125,-7.018421E-05
356.2125,-7.016537E-05
356.3125,-7.009661E-05
356.4125,-7.005519E-05
356.5125,-7.007874E-05
356.6125,-7.006366E-05
356.7126,-6.998456E-05
356.8126,-6.998267E-05
356.9126,-6.992052E-05
357.0126,-6.991205E-05
357.1126,-6.988756E-05
357.2126,-6.981975E-05
357.3126,-6.977643E-05
357.4126,-6.977549E-05
357.5126,-6.97463E-05
357.6126,-6.967002E-05
357.7126,-6.964459E-05
357.8126,-6.960598E-05
357.9126,-6.955607E-05
358.0126,-6.95636E-05
358.1126,-6.951558E-05
358.2126,-6.94666E-05
358.3127,-6.945437E-05
358.4127,-6.942328E-05
358.5127,-6.93988E-05
358.6127,-6.936867E-05
358.7127,-6.931687E-05
358.8127,-6.927166E-05
358.9127,-6.926319E-05
359.0127,-6.924059E-05
359.1127,-6.919727E-05
359.2127,-6.917089E-05
359.3127,-6.9137E-05
359.4127,-6.910968E-05
359.5127,-6.909839E-05
359.6127,-6.904565E-05
359.7127,-6.899479E-05
359.8127,-6.898255E-05
359.9128,-6.898161E-05
360.0128,-6.89251E-05
360.1128,-6.887614E-05
360.2128,-6.885353E-05
360.3128,-6.882528E-05
360.4128,-6.881681E-05
360.5128,-6.877915E-05
360.6128,-6.87443E-05
360.7128,-6.872264E-05
360.8128,-6.870004E-05
360.9128,-6.865671E-05
361.0128,-6.863599E-05
361.1128,-6.85729E-05
361.2128,-6.854465E-05
361.3128,-6.854841E-05
361.4128,-6.851169E-05
361.5128,-6.843729E-05
361.6129,-6.841186E-05
361.7129,-6.841469E-05
361.8129,-6.836854E-05
361.9129,-6.834783E-05
362.0129,-6.829885E-05
362.1129,-6.825742E-05
362.2129,-6.824612E-05
362.3129,-6.82141E-05
362.4129,-6.816514E-05
362.5129,-6.813594E-05
362.6129,-6.814818E-05
362.7129,-6.806436E-05
362.8129,-6.805213E-05
362.9129,-6.805589E-05
363.0129,-6.802576E-05
363.1129,-6.798338E-05
363.213,-6.794571E-05
363.313,-6.789863E-05
363.413,-6.787602E-05
363.513,-6.786E-05
363.613,-6.781387E-05
363.713,-6.775359E-05
363.813,-6.778185E-05
363.913,-6.773287E-05
364.013,-6.766507E-05
364.113,-6.76566E-05
364.213,-6.762363E-05
364.313,-6.760104E-05
364.413,-6.758879E-05
364.513,-6.753699E-05
364.613,-6.750215E-05
364.713,-6.750874E-05
364.813,-6.744659E-05
364.9131,-6.742399E-05
365.0131,-6.740233E-05
365.1131,-6.736748E-05
365.2131,-6.732511E-05
365.3131,-6.729685E-05
365.4131,-6.726296E-05
365.5131,-6.72121E-05
365.6131,-6.720833E-05
365.7131,-6.716125E-05
365.8131,-6.712829E-05
365.9131,-6.709061E-05
366.0131,-6.708025E-05
366.1131,-6.70294E-05
366.2131,-6.701057E-05
366.3131,-6.694465E-05
366.4131,-6.693241E-05
366.5132,-6.693335E-05
366.6132,-6.690039E-05
366.7132,-6.682693E-05
366.8132,-6.680997E-05
366.9132,-6.678455E-05
367.0132,-6.676666E-05
367.1132,-6.672146E-05
367.2132,-6.670546E-05
367.3132,-6.665647E-05
367.4132,-6.662446E-05
367.5132,-6.659432E-05
367.6132,-6.65915E-05
367.7132,-6.656984E-05
367.8132,-6.651333E-05
367.9132,-6.648227E-05
368.0132,-6.645589E-05
368.1133,-6.643705E-05
368.2133,-6.639656E-05
368.3133,-6.637302E-05
368.4133,-6.634947E-05
368.5133,-6.630333E-05
368.6133,-6.627602E-05
368.7133,-6.627508E-05
368.8133,-6.621952E-05
368.9133,-6.619974E-05
369.0133,-6.616207E-05
369.1133,-6.615265E-05
369.2133,-6.611498E-05
369.3133,-6.610932E-05
369.4133,-6.60726E-05
369.5133,-6.602835E-05
369.6133,-6.59935E-05
369.7133,-6.596713E-05
369.8134,-6.595489E-05
369.9134,-6.593323E-05
370.0134,-6.587202E-05
370.1134,-6.583058E-05
370.2134,-6.58221E-05
370.3134,-6.58061E-05
370.4134,-6.57835E-05
370.5134,-6.574677E-05
370.6134,-6.568084E-05
370.7134,-6.567613E-05
370.8134,-6.564694E-05
370.9134,-6.561963E-05
371.0134,-6.55895E-05
371.1134,-6.556125E-05
371.2134,-6.552264E-05
371.3134,-6.549815E-05
371.4135,-6.546801E-05
371.5135,-6.544164E-05
371.6135,-6.541245E-05
371.7135,-6.538702E-05
371.8135,-6.5339E-05
371.9135,-6.531827E-05
372.0135,-6.531168E-05
372.1135,-6.52759E-05
372.2135,-6.524011E-05
372.3135,-6.52194E-05
372.4135,-6.516572E-05
372.5135,-6.514688E-05
372.6135,-6.513653E-05
372.7135,-6.508944E-05
372.8135,-6.506307E-05
372.9135,-6.504046E-05
373.0135,-6.499056E-05
373.1136,-6.497078E-05
373.2136,-6.495288E-05
373.3136,-6.492181E-05
373.4136,-6.485118E-05
373.5136,-6.486436E-05
373.6136,-6.485024E-05
373.7136,-6.479279E-05
373.8136,-6.477867E-05
373.9136,-6.475512E-05
374.0136,-6.4741E-05
374.1136,-6.47071E-05
374.2136,-6.465342E-05
374.3136,-6.46148E-05
374.4136,-6.463176E-05
374.5136,-6.459126E-05
374.6136,-6.454606E-05
374.7137,-6.453098E-05
374.8137,-6.447166E-05
374.9137,-6.444247E-05
375.0137,-6.444435E-05
375.1137,-6.438502E-05
375.2137,-6.434924E-05
375.3137,-6.434924E-05
375.4137,-6.43191E-05
375.5137,-6.42739E-05
375.6137,-6.423152E-05
375.7137,-6.421269E-05
375.8137,-6.417407E-05
375.9137,-6.41703E-05
376.0137,-6.411758E-05
376.1137,-6.408178E-05
376.2137,-6.409685E-05
376.3138,-6.406013E-05
376.4138,-6.402057E-05
376.5138,-6.397913E-05
376.6138,-6.395653E-05
376.7138,-6.393205E-05
376.8138,-6.395183E-05
376.9138,-6.388873E-05
377.0138,-6.384258E-05
377.1138,-6.384635E-05
377.2138,-6.38181E-05
377.3138,-6.379644E-05
377.4138,-6.377666E-05
377.5138,-6.371733E-05
377.6138,-6.368343E-05
377.7138,-6.370321E-05
377.8138,-6.366554E-05
377.9138,-6.359868E-05
378.0139,-6.36128E-05
378.1139,-6.358643E-05
378.2139,-6.35563E-05
378.3139,-6.355064E-05
378.4139,-6.350921E-05
378.5139,-6.347532E-05
378.6139,-6.346306E-05
378.7139,-6.34367E-05
378.8139,-6.33915E-05
378.9139,-6.338396E-05
379.0139,-6.332934E-05
379.1139,-6.33171E-05
379.2139,-6.330956E-05
379.3139,-6.328132E-05
379.4139,-6.324553E-05
379.5139,-6.321351E-05
379.614,-6.31862E-05
379.714,-6.316171E-05
379.814,-6.315041E-05
379.914,-6.311275E-05
380.014,-6.306095E-05
380.114,-6.306848E-05
380.214,-6.306189E-05
380.314,-6.30214E-05
380.414,-6.298184E-05
380.514,-6.297432E-05
380.614,-6.294135E-05
380.714,-6.291592E-05
380.814,-6.288578E-05
380.914,-6.284058E-05
381.014,-6.283117E-05
381.114,-6.281233E-05
381.2141,-6.276806E-05
381.3141,-6.273134E-05
381.4141,-6.271816E-05
381.5141,-6.271251E-05
381.6141,-6.268143E-05
381.7141,-6.265035E-05
381.8141,-6.260986E-05
381.9141,-6.259196E-05
382.0141,-6.256089E-05
382.1141,-6.251004E-05
382.2141,-6.249308E-05
382.3141,-6.249497E-05
382.4141,-6.244129E-05
382.5141,-6.239043E-05
382.6141,-6.241398E-05
382.7141,-6.238667E-05
382.8141,-6.235088E-05
382.9142,-6.230097E-05
383.0142,-6.227931E-05
383.1142,-6.225953E-05
383.2142,-6.223222E-05
383.3142,-6.220209E-05
383.4142,-6.214652E-05
383.5142,-6.214088E-05
383.6142,-6.213052E-05
383.7142,-6.208343E-05
383.8142,-6.204953E-05
383.9142,-6.200432E-05
384.0142,-6.200903E-05
384.1142,-6.200809E-05
384.2142,-6.195158E-05
384.3142,-6.191769E-05
384.4142,-6.189037E-05
384.5143,-6.186212E-05
384.6143,-6.182917E-05
384.7143,-6.18367E-05
384.8143,-6.179338E-05
384.9143,-6.176419E-05
385.0143,-6.176324E-05
385.1143,-6.170862E-05
385.2143,-6.167943E-05
385.3143,-6.169543E-05
385.4143,-6.164553E-05
385.5143,-6.162386E-05
385.6143,-6.158619E-05
385.7143,-6.158242E-05
385.8143,-6.154287E-05
385.9143,-6.154193E-05
386.0143,-6.149579E-05
386.1143,-6.145247E-05
386.2144,-6.144776E-05
386.3144,-6.143458E-05
386.4144,-6.138937E-05
386.5144,-6.137996E-05
386.6144,-6.134134E-05
386.7144,-6.13065E-05
386.8144,-6.130933E-05
386.9144,-6.129614E-05
387.0144,-6.124529E-05
387.1144,-6.121609E-05
387.2144,-6.118031E-05
387.3144,-6.117937E-05
387.4144,-6.12048E-05
387.5144,-6.1153E-05
387.6144,-6.111345E-05
387.7144,-6.108802E-05
387.8145,-6.106448E-05
387.9145,-6.105506E-05
388.0145,-6.100326E-05
388.1145,-6.096466E-05
388.2145,-6.094865E-05
388.3145,-6.095241E-05
388.4145,-6.093263E-05
388.5145,-6.089308E-05
388.6145,-6.086671E-05
388.7145,-6.084788E-05
388.8145,-6.080362E-05
388.9145,-6.079608E-05
389.0145,-6.077913E-05
389.1145,-6.072922E-05
389.2145,-6.071604E-05
389.3145,-6.068213E-05
389.4146,-6.067083E-05
389.5146,-6.06859E-05
389.6146,-6.062186E-05
389.7146,-6.061056E-05
389.8146,-6.05776E-05
389.9146,-6.053617E-05
390.0146,-6.052675E-05
390.1146,-6.051827E-05
390.2146,-6.047119E-05
390.3146,-6.041845E-05
390.4146,-6.043069E-05
390.5146,-6.041562E-05
390.6146,-6.03723E-05
390.7146,-6.034499E-05
390.8146,-6.034217E-05
390.9146,-6.030921E-05
391.0146,-6.029885E-05
391.1147,-6.026023E-05
391.2147,-6.023292E-05
391.3147,-6.020467E-05
391.4147,-6.020656E-05
391.5147,-6.017078E-05
391.6147,-6.013499E-05
391.7147,-6.01284E-05
391.8147,-6.011144E-05
391.9147,-6.008884E-05
392.0147,-6.008319E-05
392.1147,-6.003046E-05
392.2147,-6.000785E-05
392.3147,-5.998996E-05
392.4147,-5.995135E-05
392.5147,-5.992404E-05
392.6147,-5.992498E-05
392.7148,-5.990144E-05
392.8148,-5.984305E-05
392.9148,-5.983363E-05
393.0148,-5.981951E-05
393.1148,-5.978749E-05
393.2148,-5.976394E-05
393.3148,-5.97357E-05
393.4148,-5.97112E-05
393.5148,-5.972722E-05
393.6148,-5.968107E-05
393.7148,-5.964246E-05
393.8148,-5.962457E-05
393.9148,-5.960102E-05
394.0148,-5.959161E-05
394.1148,-5.957089E-05
394.2148,-5.952004E-05
394.3148,-5.948048E-05
394.4149,-5.949838E-05
394.5149,-5.948896E-05
394.6149,-5.942963E-05
394.7149,-5.941927E-05
394.8149,-5.939196E-05
394.9149,-5.937219E-05
395.0149,-5.937595E-05
395.1149,-5.932039E-05
395.2149,-5.926671E-05
395.3149,-5.928743E-05
395.4149,-5.92846E-05
395.5149,-5.925164E-05
395.6149,-5.921586E-05
395.7149,-5.918666E-05
395.8149,-5.917725E-05
395.9149,-5.917254E-05
396.015,-5.914429E-05
396.115,-5.908966E-05
396.215,-5.907836E-05
396.315,-5.904352E-05
396.415,-5.90454E-05
396.515,-5.903316E-05
396.615,-5.898796E-05
396.715,-5.895405E-05
396.815,-5.894935E-05
396.915,-5.891073E-05
397.015,-5.890226E-05
397.115,-5.889944E-05
397.215,-5.885894E-05
397.315,-5.881845E-05
397.415,-5.881939E-05
397.515,-5.878455E-05
397.6151,-5.875724E-05
397.7151,-5.876571E-05
397.8151,-5.87158E-05
397.9151,-5.866683E-05
398.0151,-5.868378E-05
398.1151,-5.864988E-05
398.2151,-5.862633E-05
398.3151,-5.860467E-05
398.4151,-5.857642E-05
398.5151,-5.854158E-05
398.6151,-5.853499E-05
398.7151,-5.851992E-05
398.8151,-5.850014E-05
398.9151,-5.848413E-05
399.0151,-5.845965E-05
399.1151,-5.842009E-05
399.2151,-5.840597E-05
399.3152,-5.838996E-05
399.4152,-5.836453E-05
399.5152,-5.834758E-05
399.6152,-5.830803E-05
399.7152,-5.826659E-05
399.8152,-5.82713E-05
399.9152,-5.827601E-05
400.0152,-5.822421E-05
400.1152,-5.819784E-05
400.2152,-5.820538E-05
400.3152,-5.82082E-05
400.4152,-5.817524E-05
400.5152,-5.813663E-05
400.6152,-5.811874E-05
400.7152,-5.811309E-05
400.8152,-5.809802E-05
400.9153,-5.803587E-05
401.0153,-5.801327E-05
401.1153,-5.801421E-05
401.2153,-5.798501E-05
401.3153,-5.796524E-05
401.4153,-5.792945E-05
401.5153,-5.79125E-05
401.6153,-5.789179E-05
401.7153,-5.787389E-05
401.8153,-5.782115E-05
401.9153,-5.781832E-05
402.0153,-5.781268E-05
402.1153,-5.780138E-05
402.2153,-5.775053E-05
402.3153,-5.772321E-05
402.4153,-5.771568E-05
402.5154,-5.770343E-05
402.6154,-5.768649E-05
402.7154,-5.764505E-05
402.8154,-5.761021E-05
402.9154,-5.762151E-05
403.0154,-5.759985E-05
403.1154,-5.757254E-05
403.2154,-5.754711E-05
403.3154,-5.751603E-05
403.4154,-5.752168E-05
403.5154,-5.751132E-05
403.6154,-5.742751E-05
403.7154,-5.742751E-05
403.8154,-5.742657E-05
403.9154,-5.740773E-05
404.0154,-5.737666E-05
404.1154,-5.736253E-05
404.2155,-5.732957E-05
404.3155,-5.730791E-05
404.4155,-5.729378E-05
404.5155,-5.726271E-05
404.6155,-5.722975E-05
404.7155,-5.725329E-05
404.8155,-5.720903E-05
404.9155,-5.717325E-05
405.0155,-5.717418E-05
405.1155,-5.715252E-05
405.2155,-5.711391E-05
405.3155,-5.711014E-05
405.4155,-5.707625E-05
405.5155,-5.707342E-05
405.6155,-5.703292E-05
405.7155,-5.70188E-05
405.8156,-5.699337E-05
405.9156,-5.698113E-05
406.0156,-5.694534E-05
406.1156,-5.690862E-05
406.2156,-5.68879E-05
406.3156,-5.689072E-05
406.4156,-5.686812E-05
406.5156,-5.684834E-05
406.6156,-5.681068E-05
406.7156,-5.678713E-05
406.8156,-5.681633E-05
406.9156,-5.677677E-05
407.0156,-5.67344E-05
407.1156,-5.672121E-05
407.2156,-5.669579E-05
407.3156,-5.666094E-05
407.4156,-5.667695E-05
407.5157,-5.663175E-05
407.6157,-5.660444E-05
407.7157,-5.660067E-05
407.8157,-5.657807E-05
407.9157,-5.654511E-05
408.0157,-5.653569E-05
408.1157,-5.651497E-05
408.2157,-5.64773E-05
408.3157,-5.646035E-05
408.4157,-5.643681E-05
408.5157,-5.641609E-05
408.6157,-5.641232E-05
408.7157,-5.637654E-05
408.8157,-5.635393E-05
408.9157,-5.635393E-05
409.0157,-5.633039E-05
409.1158,-5.630026E-05
409.2158,-5.626918E-05
409.3158,-5.624846E-05
409.4158,-5.621644E-05
409.5158,-5.623245E-05
409.6158,-5.618913E-05
409.7158,-5.616183E-05
409.8158,-5.615052E-05
409.9158,-5.613922E-05
410.0158,-5.611097E-05
410.1158,-5.608272E-05
410.2158,-5.605352E-05
410.3158,-5.60328E-05
410.4158,-5.602998E-05
410.5158,-5.600926E-05
410.6158,-5.596123E-05
410.7159,-5.59716E-05
410.8159,-5.595276E-05
410.9159,-5.592639E-05
411.0159,-5.589531E-05
411.1159,-5.588024E-05
411.2159,-5.586518E-05
411.3159,-5.585859E-05
411.4159,-5.582374E-05
411.5159,-5.579738E-05
411.6159,-5.579267E-05
411.7159,-5.577854E-05
411.8159,-5.574934E-05
411.9159,-5.572674E-05
412.0159,-5.570603E-05
412.1159,-5.568625E-05
412.2159,-5.568813E-05
412.3159,-5.566647E-05
412.416,-5.561656E-05
412.516,-5.56175E-05
412.616,-5.56175E-05
412.716,-5.55836E-05
412.816,-5.557041E-05
412.916,-5.554499E-05
413.016,-5.552427E-05
413.116,-5.551768E-05
413.216,-5.547719E-05
413.316,-5.544422E-05
413.416,-5.546588E-05
413.516,-5.543104E-05
413.616,-5.540938E-05
413.716,-5.540373E-05
413.816,-5.536983E-05
413.916,-5.534722E-05
414.0161,-5.535476E-05
414.1161,-5.534064E-05
414.2161,-5.527471E-05
414.3161,-5.526059E-05
414.4161,-5.524081E-05
414.5161,-5.526059E-05
414.6161,-5.525211E-05
414.7161,-5.521632E-05
414.8161,-5.517489E-05
414.9161,-5.515794E-05
415.0161,-5.515888E-05
415.1161,-5.512215E-05
415.2161,-5.510332E-05
415.3161,-5.50826E-05
415.4161,-5.506471E-05
415.5161,-5.505435E-05
415.6161,-5.503268E-05
415.7162,-5.501668E-05
415.8162,-5.500349E-05
415.9162,-5.49743E-05
416.0162,-5.495453E-05
416.1162,-5.492722E-05
416.2162,-5.494416E-05
416.3162,-5.48773E-05
416.4162,-5.486788E-05
416.5162,-5.485187E-05
416.6162,-5.485375E-05
416.7162,-5.48547E-05
416.8162,-5.481515E-05
416.9162,-5.478596E-05
417.0162,-5.478689E-05
417.1162,-5.478501E-05
417.2162,-5.472945E-05
417.3163,-5.469649E-05
417.4163,-5.46899E-05
417.5163,-5.464093E-05
417.6163,-5.464093E-05
417.7163,-5.463434E-05
417.8163,-5.460137E-05
417.9163,-5.458913E-05
418.0163,-5.456747E-05
418.1163,-5.452604E-05
418.2163,-5.453263E-05
418.3163,-5.450438E-05
418.4163,-5.449119E-05
418.5163,-5.445541E-05
418.6163,-5.447518E-05
418.7163,-5.44507E-05
418.8163,-5.440644E-05
418.9164,-5.441491E-05
419.0164,-5.440173E-05
419.1164,-5.436877E-05
419.2164,-5.43763E-05
419.3164,-5.432545E-05
419.4164,-5.42906E-05
419.5164,-5.431791E-05
419.6164,-5.427836E-05
419.7164,-5.425105E-05
419.8164,-5.425953E-05
419.9164,-5.424352E-05
420.0164,-5.421526E-05
420.1164,-5.420396E-05
420.2164,-5.416441E-05
420.3164,-5.414746E-05
420.4164,-5.413145E-05
420.5164,-5.41032E-05
420.6165,-5.40919E-05
420.7165,-5.405234E-05
420.8165,-5.406459E-05
420.9165,-5.402974E-05
421.0165,-5.400902E-05
421.1165,-5.401091E-05
421.2165,-5.395441E-05
421.3165,-5.393369E-05
421.4165,-5.393086E-05
421.5165,-5.391768E-05
421.6165,-5.390261E-05
421.7165,-5.388284E-05
421.8165,-5.385269E-05
421.9165,-5.385458E-05
422.0165,-5.384893E-05
422.1165,-5.380184E-05
422.2166,-5.378018E-05
422.3166,-5.381408E-05
422.4166,-5.375758E-05
422.5166,-5.372651E-05
422.6166,-5.372745E-05
422.7166,-5.370767E-05
422.8166,-5.368978E-05
422.9166,-5.367283E-05
423.0166,-5.365964E-05
423.1166,-5.361538E-05
423.2166,-5.364457E-05
423.3166,-5.359937E-05
423.4166,-5.358431E-05
423.5166,-5.356453E-05
423.6166,-5.352686E-05
423.7166,-5.349861E-05
423.8167,-5.350897E-05
423.9167,-5.348354E-05
424.0167,-5.34713E-05
424.1167,-5.345246E-05
424.2167,-5.345246E-05
424.3167,-5.340255E-05
424.4167,-5.339219E-05
424.5167,-5.339502E-05
424.6167,-5.336959E-05
424.7167,-5.334699E-05
424.8167,-5.330555E-05
424.9167,-5.332438E-05
425.0167,-5.332438E-05
425.1167,-5.330743E-05
425.2167,-5.326317E-05
425.3167,-5.324246E-05
425.4167,-5.324057E-05
425.5168,-5.321043E-05
425.6168,-5.320102E-05
425.7168,-5.317088E-05
425.8168,-5.314734E-05
425.9168,-5.313322E-05
426.0168,-5.312191E-05
426.1168,-5.308048E-05
426.2168,-5.308424E-05
426.3168,-5.308613E-05
426.4168,-5.303904E-05
426.5168,-5.301079E-05
426.6168,-5.30155E-05
426.7168,-5.300608E-05
426.8168,-5.299008E-05
426.9168,-5.296935E-05
427.0168,-5.29185E-05
427.1169,-5.292321E-05
427.2169,-5.29477E-05
427.3169,-5.290532E-05
427.4169,-5.289025E-05
427.5169,-5.289684E-05
427.6169,-5.287518E-05
427.7169,-5.286294E-05
427.8169,-5.283939E-05
427.9169,-5.280549E-05
428.0169,-5.278572E-05
428.1169,-5.278477E-05
428.2169,-5.274899E-05
428.3169,-5.274899E-05
428.4169,-5.273298E-05
428.5169,-5.26906E-05
428.6169,-5.268495E-05
428.7169,-5.26793E-05
428.817,-5.26567E-05
428.917,-5.264257E-05
429.017,-5.26115E-05
429.117,-5.258701E-05
429.217,-5.256912E-05
429.317,-5.258513E-05
429.417,-5.255028E-05
429.517,-5.253427E-05
429.617,-5.252957E-05
429.717,-5.24693E-05
429.817,-5.246365E-05
429.917,-5.246741E-05
430.017,-5.246082E-05
430.117,-5.243257E-05
430.217,-5.240902E-05
430.317,-5.237795E-05
430.4171,-5.23657E-05
430.5171,-5.238266E-05
430.6171,-5.23544E-05
430.7171,-5.230826E-05
430.8171,-5.229319E-05
430.9171,-5.226682E-05
431.0171,-5.225929E-05
431.1171,-5.226117E-05
431.2171,-5.223574E-05
431.3171,-5.219525E-05
431.4171,-5.220561E-05
431.5171,-5.220373E-05
431.6171,-5.216512E-05
431.7171,-5.215193E-05
431.8171,-5.212839E-05
431.9171,-5.21218E-05
432.0172,-5.214063E-05
432.1172,-5.209448E-05
432.2172,-5.205964E-05
432.3172,-5.205305E-05
432.4172,-5.206058E-05
432.5172,-5.201632E-05
432.6172,-5.203987E-05
432.7172,-5.198807E-05
432.8172,-5.196547E-05
432.9172,-5.198336E-05
433.0172,-5.19504E-05
433.1172,-5.193062E-05
433.2172,-5.193439E-05
433.3172,-5.19212E-05
433.4172,-5.189107E-05
433.5172,-5.187694E-05
433.6172,-5.185529E-05
433.7173,-5.18421E-05
433.8173,-5.183928E-05
433.9173,-5.180349E-05
434.0173,-5.17856E-05
434.1173,-5.182044E-05
434.2173,-5.18082E-05
434.3173,-5.177712E-05
434.4173,-5.175923E-05
434.5173,-5.175075E-05
434.6173,-5.172627E-05
434.7173,-5.17225E-05
434.8173,-5.168766E-05
434.9173,-5.166694E-05
435.0173,-5.165187E-05
435.1173,-5.164622E-05
435.2173,-5.161514E-05
435.3174,-5.160761E-05
435.4174,-5.161326E-05
435.5174,-5.156617E-05
435.6174,-5.157654E-05
435.7174,-5.155016E-05
435.8174,-5.153698E-05
435.9174,-5.152191E-05
436.0174,-5.150308E-05
436.1174,-5.147294E-05
436.2174,-5.147483E-05
436.3174,-5.145976E-05
436.4174,-5.14494E-05
436.5174,-5.141738E-05
436.6174,-5.142492E-05
436.7174,-5.139572E-05
436.8174,-5.136935E-05
436.9174,-5.135146E-05
437.0175,-5.135805E-05
437.1175,-5.133733E-05
437.2175,-5.13411E-05
437.3175,-5.128271E-05
437.4175,-5.129119E-05
437.5175,-5.127423E-05
437.6175,-5.12394E-05
437.7175,-5.120643E-05
437.8175,-5.124504E-05
437.9175,-5.125258E-05
438.0175,-5.119702E-05
438.1175,-5.118101E-05
438.2175,-5.116876E-05
438.3175,-5.113486E-05
438.4175,-5.115558E-05
438.5175,-5.110473E-05
438.6176,-5.107742E-05
438.7176,-5.109437E-05
438.8176,-5.107647E-05
438.9176,-5.104916E-05
439.0176,-5.102751E-05
439.1176,-5.101714E-05
439.2176,-5.099078E-05
439.3176,-5.101809E-05
439.4176,-5.096252E-05
439.5176,-5.093145E-05
439.6176,-5.094181E-05
439.7176,-5.094463E-05
439.8176,-5.090508E-05
439.9176,-5.08853E-05
440.0176,-5.088059E-05
440.1176,-5.085423E-05
440.2177,-5.08514E-05
440.3177,-5.081938E-05
440.4177,-5.081185E-05
440.5177,-5.083068E-05
440.6177,-5.081562E-05
440.7177,-5.077606E-05
440.8177,-5.075911E-05
440.9177,-5.074122E-05
441.0177,-5.073745E-05
441.1177,-5.071956E-05
441.2177,-5.070072E-05
441.3177,-5.067624E-05
441.4177,-5.067718E-05
441.5177,-5.0664E-05
441.6177,-5.063104E-05
441.7177,-5.062068E-05
441.8177,-5.061691E-05
441.9178,-5.059713E-05
442.0178,-5.056888E-05
442.1178,-5.056229E-05
442.2178,-5.054439E-05
442.3178,-5.052085E-05
442.4178,-5.052556E-05
442.5178,-5.04926E-05
442.6178,-5.049072E-05
442.7178,-5.048695E-05
442.8178,-5.046623E-05
442.9178,-5.043704E-05
443.0178,-5.04361E-05
443.1178,-5.042574E-05
443.2178,-5.039466E-05
443.3178,-5.037394E-05
443.4178,-5.036547E-05
443.5179,-5.037959E-05
443.6179,-5.032591E-05
443.7179,-5.030613E-05
443.8179,-5.03052E-05
443.9179,-5.032591E-05
444.0179,-5.02826E-05
444.1179,-5.023551E-05
444.2179,-5.02534E-05
444.3179,-5.025246E-05
444.4179,-5.022138E-05
444.5179,-5.020725E-05
444.6179,-5.019407E-05
444.7179,-5.017147E-05
444.8179,-5.016771E-05
444.9179,-5.018183E-05
445.0179,-5.013851E-05
445.118,-5.013662E-05
445.218,-5.009614E-05
445.318,-5.008577E-05
445.418,-5.008483E-05
445.518,-5.006505E-05
445.618,-5.004528E-05
445.718,-5.004622E-05
445.818,-5.003304E-05
445.918,-4.999536E-05
446.018,-4.998689E-05
446.118,-4.998407E-05
446.218,-4.995582E-05
446.318,-4.996241E-05
446.418,-4.991814E-05
446.518,-4.991343E-05
446.618,-4.992003E-05
446.718,-4.989554E-05
446.8181,-4.98946E-05
446.9181,-4.987012E-05
447.0181,-4.986164E-05
447.1181,-4.982209E-05
447.2181,-4.982962E-05
447.3181,-4.983621E-05
447.4181,-4.978159E-05
447.5181,-4.979195E-05
447.6181,-4.975522E-05
447.7181,-4.973451E-05
447.8181,-4.975805E-05
447.9181,-4.972791E-05
448.0181,-4.969025E-05
448.1181,-4.968365E-05
448.2181,-4.9678E-05
448.3181,-4.96554E-05
448.4182,-4.966294E-05
448.5182,-4.961962E-05
448.6182,-4.960925E-05
448.7182,-4.960737E-05
448.8182,-4.96036E-05
448.9182,-4.957724E-05
449.0182,-4.956594E-05
449.1182,-4.955934E-05
449.2182,-4.953768E-05
449.3182,-4.951226E-05
449.4182,-4.951508E-05
449.5182,-4.950378E-05
449.6182,-4.948495E-05
449.7182,-4.948306E-05
449.8182,-4.945858E-05
449.9182,-4.944728E-05
450.0182,-4.944163E-05
450.1183,-4.940302E-05
450.2183,-4.941149E-05
450.3183,-4.943315E-05
450.4183,-4.936629E-05
450.5183,-4.933145E-05
450.6183,-4.935216E-05
450.7183,-4.933804E-05
450.8183,-4.935122E-05
450.9183,-4.931355E-05
451.0183,-4.92401E-05
451.1183,-4.926741E-05
451.2183,-4.929471E-05
451.3183,-4.925423E-05
451.4183,-4.920902E-05
451.5183,-4.921467E-05
451.6183,-4.920713E-05
451.7184,-4.919395E-05
451.8184,-4.920148E-05
451.9184,-4.916852E-05
452.0184,-4.914216E-05
452.1184,-4.914498E-05
452.2184,-4.911673E-05
452.3184,-4.911014E-05
452.4184,-4.91318E-05
452.5184,-4.907247E-05
452.6184,-4.906211E-05
452.7184,-4.906117E-05
452.8184,-4.904233E-05
452.9184,-4.903857E-05
453.0184,-4.902162E-05
453.1184,-4.900372E-05
453.2184,-4.901314E-05
453.3185,-4.901408E-05
453.4185,-4.896417E-05
453.5185,-4.894157E-05
453.6185,-4.894439E-05
453.7185,-4.89152E-05
453.8185,-4.890579E-05
453.9185,-4.88926E-05
454.0185,-4.889542E-05
454.1185,-4.88474E-05
454.2185,-4.886906E-05
454.3185,-4.883704E-05
454.4185,-4.884834E-05
454.5185,-4.883892E-05
454.6185,-4.879937E-05
454.7185,-4.877394E-05
454.8185,-4.879089E-05
454.9185,-4.876735E-05
455.0186,-4.873251E-05
455.1186,-4.874474E-05
455.2186,-4.871179E-05
455.3186,-4.867317E-05
455.4186,-4.86826E-05
455.5186,-4.867694E-05
455.6186,-4.865905E-05
455.7186,-4.866282E-05
455.8186,-4.862515E-05
455.9186,-4.859878E-05
456.0186,-4.86016E-05
456.1186,-4.858842E-05
456.2186,-4.857994E-05
456.3186,-4.857618E-05
456.4186,-4.855922E-05
456.5186,-4.85225E-05
456.6187,-4.854228E-05
456.7187,-4.851685E-05
456.8187,-4.850178E-05
456.9187,-4.84886E-05
457.0187,-4.849424E-05
457.1187,-4.845469E-05
457.2187,-4.843774E-05
457.3187,-4.844622E-05
457.4187,-4.844433E-05
457.5187,-4.843868E-05
457.6187,-4.84029E-05
457.7187,-4.836711E-05
457.8187,-4.836429E-05
457.9187,-4.836805E-05
458.0187,-4.835016E-05
458.1187,-4.83511E-05
458.2188,-4.832568E-05
458.3188,-4.829742E-05
458.4188,-4.829836E-05
458.5188,-4.830213E-05
458.6188,-4.82833E-05
458.7188,-4.827765E-05
458.8188,-4.824092E-05
458.9188,-4.823904E-05
459.0188,-4.822585E-05
459.1188,-4.823056E-05
459.2188,-4.819289E-05
459.3188,-4.818724E-05
459.4188,-4.817311E-05
459.5188,-4.817594E-05
459.6188,-4.815051E-05
459.7188,-4.814863E-05
459.8188,-4.813545E-05
459.9189,-4.811096E-05
460.0189,-4.811284E-05
460.1189,-4.80893E-05
460.2189,-4.808647E-05
460.3189,-4.807047E-05
460.4189,-4.802997E-05
460.5189,-4.804504E-05
460.6189,-4.804504E-05
460.7189,-4.802715E-05
460.8189,-4.801114E-05
460.9189,-4.799607E-05
461.0189,-4.798665E-05
461.1189,-4.798289E-05
461.2189,-4.796217E-05
461.3189,-4.791885E-05
461.4189,-4.790943E-05
461.519,-4.793674E-05
461.619,-4.789907E-05
461.719,-4.790849E-05
461.819,-4.787553E-05
461.919,-4.78614E-05
462.019,-4.785387E-05
462.119,-4.786234E-05
462.219,-4.782656E-05
462.319,-4.782468E-05
462.419,-4.781902E-05
462.519,-4.778418E-05
462.619,-4.777853E-05
462.719,-4.776723E-05
462.819,-4.775687E-05
462.919,-4.77418E-05
463.019,-4.774275E-05
463.119,-4.770225E-05
463.2191,-4.768248E-05
463.3191,-4.771449E-05
463.4191,-4.767776E-05
463.5191,-4.765328E-05
463.6191,-4.765516E-05
463.7191,-4.762974E-05
463.8191,-4.762785E-05
463.9191,-4.764763E-05
464.0191,-4.760902E-05
464.1191,-4.757512E-05
464.2191,-4.757512E-05
464.3191,-4.75657E-05
464.4191,-4.753933E-05
464.5191,-4.752897E-05
464.6191,-4.752991E-05
464.7191,-4.752991E-05
464.8192,-4.750637E-05
464.9192,-4.750731E-05
465.0192,-4.752521E-05
465.1192,-4.750354E-05
465.2192,-4.74687E-05
465.3192,-4.743857E-05
465.4192,-4.747623E-05
465.5192,-4.745269E-05
465.6192,-4.740749E-05
465.7192,-4.741031E-05
465.8192,-4.74122E-05
465.9192,-4.737924E-05
466.0192,-4.737735E-05
466.1192,-4.735757E-05
466.2192,-4.735569E-05
466.3192,-4.734439E-05
466.4193,-4.732932E-05
466.5193,-4.730296E-05
466.6193,-4.728789E-05
466.7193,-4.730672E-05
466.8193,-4.727282E-05
466.9193,-4.726152E-05
467.0193,-4.726434E-05
467.1193,-4.722479E-05
467.2193,-4.72295E-05
467.3193,-4.724834E-05
467.4193,-4.720408E-05
467.5193,-4.718053E-05
467.6193,-4.718712E-05
467.7193,-4.719372E-05
467.8193,-4.717865E-05
467.9193,-4.715228E-05
468.0193,-4.712214E-05
468.1194,-4.713721E-05
468.2194,-4.713062E-05
468.3194,-4.711744E-05
468.4194,-4.709672E-05
468.5194,-4.709672E-05
468.6194,-4.706658E-05
468.7194,-4.70647E-05
468.8194,-4.705152E-05
468.9194,-4.706753E-05
469.0194,-4.703645E-05
469.1194,-4.701384E-05
469.2194,-4.699689E-05
469.3194,-4.699878E-05
469.4194,-4.699689E-05
469.5194,-4.695358E-05
469.6194,-4.69451E-05
469.7195,-4.698747E-05
469.8195,-4.698559E-05
469.9195,-4.695169E-05
470.0195,-4.691967E-05
470.1195,-4.692721E-05
470.2195,-4.689048E-05
470.3195,-4.689048E-05
470.4195,-4.689142E-05
470.5195,-4.687635E-05
470.6195,-4.685281E-05
470.7195,-4.684433E-05
470.8195,-4.685375E-05
470.9195,-4.686411E-05
471.0195,-4.683774E-05
471.1195,-4.678783E-05
471.2195,-4.679442E-05
471.3195,-4.679065E-05
471.4196,-4.677935E-05
471.5196,-4.676711E-05
471.6196,-4.672662E-05
471.7196,-4.671155E-05
471.8196,-4.673133E-05
471.9196,-4.671155E-05
472.0196,-4.670307E-05
472.1196,-4.670496E-05
472.2196,-4.667388E-05
472.3196,-4.664939E-05
472.4196,-4.666446E-05
472.5196,-4.665598E-05
472.6196,-4.663056E-05
472.7196,-4.661267E-05
472.8196,-4.660137E-05
472.9196,-4.660325E-05
473.0197,-4.658724E-05
473.1197,-4.656087E-05
473.2197,-4.654298E-05
473.3197,-4.654203E-05
473.4197,-4.653262E-05
473.5197,-4.650907E-05
473.6197,-4.650343E-05
473.7197,-4.649024E-05
473.8197,-4.644881E-05
473.9197,-4.645163E-05
474.0197,-4.648177E-05
474.1197,-4.644975E-05
474.2197,-4.642056E-05
474.3197,-4.643186E-05
474.4197,-4.638571E-05
474.5197,-4.639042E-05
474.6198,-4.64102E-05
474.7198,-4.638665E-05
474.8198,-4.63584E-05
474.9198,-4.636405E-05
475.0198,-4.63471E-05
475.1198,-4.63245E-05
475.2198,-4.635369E-05
475.3198,-4.630378E-05
475.4198,-4.627082E-05
475.5198,-4.630849E-05
475.6198,-4.631884E-05
475.7198,-4.627458E-05
475.8198,-4.626893E-05
475.9198,-4.623692E-05
476.0198,-4.623127E-05
476.1198,-4.626517E-05
476.2198,-4.622373E-05
476.3199,-4.622844E-05
476.4199,-4.623127E-05
476.5199,-4.619171E-05
476.6199,-4.618136E-05
476.7199,-4.616252E-05
476.8199,-4.615875E-05
476.9199,-4.61644E-05
477.0199,-4.617382E-05
477.1199,-4.615499E-05
477.2199,-4.610695E-05
477.3199,-4.61192E-05
477.4199,-4.610884E-05
477.5199,-4.609942E-05
477.6199,-4.609942E-05
477.7199,-4.608907E-05
477.8199,-4.60448E-05
477.92,-4.604857E-05
478.02,-4.606175E-05
478.12,-4.602126E-05
478.22,-4.601467E-05
478.32,-4.600431E-05
478.42,-4.597135E-05
478.52,-4.600619E-05
478.62,-4.598453E-05
478.72,-4.59478E-05
478.82,-4.59318E-05
478.92,-4.594498E-05
479.02,-4.593839E-05
479.12,-4.592049E-05
479.22,-4.588376E-05
479.32,-4.586776E-05
479.42,-4.589884E-05
479.5201,-4.587529E-05
479.6201,-4.583385E-05
479.7201,-4.584233E-05
479.8201,-4.581314E-05
479.9201,-4.582161E-05
480.0201,-4.582067E-05
480.1201,-4.578677E-05
480.2201,-4.575852E-05
480.3201,-4.576228E-05
480.4201,-4.576605E-05
480.5201,-4.571896E-05
480.6201,-4.573497E-05
480.7201,-4.571519E-05
480.8201,-4.569542E-05
480.9201,-4.570484E-05
481.0201,-4.568412E-05
481.1201,-4.568035E-05
481.2202,-4.568977E-05
481.3202,-4.56634E-05
481.4202,-4.56295E-05
481.5202,-4.56295E-05
481.6202,-4.56182E-05
481.7202,-4.561161E-05
481.8202,-4.562668E-05
481.9202,-4.559277E-05
482.0202,-4.556358E-05
482.1202,-4.558618E-05
482.2202,-4.556546E-05
482.3202,-4.554569E-05
482.4202,-4.552779E-05
482.5202,-4.55212E-05
482.6202,-4.550237E-05
482.7202,-4.552308E-05
482.8203,-4.550237E-05
482.9203,-4.546941E-05
483.0203,-4.546941E-05
483.1203,-4.547317E-05
483.2203,-4.546093E-05
483.3203,-4.545622E-05
483.4203,-4.542608E-05
483.5203,-4.541478E-05
483.6203,-4.54355E-05
483.7203,-4.542043E-05
483.8203,-4.538182E-05
483.9203,-4.536299E-05
484.0203,-4.537806E-05
484.1203,-4.533473E-05
484.2203,-4.534792E-05
484.3203,-4.536299E-05
484.4203,-4.533285E-05
484.5204,-4.531402E-05
484.6204,-4.530837E-05
484.7204,-4.527635E-05
484.8204,-4.528294E-05
484.9204,-4.528577E-05
485.0204,-4.526882E-05
485.1204,-4.523679E-05
485.2204,-4.524716E-05
485.3204,-4.522832E-05
485.4204,-4.523491E-05
485.5204,-4.523209E-05
485.6204,-4.518971E-05
485.7204,-4.517465E-05
485.8204,-4.519442E-05
485.9204,-4.519536E-05
486.0204,-4.518123E-05
486.1205,-4.517182E-05
486.2205,-4.515015E-05
486.3205,-4.514922E-05
486.4205,-4.514357E-05
486.5205,-4.513227E-05
486.6205,-4.511531E-05
486.7205,-4.510589E-05
486.8205,-4.508706E-05
486.9205,-4.506917E-05
487.0205,-4.507293E-05
487.1205,-4.507105E-05
487.2205,-4.505222E-05
487.3205,-4.503621E-05
487.4205,-4.503621E-05
487.5205,-4.500325E-05
487.6205,-4.502397E-05
487.7206,-4.500325E-05
487.8206,-4.500325E-05
487.9206,-4.499007E-05
488.0206,-4.496558E-05
488.1206,-4.496087E-05
488.2206,-4.499195E-05
488.3206,-4.497029E-05
488.4206,-4.495711E-05
488.5206,-4.492791E-05
488.6206,-4.493356E-05
488.7206,-4.490813E-05
488.8206,-4.492791E-05
488.9206,-4.489589E-05
489.0206,-4.49006E-05
489.1206,-4.489307E-05
489.2206,-4.484786E-05
489.3206,-4.487329E-05
489.4207,-4.486105E-05
489.5207,-4.484221E-05
489.6207,-4.48488E-05
489.7207,-4.48328E-05
489.8207,-4.482808E-05
489.9207,-4.480171E-05
490.0207,-4.481961E-05
490.1207,-4.47923E-05
490.2207,-4.4781E-05
490.3207,-4.478476E-05
490.4207,-4.477064E-05
490.5207,-4.476499E-05
490.6207,-4.476876E-05
490.7207,-4.476311E-05
490.8207,-4.471885E-05
490.9207,-4.473014E-05
491.0208,-4.474521E-05
491.1208,-4.469059E-05
491.2208,-4.470754E-05
491.3208,-4.470001E-05
491.4208,-4.469531E-05
491.5208,-4.469154E-05
491.6208,-4.466988E-05
491.7208,-4.466234E-05
491.8208,-4.46727E-05
491.9208,-4.464727E-05
492.0208,-4.462938E-05
492.1208,-4.464162E-05
492.2208,-4.461431E-05
492.3208,-4.459924E-05
492.4208,-4.462279E-05
492.5208,-4.462091E-05
492.6208,-4.458041E-05
492.7209,-4.457664E-05
492.8209,-4.457193E-05
492.9209,-4.455687E-05
493.0209,-4.456911E-05
493.1209,-4.455028E-05
493.2209,-4.452579E-05
493.3209,-4.452767E-05
493.4209,-4.452861E-05
493.5209,-4.451731E-05
493.6209,-4.44853E-05
493.7209,-4.448624E-05
493.8209,-4.450413E-05
493.9209,-4.449E-05
494.0209,-4.44787E-05
494.1209,-4.445987E-05
494.2209,-4.446269E-05
494.321,-4.445045E-05
494.421,-4.443256E-05
494.521,-4.443162E-05
494.621,-4.444197E-05
494.721,-4.440431E-05
494.821,-4.439583E-05
494.921,-4.440054E-05
495.021,-4.439772E-05
495.121,-4.438924E-05
495.221,-4.439395E-05
495.321,-4.434215E-05
495.421,-4.436664E-05
495.521,-4.4377E-05
495.621,-4.434404E-05
495.721,-4.433274E-05
495.821,-4.432615E-05
495.9211,-4.43139E-05
496.0211,-4.432991E-05
496.1211,-4.431955E-05
496.2211,-4.429412E-05
496.3211,-4.430731E-05
496.4211,-4.430542E-05
496.5211,-4.428282E-05
496.6211,-4.428282E-05
496.7211,-4.428754E-05
496.8211,-4.42461E-05
496.9211,-4.421785E-05
497.0211,-4.423856E-05
497.1211,-4.42574E-05
497.2211,-4.42395E-05
497.3211,-4.421973E-05
497.4211,-4.419619E-05
497.5211,-4.417453E-05
497.6212,-4.421502E-05
497.7212,-4.420748E-05
497.8212,-4.416511E-05
497.9212,-4.41717E-05
498.0212,-4.413591E-05
498.1212,-4.415192E-05
498.2212,-4.413968E-05
498.3212,-4.412932E-05
498.4212,-4.410578E-05
498.5212,-4.409542E-05
498.6212,-4.408318E-05
498.7212,-4.408789E-05
498.8212,-4.409353E-05
498.9212,-4.406623E-05
499.0212,-4.405116E-05
499.1212,-4.406434E-05
499.2213,-4.404268E-05
499.3213,-4.403232E-05
499.4213,-4.403892E-05
499.5213,-4.402761E-05
499.6213,-4.401537E-05
499.7213,-4.400596E-05
499.8213,-4.399654E-05
499.9213,-4.39843E-05
500.0213,-4.398147E-05
500.1213,-4.396358E-05
500.2213,-4.394285E-05
500.3213,-4.398901E-05
500.4213,-4.395228E-05
500.5213,-4.393438E-05
500.6213,-4.393344E-05
500.7213,-4.393062E-05
500.8214,-4.390801E-05
500.9214,-4.393156E-05
501.0214,-4.386658E-05
501.1214,-4.387882E-05
501.2214,-4.392026E-05
501.3214,-4.390142E-05
501.4214,-4.384869E-05
501.5214,-4.385622E-05
501.6214,-4.386752E-05
501.7214,-4.385151E-05
501.8214,-4.384397E-05
501.9214,-4.383833E-05
502.0214,-4.37903E-05
502.1214,-4.381196E-05
502.2214,-4.381196E-05
502.3214,-4.376958E-05
502.4214,-4.378088E-05
502.5215,-4.376958E-05
502.6215,-4.374415E-05
502.7215,-4.375922E-05
502.8215,-4.375734E-05
502.9215,-4.372061E-05
503.0215,-4.37046E-05
503.1215,-4.373003E-05
503.2215,-4.371684E-05
503.3215,-4.370272E-05
503.4215,-4.367823E-05
503.5215,-4.365469E-05
503.6215,-4.367541E-05
503.7215,-4.367823E-05
503.8215,-4.364527E-05
503.9215,-4.363774E-05
504.0215,-4.362926E-05
504.1216,-4.361137E-05
504.2216,-4.362644E-05
504.3216,-4.362644E-05
504.4216,-4.356899E-05
504.5216,-4.358406E-05
504.6216,-4.35737E-05
504.7216,-4.356899E-05
504.8216,-4.355581E-05
504.9216,-4.354639E-05
505.0216,-4.352379E-05
505.1216,-4.353132E-05
505.2216,-4.352473E-05
505.3216,-4.350966E-05
505.4216,-4.35219E-05
505.5216,-4.35172E-05
505.6216,-4.348894E-05
505.7216,-4.348518E-05
505.8217,-4.34654E-05
505.9217,-4.345975E-05
506.0217,-4.347576E-05
506.1217,-4.347199E-05
506.2217,-4.343432E-05
506.3217,-4.343338E-05
506.4217,-4.344657E-05
506.5217,-4.343809E-05
506.6217,-4.340984E-05
506.7217,-4.340419E-05
506.8217,-4.338441E-05
506.9217,-4.340231E-05
507.0217,-4.341078E-05
507.1217,-4.337594E-05
507.2217,-4.335899E-05
507.3217,-4.336369E-05
507.4218,-4.334298E-05
507.5218,-4.334015E-05
507.6218,-4.334769E-05
507.7218,-4.33232E-05
507.8218,-4.331096E-05
507.9218,-4.334298E-05
508.0218,-4.331378E-05
508.1218,-4.3278E-05
508.2218,-4.32827E-05
508.3218,-4.330154E-05
508.4218,-4.329306E-05
508.5218,-4.3278E-05
508.6218,-4.327423E-05
508.7218,-4.325822E-05
508.8218,-4.32667E-05
508.9218,-4.326105E-05
509.0219,-4.322526E-05
509.1219,-4.322714E-05
509.2219,-4.319136E-05
509.3219,-4.320642E-05
509.4219,-4.322149E-05
509.5219,-4.318288E-05
509.6219,-4.316781E-05
509.7219,-4.316405E-05
509.8219,-4.316875E-05
509.9219,-4.314898E-05
510.0219,-4.315651E-05
510.1219,-4.312732E-05
510.2219,-4.31292E-05
510.3219,-4.313203E-05
510.4219,-4.309624E-05
510.5219,-4.309436E-05
510.6219,-4.312261E-05
510.722,-4.310283E-05
510.822,-4.309247E-05
510.922,-4.308682E-05
511.022,-4.310189E-05
511.122,-4.306611E-05
511.222,-4.306611E-05
511.322,-4.304445E-05
511.422,-4.302373E-05
511.522,-4.305198E-05
511.622,-4.301996E-05
511.722,-4.299924E-05
511.822,-4.300112E-05
511.922,-4.2987E-05
512.022,-4.296251E-05
512.122,-4.299454E-05
512.222,-4.297099E-05
512.322,-4.293992E-05
512.4219,-4.294462E-05
512.5219,-4.295686E-05
512.6219,-4.292579E-05
512.7219,-4.292673E-05
512.8218,-4.290319E-05
512.9218,-4.293615E-05
513.0218,-4.294462E-05
513.1218,-4.291072E-05
513.2217,-4.286928E-05
513.3217,-4.288718E-05
513.4217,-4.289094E-05
513.5217,-4.287305E-05
513.6216,-4.287493E-05
513.7216,-4.285893E-05
513.8216,-4.283538E-05
513.9216,-4.285233E-05
514.0215,-4.283256E-05
514.1215,-4.280148E-05
514.2215,-4.281843E-05
514.3215,-4.280996E-05
514.4214,-4.281372E-05
514.5214,-4.281937E-05
514.6214,-4.276664E-05
514.7214,-4.276098E-05
514.8214,-4.276381E-05
514.9213,-4.275722E-05
515.0213,-4.276193E-05
515.1213,-4.274121E-05
515.2213,-4.274592E-05
515.3212,-4.272237E-05
515.4212,-4.271767E-05
515.5212,-4.270448E-05
515.6212,-4.271108E-05
515.7211,-4.271578E-05
515.8211,-4.268941E-05
515.9211,-4.266116E-05
516.0211,-4.26621E-05
516.121,-4.264516E-05
516.221,-4.266116E-05
516.321,-4.266964E-05
516.421,-4.26282E-05
516.5209,-4.260466E-05
516.6209,-4.262726E-05
516.7209,-4.265739E-05
516.8209,-4.261313E-05
516.9208,-4.259147E-05
517.0208,-4.25764E-05
517.1208,-4.25651E-05
517.2208,-4.258017E-05
517.3207,-4.257829E-05
517.4207,-4.253309E-05
517.5207,-4.254439E-05
517.6207,-4.255286E-05
517.7206,-4.253121E-05
517.8206,-4.252461E-05
517.9206,-4.252367E-05
518.0206,-4.251237E-05
518.1205,-4.251802E-05
518.2205,-4.250672E-05
518.3205,-4.248223E-05
518.4205,-4.250672E-05
518.5204,-4.25199E-05
518.6204,-4.245774E-05
518.7204,-4.243985E-05
518.8204,-4.248412E-05
518.9203,-4.246246E-05
519.0203,-4.244268E-05
519.1203,-4.244174E-05
519.2203,-4.24182E-05
519.3203,-4.243232E-05
519.4202,-4.24342E-05
519.5202,-4.240219E-05
519.6202,-4.238053E-05
519.7202,-4.239654E-05
519.8201,-4.237111E-05
519.9201,-4.237488E-05
520.0201,-4.236263E-05
520.1201,-4.236263E-05
520.22,-4.234097E-05
520.32,-4.235039E-05
520.42,-4.234568E-05
520.52,-4.231932E-05
520.6199,-4.23099E-05
520.7199,-4.232402E-05
520.8199,-4.231555E-05
520.9199,-4.229859E-05
521.0198,-4.230142E-05
521.1198,-4.228541E-05
521.2198,-4.229012E-05
521.3198,-4.227976E-05
521.4197,-4.224021E-05
521.5197,-4.226752E-05
521.6197,-4.227506E-05
521.7197,-4.222985E-05
521.8196,-4.221666E-05
521.9196,-4.223362E-05
522.0196,-4.222514E-05
522.1196,-4.221761E-05
522.2195,-4.22129E-05
522.3195,-4.218276E-05
522.4195,-4.219407E-05
522.5195,-4.221666E-05
522.6194,-4.216204E-05
522.7194,-4.217052E-05
522.8194,-4.218747E-05
522.9194,-4.216958E-05
523.0193,-4.216582E-05
523.1193,-4.215922E-05
523.2193,-4.212908E-05
523.3193,-4.211778E-05
523.4193,-4.214132E-05
523.5192,-4.212532E-05
523.6192,-4.210366E-05
523.7192,-4.210366E-05
523.8192,-4.207258E-05
523.9191,-4.209706E-05
524.0191,-4.208953E-05
524.1191,-4.208482E-05
524.2191,-4.205845E-05
524.319,-4.205657E-05
524.419,-4.204809E-05
524.519,-4.205469E-05
524.619,-4.205845E-05
524.7189,-4.202738E-05
524.8189,-4.200571E-05
524.9189,-4.204339E-05
525.0189,-4.202549E-05
525.1188,-4.200289E-05
525.2188,-4.199065E-05
525.3188,-4.197935E-05
525.4188,-4.197087E-05
525.5187,-4.200383E-05
525.6187,-4.198123E-05
525.7187,-4.195486E-05
525.8187,-4.195863E-05
525.9186,-4.195392E-05
526.0186,-4.195486E-05
526.1186,-4.194921E-05
526.2186,-4.192755E-05
526.3185,-4.19106E-05
526.4185,-4.191531E-05
526.5185,-4.191625E-05
526.6185,-4.191437E-05
526.7184,-4.190872E-05
526.8184,-4.18654E-05
526.9184,-4.186163E-05
527.0184,-4.190872E-05
527.1183,-4.189648E-05
527.2183,-4.187387E-05
527.3183,-4.185409E-05
527.4183,-4.185409E-05
527.5182,-4.182585E-05
527.6182,-4.184845E-05
527.7182,-4.184091E-05
527.8182,-4.182396E-05
527.9182,-4.182396E-05
528.0181,-4.181643E-05
528.1181,-4.18136E-05
528.2181,-4.181831E-05
528.3181,-4.179571E-05
528.418,-4.180984E-05
528.518,-4.179006E-05
528.618,-4.17684E-05
528.718,-4.175521E-05
528.8179,-4.179382E-05
528.9179,-4.176369E-05
529.0179,-4.175427E-05
529.1179,-4.173262E-05
529.2178,-4.17345E-05
529.3178,-4.17458E-05
529.4178,-4.171661E-05
529.5178,-4.169683E-05
529.6177,-4.17006E-05
529.7177,-4.17232E-05
529.8177,-4.170342E-05
529.9177,-4.16714E-05
530.0176,-4.168082E-05
530.1176,-4.167235E-05
530.2176,-4.165539E-05
530.3176,-4.167611E-05
530.4175,-4.165257E-05
530.5175,-4.163562E-05
530.6175,-4.16667E-05
530.7175,-4.164503E-05
530.8174,-4.164786E-05
530.9174,-4.162808E-05
531.0174,-4.162055E-05
531.1174,-4.161019E-05
531.2173,-4.160266E-05
531.3173,-4.15923E-05
531.4173,-4.158947E-05
531.5173,-4.161961E-05
531.6172,-4.160077E-05
531.7172,-4.157911E-05
531.8172,-4.156216E-05
531.9172,-4.158194E-05
532.0172,-4.157441E-05
532.1171,-4.154427E-05
532.2171,-4.15471E-05
532.3171,-4.155934E-05
532.4171,-4.155745E-05
532.517,-4.152637E-05
532.617,-4.150848E-05
532.717,-4.154521E-05
532.817,-4.153109E-05
532.9169,-4.150378E-05
533.0169,-4.151131E-05
533.1169,-4.151507E-05
533.2169,-4.148494E-05
533.3168,-4.147458E-05
533.4168,-4.147081E-05
533.5168,-4.147552E-05
533.6168,-4.14727E-05
533.7167,-4.146045E-05
533.8167,-4.142279E-05
533.9167,-4.143503E-05
534.0167,-4.145104E-05
534.1166,-4.139642E-05
534.2166,-4.140018E-05
534.3166,-4.14162E-05
534.4166,-4.142467E-05
534.5165,-4.140583E-05
534.6165,-4.140678E-05
534.7165,-4.140207E-05
534.8165,-4.137193E-05
534.9164,-4.139642E-05
535.0164,-4.138417E-05
535.1164,-4.135404E-05
535.2164,-4.13531E-05
535.3163,-4.134651E-05
535.4163,-4.134651E-05
535.5163,-4.135027E-05
535.6163,-4.132108E-05
535.7162,-4.130036E-05
535.8162,-4.131731E-05
535.9162,-4.130978E-05
536.0162,-4.129848E-05
536.1161,-4.131919E-05
536.2161,-4.125045E-05
536.3161,-4.127117E-05
536.4161,-4.130695E-05
536.5161,-4.128059E-05
536.616,-4.125798E-05
536.716,-4.125516E-05
536.816,-4.125233E-05
536.916,-4.124856E-05
537.0159,-4.126269E-05
537.1159,-4.122125E-05
537.2159,-4.119489E-05
537.3159,-4.122597E-05
537.4158,-4.120054E-05
537.5158,-4.119018E-05
537.6158,-4.119112E-05
537.7158,-4.116286E-05
537.8157,-4.118264E-05
537.9157,-4.118453E-05
538.0157,-4.114874E-05
538.1157,-4.115533E-05
538.2156,-4.115628E-05
538.3156,-4.115251E-05
538.4156,-4.113273E-05
538.5156,-4.113273E-05
538.6155,-4.11073E-05
538.7155,-4.110166E-05
538.8155,-4.112237E-05
538.9155,-4.111672E-05
539.0154,-4.109789E-05
539.1154,-4.109695E-05
539.2154,-4.105551E-05
539.3154,-4.108188E-05
539.4153,-4.11026E-05
539.5153,-4.10687E-05
539.6153,-4.104798E-05
539.7153,-4.105645E-05
539.8152,-4.10508E-05
539.9152,-4.104421E-05
540.0152,-4.104515E-05
540.1152,-4.103009E-05
540.2151,-4.102443E-05
540.3151,-4.105834E-05
540.4151,-4.103668E-05
540.5151,-4.103197E-05
540.6151,-4.102632E-05
540.715,-4.101878E-05
540.815,-4.100371E-05
540.915,-4.104609E-05
541.015,-4.099524E-05
541.1149,-4.09717E-05
541.2149,-4.098205E-05
541.3149,-4.099901E-05
541.4149,-4.098582E-05
541.5148,-4.099995E-05
541.6148,-4.097452E-05
541.7148,-4.09425E-05
541.8148,-4.094721E-05
541.9147,-4.098677E-05
542.0147,-4.095192E-05
542.1147,-4.095004E-05
542.2147,-4.091048E-05
542.3146,-4.093967E-05
542.4146,-4.095569E-05
542.5146,-4.094721E-05
542.6146,-4.090389E-05
542.7145,-4.090766E-05
542.8145,-4.09312E-05
542.9145,-4.090013E-05
543.0145,-4.092649E-05
543.1144,-4.085586E-05
543.2144,-4.087093E-05
543.3144,-4.090578E-05
543.4144,-4.090013E-05
543.5143,-4.084739E-05
543.6143,-4.086057E-05
543.7143,-4.086057E-05
543.8143,-4.085021E-05
543.9142,-4.085775E-05
544.0142,-4.084833E-05
544.1142,-4.082573E-05
544.2142,-4.083326E-05
544.3141,-4.083044E-05
544.4141,-4.081254E-05
544.5141,-4.082573E-05
544.6141,-4.083797E-05
544.7141,-4.080689E-05
544.814,-4.081914E-05
544.914,-4.081819E-05
545.014,-4.078429E-05
545.114,-4.080972E-05
545.2139,-4.080407E-05
545.3139,-4.078617E-05
545.4139,-4.077864E-05
545.5139,-4.078429E-05
545.6138,-4.075321E-05
545.7138,-4.074945E-05
545.8138,-4.07664E-05
545.9138,-4.074663E-05
546.0137,-4.074851E-05
546.1137,-4.074474E-05
546.2137,-4.072873E-05
546.3137,-4.071648E-05
546.4136,-4.070047E-05
546.5136,-4.070801E-05
546.6136,-4.071178E-05
546.7136,-4.0692E-05
546.8135,-4.067411E-05
546.9135,-4.067882E-05
547.0135,-4.070047E-05
547.1135,-4.066564E-05
547.2134,-4.064397E-05
547.3134,-4.064586E-05
547.4134,-4.064021E-05
547.5134,-4.064491E-05
547.6133,-4.064962E-05
547.7133,-4.05837E-05
547.8133,-4.061478E-05
547.9133,-4.064115E-05
548.0132,-4.061007E-05
548.1132,-4.058935E-05
548.2132,-4.057994E-05
548.3132,-4.058276E-05
548.4131,-4.059124E-05
548.5131,-4.060254E-05
548.6131,-4.05611E-05
548.7131,-4.056204E-05
548.813,-4.058935E-05
548.913,-4.056016E-05
549.013,-4.054603E-05
549.113,-4.054321E-05
549.213,-4.053473E-05
549.3129,-4.053473E-05
549.4129,-4.053473E-05
549.5129,-4.050742E-05
549.6129,-4.05159E-05
549.7128,-4.052155E-05
549.8128,-4.050554E-05
549.9128,-4.049047E-05
550.0128,-4.049706E-05
550.1127,-4.049989E-05
550.2127,-4.049424E-05
550.3127,-4.049612E-05
550.4127,-4.045092E-05
550.5126,-4.044809E-05
550.6126,-4.048576E-05
550.7126,-4.047258E-05
550.8126,-4.044715E-05
550.9125,-4.043397E-05
551.0125,-4.041984E-05
551.1125,-4.043208E-05
551.2125,-4.045751E-05
551.3124,-4.041325E-05
551.4124,-4.042549E-05
551.5124,-4.041231E-05
551.6124,-4.040571E-05
551.7123,-4.039724E-05
551.8123,-4.041702E-05
551.9123,-4.040854E-05
552.0123,-4.034639E-05
552.1122,-4.039818E-05
552.2122,-4.038594E-05
552.3122,-4.035204E-05
552.4122,-4.036051E-05
552.5121,-4.035674E-05
552.6121,-4.034639E-05
552.7121,-4.037276E-05
552.8121,-4.035486E-05
552.912,-4.033885E-05
553.012,-4.036145E-05
553.112,-4.034262E-05
553.212,-4.032849E-05
553.312,-4.032661E-05
553.4119,-4.030683E-05
553.5119,-4.030589E-05
553.6119,-4.033414E-05
553.7119,-4.031719E-05
553.8118,-4.029459E-05
553.9118,-4.027858E-05
554.0118,-4.029742E-05
554.1118,-4.028706E-05
554.2117,-4.031343E-05
554.3117,-4.027387E-05
554.4117,-4.024374E-05
554.5117,-4.027199E-05
554.6116,-4.029176E-05
554.7116,-4.026069E-05
554.8116,-4.02541E-05
554.9116,-4.024656E-05
555.0115,-4.023903E-05
555.1115,-4.023809E-05
555.2115,-4.024656E-05
555.3115,-4.020607E-05
555.4114,-4.021643E-05
555.5114,-4.020042E-05
555.6114,-4.02362E-05
555.7114,-4.024844E-05
555.8113,-4.020889E-05
555.9113,-4.018441E-05
556.0113,-4.02023E-05
556.1113,-4.020607E-05
556.2112,-4.020513E-05
556.3112,-4.02023E-05
556.4112,-4.018441E-05
556.5112,-4.014674E-05
556.6111,-4.018252E-05
556.7111,-4.017217E-05
556.8111,-4.01458E-05
556.9111,-4.015145E-05
557.011,-4.017593E-05
557.111,-4.014109E-05
557.211,-4.014956E-05
557.311,-4.010436E-05
557.4109,-4.01053E-05
557.5109,-4.012696E-05
557.6109,-4.011755E-05
557.7109,-4.010436E-05
557.8109,-4.011661E-05
557.9108,-4.011755E-05
558.0108,-4.011001E-05
558.1108,-4.010718E-05
558.2108,-4.009024E-05
558.3107,-4.008082E-05
558.4107,-4.008741E-05
558.5107,-4.009212E-05
558.6107,-4.007046E-05
558.7106,-4.005539E-05
558.8106,-4.009871E-05
558.9106,-4.008082E-05
559.0106,-4.002997E-05
559.1105,-4.005822E-05
559.2105,-4.00488E-05
559.3105,-4.003185E-05
559.4105,-4.003844E-05
559.5104,-4.001113E-05
559.6104,-4.000736E-05
559.7104,-4.001867E-05
559.8104,-4.00036E-05
559.9103,-4.000925E-05
560.0103,-4.002055E-05
560.1103,-3.998099E-05
560.2103,-3.997629E-05
560.3102,-3.998853E-05
560.4102,-3.998099E-05
560.5102,-3.996499E-05
560.6102,-3.996216E-05
560.7101,-3.995463E-05
560.8101,-3.994332E-05
560.9101,-3.995556E-05
561.0101,-3.994898E-05
561.11,-3.99518E-05
561.21,-3.993956E-05
561.31,-3.990754E-05
561.41,-3.993203E-05
561.5099,-3.993297E-05
561.6099,-3.989624E-05
561.7099,-3.99066E-05
561.8099,-3.991602E-05
561.9099,-3.990566E-05
562.0098,-3.989341E-05
562.1098,-3.989812E-05
562.2098,-3.985104E-05
562.3098,-3.986705E-05
562.4097,-3.990095E-05
562.5097,-3.98614E-05
562.6097,-3.984256E-05
562.7097,-3.986516E-05
562.8096,-3.986516E-05
562.9096,-3.986799E-05
563.0096,-3.986799E-05
563.1096,-3.983126E-05
563.2095,-3.981525E-05
563.3095,-3.985009E-05
563.4095,-3.982467E-05
563.5095,-3.981996E-05
563.6094,-3.982467E-05
563.7094,-3.979265E-05
563.8094,-3.981336E-05
563.9094,-3.980583E-05
564.0093,-3.9787E-05
564.1093,-3.97983E-05
564.2093,-3.981525E-05
564.3093,-3.978417E-05
564.4092,-3.975875E-05
564.5092,-3.980301E-05
564.6092,-3.978794E-05
564.7092,-3.97691E-05
564.8091,-3.97983E-05
564.9091,-3.975404E-05
565.0091,-3.976722E-05
565.1091,-3.980018E-05
565.209,-3.975404E-05
565.309,-3.975215E-05
565.409,-3.976817E-05
565.509,-3.976722E-05
565.6089,-3.97239E-05
565.7089,-3.974839E-05
565.8089,-3.974368E-05
565.9089,-3.967964E-05
566.0089,-3.971825E-05
566.1088,-3.972955E-05
566.2088,-3.967587E-05
566.3088,-3.967022E-05
566.4088,-3.970506E-05
566.5087,-3.970224E-05
566.6087,-3.969848E-05
566.7087,-3.965139E-05
566.8087,-3.966834E-05
566.9086,-3.967399E-05
567.0086,-3.966175E-05
567.1086,-3.962879E-05
567.2086,-3.967399E-05
567.3085,-3.964574E-05
567.4085,-3.961937E-05
567.5085,-3.963538E-05
567.6085,-3.966552E-05
567.7084,-3.965986E-05
567.8084,-3.962408E-05
567.9084,-3.962502E-05
568.0084,-3.961466E-05
568.1083,-3.961466E-05
568.2083,-3.963067E-05
568.3083,-3.960807E-05
568.4083,-3.957417E-05
568.5082,-3.962502E-05
568.6082,-3.960148E-05
568.7082,-3.957511E-05
568.8082,-3.958076E-05
568.9081,-3.960336E-05
569.0081,-3.959959E-05
569.1081,-3.957511E-05
569.2081,-3.958359E-05
569.308,-3.956569E-05
569.408,-3.95817E-05
569.508,-3.95591E-05
569.608,-3.954121E-05
569.7079,-3.95591E-05
569.8079,-3.95591E-05
569.9079,-3.953933E-05
570.0079,-3.954968E-05
570.1078,-3.955533E-05
570.2078,-3.953367E-05
570.3078,-3.951484E-05
570.4078,-3.951484E-05
570.5078,-3.950448E-05
570.6077,-3.95252E-05
570.7077,-3.953179E-05
570.8077,-3.949883E-05
570.9077,-3.949317E-05
571.0076,-3.95073E-05
571.1076,-3.950353E-05
571.2076,-3.951013E-05
571.3076,-3.947622E-05
571.4075,-3.951013E-05
571.5075,-3.949035E-05
571.6075,-3.947622E-05
571.7075,-3.94734E-05
571.8074,-3.947434E-05
571.9074,-3.947999E-05
572.0074,-3.948847E-05
572.1074,-3.946022E-05
572.2073,-3.947622E-05
572.3073,-3.947434E-05
572.4073,-3.947057E-05
572.5073,-3.946681E-05
572.6072,-3.946775E-05
572.7072,-3.945457E-05
572.8072,-3.948564E-05
572.9072,-3.946022E-05
573.0071,-3.942726E-05
573.1071,-3.946022E-05
573.2071,-3.944703E-05
573.3071,-3.94103E-05
573.407,-3.942632E-05
573.507,-3.941972E-05
573.607,-3.940089E-05
573.707,-3.941407E-05
573.8069,-3.938676E-05
573.9069,-3.939524E-05
574.0069,-3.940183E-05
574.1069,-3.94103E-05
574.2068,-3.939147E-05
574.3068,-3.938205E-05
574.4068,-3.937358E-05
574.5068,-3.936416E-05
574.6068,-3.936887E-05
574.7067,-3.936416E-05
574.8067,-3.933779E-05
574.9067,-3.935003E-05
575.0067,-3.932555E-05
575.1066,-3.937828E-05
575.2066,-3.939995E-05
575.3066,-3.934156E-05
575.4066,-3.931896E-05
575.5065,-3.937358E-05
575.6065,-3.936604E-05
575.7065,-3.932084E-05
575.8065,-3.933308E-05
575.9064,-3.932932E-05
576.0064,-3.93312E-05
576.1064,-3.933214E-05
576.2064,-3.930295E-05
576.3063,-3.928035E-05
576.4063,-3.930107E-05
576.5063,-3.930577E-05
576.6063,-3.930201E-05
576.7062,-3.928317E-05
576.8062,-3.929164E-05
576.9062,-3.928882E-05
577.0062,-3.929824E-05
577.1061,-3.926245E-05
577.2061,-3.927281E-05
577.3061,-3.927941E-05
577.4061,-3.925115E-05
577.506,-3.927093E-05
577.606,-3.924833E-05
577.706,-3.925303E-05
577.806,-3.924268E-05
577.9059,-3.925303E-05
578.0059,-3.92634E-05
578.1059,-3.923891E-05
578.2059,-3.923138E-05
578.3058,-3.923608E-05
578.4058,-3.922667E-05
578.5058,-3.92342E-05
578.6058,-3.920124E-05
578.7057,-3.920407E-05
578.8057,-3.920407E-05
578.9057,-3.92229E-05
579.0057,-3.920407E-05
579.1057,-3.919182E-05
579.2056,-3.919559E-05
579.3056,-3.915981E-05
579.4056,-3.918052E-05
579.5056,-3.918429E-05
579.6055,-3.917393E-05
579.7055,-3.91664E-05
579.8055,-3.915509E-05
579.9055,-3.91325E-05
580.0054,-3.914191E-05
580.1054,-3.915227E-05
580.2054,-3.914474E-05
580.3054,-3.913156E-05
580.4053,-3.914944E-05
580.5053,-3.911366E-05
580.6053,-3.910142E-05
580.7053,-3.914191E-05
580.8052,-3.912214E-05
580.9052,-3.911931E-05
581.0052,-3.911178E-05
581.1052,-3.9092E-05
581.2051,-3.911272E-05
581.3051,-3.913721E-05
581.4051,-3.909294E-05
581.5051,-3.908352E-05
581.605,-3.908352E-05
581.705,-3.908635E-05
581.805,-3.908258E-05
581.905,-3.910801E-05
582.0049,-3.907411E-05
582.1049,-3.90807E-05
582.2049,-3.908352E-05
582.3049,-3.905999E-05
582.4048,-3.906375E-05
582.5048,-3.909012E-05
582.6048,-3.906281E-05
582.7048,-3.905245E-05
582.8047,-3.904774E-05
582.9047,-3.904209E-05
583.0047,-3.903832E-05
583.1047,-3.905339E-05
583.2047,-3.903079E-05
583.3046,-3.902043E-05
583.4046,-3.904209E-05
583.5046,-3.903644E-05
583.6046,-3.904021E-05
583.7045,-3.901761E-05
583.8045,-3.90289E-05
583.9045,-3.902514E-05
584.0045,-3.904586E-05
584.1044,-3.901101E-05
584.2044,-3.901007E-05
584.3044,-3.902796E-05
584.4044,-3.900913E-05
584.5043,-3.898935E-05
584.6043,-3.901289E-05
584.7043,-3.90063E-05
584.8043,-3.900442E-05
584.9042,-3.897146E-05
585.0042,-3.899312E-05
585.1042,-3.898182E-05
585.2042,-3.899218E-05
585.3041,-3.898276E-05
585.4041,-3.896016E-05
585.5041,-3.897805E-05
585.6041,-3.89903E-05
585.704,-3.896487E-05
585.804,-3.896016E-05
585.904,-3.895074E-05
586.004,-3.896392E-05
586.1039,-3.896957E-05
586.2039,-3.894886E-05
586.3039,-3.892061E-05
586.4039,-3.894603E-05
586.5038,-3.894792E-05
586.6038,-3.891872E-05
586.7038,-3.892155E-05
586.8038,-3.890083E-05
586.9037,-3.892908E-05
587.0037,-3.896298E-05
587.1037,-3.895451E-05
587.2037,-3.889235E-05
587.3036,-3.890459E-05
587.4036,-3.892343E-05
587.5036,-3.890648E-05
587.6036,-3.8898E-05
587.7036,-3.890459E-05
587.8035,-3.890459E-05
587.9035,-3.890742E-05
588.0035,-3.889047E-05
588.1035,-3.886221E-05
588.2034,-3.88867E-05
588.3034,-3.889518E-05
588.4034,-3.886881E-05
588.5034,-3.886504E-05
588.6033,-3.886693E-05
588.7033,-3.885186E-05
588.8033,-3.884715E-05
588.9033,-3.887446E-05
589.0032,-3.888294E-05
589.1032,-3.887069E-05
589.2032,-3.885186E-05
589.3032,-3.885374E-05
589.4031,-3.883585E-05
589.5031,-3.88349E-05
589.6031,-3.884244E-05
589.7031,-3.882361E-05
589.803,-3.880948E-05
589.903,-3.881795E-05
590.003,-3.884433E-05
590.103,-3.879347E-05
590.2029,-3.876899E-05
590.3029,-3.878688E-05
590.4029,-3.88189E-05
590.5029,-3.878123E-05
590.6028,-3.878217E-05
590.7028,-3.878782E-05
590.8028,-3.87558E-05
590.9028,-3.876145E-05
591.0027,-3.879159E-05
591.1027,-3.879818E-05
591.2027,-3.875863E-05
591.3027,-3.874827E-05
591.4026,-3.87511E-05
591.5026,-3.87332E-05
591.6026,-3.877558E-05
591.7026,-3.875204E-05
591.8026,-3.871248E-05
591.9025,-3.874073E-05
592.0025,-3.873038E-05
592.1025,-3.872661E-05
592.2025,-3.873885E-05
592.3024,-3.872849E-05
592.4024,-3.867481E-05
592.5024,-3.86993E-05
592.6024,-3.871813E-05
592.7023,-3.869082E-05
592.8023,-3.871248E-05
592.9023,-3.866822E-05
593.0023,-3.867293E-05
593.1022,-3.870307E-05
593.2022,-3.868894E-05
593.3022,-3.866728E-05
593.4022,-3.867105E-05
593.5021,-3.869365E-05
593.6021,-3.866916E-05
593.7021,-3.867481E-05
593.8021,-3.86767E-05
593.902,-3.866069E-05
594.002,-3.865692E-05
594.102,-3.865033E-05
594.202,-3.863338E-05
594.3019,-3.867199E-05
594.4019,-3.86654E-05
594.5019,-3.863526E-05
594.6019,-3.861078E-05
594.7018,-3.863809E-05
594.8018,-3.861737E-05
594.9018,-3.864844E-05
595.0018,-3.861925E-05
595.1017,-3.860418E-05
595.2017,-3.861078E-05
595.3017,-3.862867E-05
595.4017,-3.862584E-05
595.5016,-3.860418E-05
595.6016,-3.858064E-05
595.7016,-3.858064E-05
595.8016,-3.862867E-05
595.9016,-3.858818E-05
596.0015,-3.857405E-05
596.1015,-3.8591E-05
596.2015,-3.857593E-05
596.3015,-3.857781E-05
596.4014,-3.859665E-05
596.5014,-3.858535E-05
596.6014,-3.85684E-05
596.7014,-3.856557E-05
596.8013,-3.854297E-05
596.9013,-3.852696E-05
597.0013,-3.857499E-05
597.1013,-3.855992E-05
597.2012,-3.853826E-05
597.3012,-3.854768E-05
597.4012,-3.854109E-05
597.5012,-3.853449E-05
597.6011,-3.854014E-05
597.7011,-3.854109E-05
597.8011,-3.85053E-05
597.9011,-3.849776E-05
598.001,-3.849776E-05
598.101,-3.850248E-05
598.201,-3.851189E-05
598.301,-3.849023E-05
598.4009,-3.846857E-05
598.5009,-3.849588E-05
598.6009,-3.850624E-05
598.7009,-3.847517E-05
598.8008,-3.846857E-05
598.9008,-3.851472E-05
599.0008,-3.846857E-05
599.1008,-3.846763E-05
599.2007,-3.846386E-05
599.3007,-3.845068E-05
599.4007,-3.844315E-05
599.5007,-3.847234E-05
599.6006,-3.843938E-05
599.7006,-3.844691E-05
599.8006,-3.844315E-05
599.9006,-3.842808E-05
600.0005,-3.844221E-05
