EXPID. 0753
[电化学]: i-t : @ 0(V) X 600(sec)
起始电位 (V),0
静置时间 (秒),0
运行时间 (秒),600
记录间隔,0.1
电解液 信息:
HNO3,0.4
0.1,-0.01005814
0.2,-0.01005814
0.3,-0.01005814
0.4,-0.01005814
0.5,-0.01005814
0.6,-0.01005814
0.7,-0.01005814
0.8000001,-0.01005814
0.9000001,-0.01005814
1,-0.01005814
1.1,-0.01005814
1.2,-0.01005814
1.3,-0.002088949
1.4,0.007867108
1.5,0.002368293
1.6,-0.002492245
1.7,-0.004402372
1.8,-0.004774
1.9,-0.004877165
2,-0.004953222
2.1,-0.00498967
2.2,-0.004950945
2.3,-0.004871279
2.4,-0.00476047
2.5,-0.004637077
2.6,-0.004522661
2.7,-0.004410057
2.799999,-0.004301238
2.899999,-0.004204328
2.999999,-0.004110262
3.099999,-0.004018824
3.199999,-0.003935176
3.299999,-0.00385511
3.399999,-0.00377582
3.499999,-0.003701124
3.599999,-0.003632501
3.699999,-0.003560674
3.799999,-0.003494836
3.899998,-0.003431361
3.999998,-0.003363735
4.099998,-0.003300036
4.199998,-0.003235406
4.299998,-0.00317163
4.399998,-0.003108226
4.499998,-0.003046713
4.599998,-0.002990004
4.699998,-0.002932813
4.799998,-0.002879512
4.899998,-0.002829162
4.999998,-0.002781134
5.099998,-0.002733356
5.199997,-0.002689964
5.299997,-0.002647864
5.399997,-0.002605652
5.499997,-0.002563293
5.599997,-0.002524009
5.699997,-0.002484751
5.799997,-0.002447061
5.899997,-0.002411764
5.999997,-0.002378873
6.099997,-0.002346861
6.199996,-0.002316049
6.299996,-0.00228696
6.399996,-0.002259845
6.499996,-0.002232302
6.599996,-0.002207941
6.699996,-0.002183949
6.799996,-0.002160178
6.899996,-0.002137811
6.999996,-0.002116831
7.099996,-0.002095416
7.199996,-0.002075573
7.299995,-0.002057447
7.399995,-0.002037915
7.499995,-0.002020099
7.599995,-0.00200342
7.699995,-0.001986178
7.799995,-0.001969559
7.899995,-0.001953876
7.999995,-0.001938615
8.099995,-0.001923824
8.199995,-0.001908966
8.299995,-0.00189506
8.399996,-0.001881378
8.499996,-0.001867845
8.599997,-0.001855206
8.699997,-0.001842585
8.799997,-0.001829754
8.899998,-0.001818021
8.999998,-0.001806529
9.099998,-0.001794469
9.199999,-0.001783189
9.299999,-0.00177226
9.4,-0.001761002
9.5,-0.001750426
9.6,-0.001740206
9.700001,-0.001729523
9.800001,-0.001719638
9.900002,-0.001710285
10,-0.001700387
10.1,-0.001691045
10.2,-0.001681686
10.3,-0.001672571
10.4,-0.001663666
10.5,-0.001655024
10.6,-0.001646284
10.7,-0.001637675
10.8,-0.001629493
10.90001,-0.001621298
11.00001,-0.001613203
11.10001,-0.001605345
11.20001,-0.001597461
11.30001,-0.001590186
11.40001,-0.001582318
11.50001,-0.001574946
11.60001,-0.0015676
11.70001,-0.0015605
11.80001,-0.001553312
11.90001,-0.001546705
12.00001,-0.001539585
12.10001,-0.001532848
12.20001,-0.00152658
12.30001,-0.001519854
12.40001,-0.001513696
12.50001,-0.00150737
12.60001,-0.001500954
12.70001,-0.001494931
12.80001,-0.001488795
12.90001,-0.001482924
13.00001,-0.001477103
13.10001,-0.001470959
13.20001,-0.001465271
13.30001,-0.001459663
13.40001,-0.001453797
13.50002,-0.001448402
13.60002,-0.001442924
13.70002,-0.001437864
13.80002,-0.001432616
13.90002,-0.001427128
14.00002,-0.001421679
14.10002,-0.001416891
14.20002,-0.00141153
14.30002,-0.001406484
14.40002,-0.001401576
14.50002,-0.0013965
14.60002,-0.001392088
14.70002,-0.001387953
14.80002,-0.00138267
14.90002,-0.001377726
15.00002,-0.001373533
15.10002,-0.00136852
15.20002,-0.001363834
15.30002,-0.001359584
15.40002,-0.001355176
15.50002,-0.001350931
15.60002,-0.001347067
15.70002,-0.001342495
15.80002,-0.001338063
15.90002,-0.001334039
16.00002,-0.001329482
16.10003,-0.001325246
16.20003,-0.001321186
16.30003,-0.001316853
16.40003,-0.001312972
16.50003,-0.001308971
16.60003,-0.001304698
16.70003,-0.00130049
16.80003,-0.001296731
16.90003,-0.001292536
17.00003,-0.00128875
17.10003,-0.001284833
17.20003,-0.001281037
17.30003,-0.001277035
17.40003,-0.001273423
17.50003,-0.001269615
17.60003,-0.001265658
17.70003,-0.001262101
17.80003,-0.001258225
17.90003,-0.001254712
18.00003,-0.001251113
18.10003,-0.001247581
18.20003,-0.001243977
18.30003,-0.001240315
18.40003,-0.001236976
18.50003,-0.001233517
18.60003,-0.001230003
18.70004,-0.001226551
18.80004,-0.001223287
18.90004,-0.001219939
19.00004,-0.001216553
19.10004,-0.001213349
19.20004,-0.001210073
19.30004,-0.001206925
19.40004,-0.001203735
19.50004,-0.00120046
19.60004,-0.00119752
19.70004,-0.001194384
19.80004,-0.001191212
19.90004,-0.001188096
20.00004,-0.001185336
20.10004,-0.001182231
20.20004,-0.001179392
20.30004,-0.001176314
20.40004,-0.001173405
20.50004,-0.001170349
20.60004,-0.001167459
20.70004,-0.001164675
20.80004,-0.001161832
20.90004,-0.00115882
21.00004,-0.001156076
21.10004,-0.001153374
21.20004,-0.001150431
21.30005,-0.001147705
21.40005,-0.001145024
21.50005,-0.001142203
21.60005,-0.001139477
21.70005,-0.001136928
21.80005,-0.001134204
21.90005,-0.001131497
22.00005,-0.001129186
22.10005,-0.001126452
22.20005,-0.001123784
22.30005,-0.001121237
22.40005,-0.001118585
22.50005,-0.001115994
22.60005,-0.001113485
22.70005,-0.001110847
22.80005,-0.001108331
22.90005,-0.00110574
23.00005,-0.001103206
23.10005,-0.001100822
23.20005,-0.001098245
23.30005,-0.001095817
23.40005,-0.001093492
23.50005,-0.001090942
23.60005,-0.001088583
23.70005,-0.00108631
23.80005,-0.001083856
23.90005,-0.001081484
24.00006,-0.001079178
24.10006,-0.001076723
24.20006,-0.001074467
24.30006,-0.001072225
24.40006,-0.001069909
24.50006,-0.001067756
24.60006,-0.001065494
24.70006,-0.001063201
24.80006,-0.001060995
24.90006,-0.001058829
25.00006,-0.00105658
25.10006,-0.001054453
25.20006,-0.00105236
25.30006,-0.00105008
25.40006,-0.001047989
25.50006,-0.001045913
25.60006,-0.001043712
25.70006,-0.001041667
25.80006,-0.001039612
25.90006,-0.001037455
26.00006,-0.001035396
26.10006,-0.001033405
26.20006,-0.001031487
26.30006,-0.001029516
26.40006,-0.001027279
26.50006,-0.001025252
26.60007,-0.001023345
26.70007,-0.00102128
26.80007,-0.001019238
26.90007,-0.001017343
27.00007,-0.00101529
27.10007,-0.001013355
27.20007,-0.001011452
27.30007,-0.001009509
27.40007,-0.001007468
27.50007,-0.001005703
27.60007,-0.001003704
27.70007,-0.001001747
27.80007,-0.0009999311
27.90007,-0.0009978894
28.00007,-0.0009960238
28.10007,-0.0009942392
28.20007,-0.0009923087
28.30007,-0.0009904027
28.40007,-0.0009885427
28.50007,-0.0009868599
28.60007,-0.000985079
28.70007,-0.000983302
28.80007,-0.0009813403
28.90007,-0.0009795765
29.00007,-0.0009778456
29.10007,-0.0009759885
29.20008,-0.0009742331
29.30008,-0.0009724571
29.40008,-0.0009706913
29.50008,-0.0009689057
29.60008,-0.0009672144
29.70008,-0.0009653441
29.80008,-0.0009636038
29.90008,-0.0009620424
30.00008,-0.0009601646
30.10008,-0.0009585034
30.20008,-0.0009568299
30.30008,-0.0009550774
30.40008,-0.0009534425
30.50008,-0.0009517154
30.60008,-0.000950154
30.70008,-0.0009485409
30.80008,-0.0009469549
30.90008,-0.0009452956
31.00008,-0.0009436099
31.10008,-0.0009420052
31.20008,-0.0009403044
31.30008,-0.0009386649
31.40008,-0.0009370329
31.50008,-0.000935349
31.60008,-0.000933766
31.70008,-0.0009323063
31.80009,-0.0009307563
31.90009,-0.0009290301
32.00008,-0.0009275966
32.10008,-0.0009260674
32.20008,-0.0009243016
32.30008,-0.0009228194
32.40008,-0.0009212843
32.50008,-0.0009196099
32.60007,-0.0009181483
32.70007,-0.0009166368
32.80007,-0.0009148994
32.90007,-0.0009134848
33.00007,-0.0009119997
33.10007,-0.000910348
33.20007,-0.000908957
33.30006,-0.0009074917
33.40006,-0.000905935
33.50006,-0.0009045836
33.60006,-0.0009030561
33.70006,-0.0009015173
33.80006,-0.0009000539
33.90005,-0.0008986055
34.00005,-0.0008971242
34.10005,-0.0008957493
34.20005,-0.000894298
34.30005,-0.0008928892
34.40005,-0.0008915237
34.50005,-0.0008902344
34.60004,-0.0008886881
34.70004,-0.0008871766
34.80004,-0.0008858347
34.90004,-0.0008844475
35.00004,-0.0008829784
35.10004,-0.0008815904
35.20004,-0.0008802813
35.30003,-0.00087893
35.40003,-0.000877492
35.50003,-0.0008761189
35.60003,-0.0008748655
35.70003,-0.0008735027
35.80003,-0.0008720101
35.90002,-0.000870654
36.00002,-0.000869297
36.10002,-0.0008680623
36.20002,-0.0008667063
36.30002,-0.0008653143
36.40002,-0.0008639705
36.50002,-0.0008625862
36.60001,-0.0008612697
36.70001,-0.0008598787
36.80001,-0.0008585066
36.90001,-0.0008571928
37.00001,-0.0008558604
37.10001,-0.0008544892
37.2,-0.0008533224
37.3,-0.000851955
37.4,-0.0008506498
37.5,-0.0008492625
37.6,-0.0008479328
37.7,-0.0008466201
37.8,-0.0008453826
37.89999,-0.0008440859
37.99999,-0.0008427948
38.09999,-0.0008415121
38.19999,-0.0008402737
38.29999,-0.0008389289
38.39999,-0.0008377122
38.49998,-0.000836438
38.59998,-0.0008351997
38.69998,-0.0008339453
38.79998,-0.0008326137
38.89998,-0.0008313772
38.99998,-0.0008301802
39.09998,-0.0008289079
39.19997,-0.0008276489
39.29997,-0.0008263832
39.39997,-0.0008251665
39.49997,-0.0008239695
39.59997,-0.0008227669
39.69997,-0.0008215822
39.79996,-0.0008204493
39.89996,-0.000819113
39.99996,-0.0008179811
40.09996,-0.0008168124
40.19996,-0.0008155439
40.29996,-0.0008143224
40.39996,-0.0008132216
40.49995,-0.0008119389
40.59995,-0.0008107984
40.69995,-0.0008096382
40.79995,-0.0008084959
40.89995,-0.0008073894
40.99995,-0.0008064072
41.09995,-0.0008050379
41.19994,-0.0008038325
41.29994,-0.000802838
41.39994,-0.0008015224
41.49994,-0.0008003067
41.59994,-0.000799316
41.69994,-0.0007980117
41.79993,-0.0007968185
41.89993,-0.0007957477
41.99993,-0.0007945772
42.09993,-0.0007934207
42.19993,-0.0007922907
42.29993,-0.0007911492
42.39993,-0.0007900107
42.49992,-0.0007889475
42.59992,-0.0007878174
42.69992,-0.0007866591
42.79992,-0.0007856694
42.89992,-0.0007845788
42.99992,-0.0007834035
43.09991,-0.0007823413
43.19991,-0.0007813242
43.29991,-0.0007802581
43.39991,-0.0007792072
43.49991,-0.0007780479
43.59991,-0.0007769752
43.69991,-0.0007758649
43.7999,-0.0007748224
43.8999,-0.0007737235
43.9999,-0.000772647
44.0999,-0.0007717223
44.1999,-0.0007705282
44.2999,-0.0007694697
44.39989,-0.0007684657
44.49989,-0.0007673893
44.59989,-0.0007663817
44.69989,-0.0007652931
44.79989,-0.0007642167
44.89989,-0.0007631243
44.99989,-0.0007621186
45.09988,-0.0007610628
45.19988,-0.000759993
45.29988,-0.0007590975
45.39988,-0.0007579221
45.49988,-0.0007570275
45.59988,-0.0007559991
45.69987,-0.0007550151
45.79987,-0.0007540327
45.89987,-0.0007529922
45.99987,-0.0007518838
46.09987,-0.0007509816
46.19987,-0.000749926
46.29987,-0.0007488703
46.39986,-0.0007479351
46.49986,-0.0007469274
46.59986,-0.0007458049
46.69986,-0.0007448584
46.79986,-0.0007438508
46.89986,-0.0007428526
46.99986,-0.0007418628
47.09985,-0.0007409032
47.19985,-0.0007398691
47.29985,-0.0007389001
47.39985,-0.000737964
47.49985,-0.0007369366
47.59985,-0.000736008
47.69984,-0.000735072
47.79984,-0.0007340465
47.89984,-0.0007330652
47.99984,-0.0007321244
48.09984,-0.00073108
48.19984,-0.000730175
48.29984,-0.0007292483
48.39983,-0.0007282444
48.49983,-0.0007273215
48.59983,-0.0007264401
48.69983,-0.0007254974
48.79983,-0.0007245632
48.89983,-0.0007236676
48.99982,-0.0007226901
49.09982,-0.0007217342
49.19982,-0.0007210091
49.29982,-0.0007199685
49.39982,-0.0007188968
49.49982,-0.0007181133
49.59982,-0.000717195
49.69981,-0.0007161545
49.79981,-0.0007151986
49.89981,-0.0007142682
49.99981,-0.0007133208
50.09981,-0.0007124544
50.19981,-0.0007114825
50.2998,-0.0007104853
50.3998,-0.0007095303
50.4998,-0.0007087195
50.5998,-0.0007077702
50.6998,-0.0007068134
50.7998,-0.0007058707
50.8998,-0.0007049582
50.99979,-0.0007040993
51.09979,-0.0007031802
51.19979,-0.0007022027
51.29979,-0.0007013091
51.39979,-0.0007003974
51.49979,-0.0006994444
51.59978,-0.0006985714
51.69978,-0.0006976814
51.79978,-0.0006967887
51.89978,-0.0006959336
51.99978,-0.0006949985
52.09978,-0.0006940907
52.19978,-0.0006932742
52.29977,-0.000692355
52.39977,-0.0006914519
52.49977,-0.0006906242
52.59977,-0.0006897295
52.69977,-0.0006887849
52.79977,-0.0006879939
52.89977,-0.0006871021
52.99976,-0.0006861999
53.09976,-0.0006853693
53.19976,-0.0006845057
53.29976,-0.0006835828
53.39976,-0.0006827362
53.49976,-0.0006818782
53.59975,-0.0006809836
53.69975,-0.0006801775
53.79975,-0.0006793704
53.89975,-0.0006784645
53.99975,-0.0006776273
54.09975,-0.0006768004
54.19975,-0.0006759294
54.29974,-0.0006751166
54.39974,-0.000674254
54.49974,-0.0006733575
54.59974,-0.00067259
54.69974,-0.0006717349
54.79974,-0.0006708761
54.89973,-0.0006700313
54.99973,-0.0006691866
55.09973,-0.0006683748
55.19973,-0.0006675809
55.29973,-0.0006667682
55.39973,-0.0006658689
55.49973,-0.0006650768
55.59972,-0.0006642735
55.69972,-0.0006634232
55.79972,-0.0006626283
55.89972,-0.0006617695
55.99972,-0.0006609624
56.09972,-0.0006601667
56.19971,-0.0006593333
56.29971,-0.0006584584
56.39971,-0.0006577153
56.49971,-0.0006569526
56.59971,-0.00065612
56.69971,-0.0006553064
56.79971,-0.0006545464
56.8997,-0.0006537101
56.9997,-0.0006530104
57.0997,-0.0006521846
57.1997,-0.000651369
57.2997,-0.0006506156
57.3997,-0.000649785
57.49969,-0.0006490345
57.59969,-0.0006482039
57.69969,-0.0006474712
57.79969,-0.0006466622
57.89969,-0.0006458231
57.99969,-0.0006450773
58.09969,-0.0006443907
58.19968,-0.0006435856
58.29968,-0.000642804
58.39968,-0.0006420251
58.49968,-0.0006411832
58.59968,-0.000640412
58.69968,-0.0006396624
58.79967,-0.0006388355
58.89967,-0.0006380567
58.99967,-0.0006373466
59.09967,-0.0006365348
59.19967,-0.0006357429
59.29967,-0.0006350054
59.39967,-0.0006342079
59.49966,-0.0006334799
59.59966,-0.0006328423
59.69966,-0.0006320277
59.79966,-0.0006312743
59.89966,-0.0006305341
59.99966,-0.0006298231
60.09966,-0.0006289859
60.19965,-0.0006282467
60.29965,-0.0006274565
60.39965,-0.0006267107
60.49965,-0.0006259705
60.59965,-0.0006252312
60.69965,-0.0006244552
60.79964,-0.0006237038
60.89964,-0.0006229194
60.99964,-0.000622197
61.09964,-0.0006214794
61.19964,-0.0006207091
61.29964,-0.0006199425
61.39964,-0.0006192193
61.49963,-0.0006184838
61.59963,-0.0006177906
61.69963,-0.0006170787
61.79963,-0.0006162866
61.89963,-0.0006156077
61.99963,-0.0006149146
62.09962,-0.0006141631
62.19962,-0.0006134078
62.29962,-0.0006127383
62.39962,-0.000611967
62.49962,-0.0006112484
62.59962,-0.0006105619
62.69962,-0.0006097793
62.79961,-0.0006090382
62.89961,-0.0006083602
62.99961,-0.0006076585
63.09961,-0.0006069155
63.19961,-0.0006062168
63.29961,-0.0006054794
63.3996,-0.0006048682
63.4996,-0.0006041327
63.5996,-0.0006033944
63.6996,-0.0006026636
63.7996,-0.0006019517
63.8996,-0.0006013216
63.9996,-0.0006005928
64.09959,-0.0005998648
64.19959,-0.0005992103
64.29959,-0.0005985416
64.39959,-0.0005978711
64.49959,-0.0005971818
64.59959,-0.0005964378
64.69958,-0.0005958492
64.79958,-0.0005952729
64.89958,-0.0005945045
64.99958,-0.0005937794
65.09958,-0.0005931615
65.19958,-0.0005923902
65.29958,-0.0005917528
65.39957,-0.0005911152
65.49957,-0.0005904418
65.59957,-0.0005897223
65.69957,-0.0005890123
65.79957,-0.0005883183
65.89957,-0.0005876524
65.99957,-0.00058698
66.09956,-0.0005862832
66.19956,-0.0005856729
66.29956,-0.0005849713
66.39956,-0.0005842706
66.49956,-0.0005836557
66.59956,-0.0005829625
66.69955,-0.0005822101
66.79955,-0.0005816075
66.89955,-0.0005809708
66.99955,-0.0005802824
67.09955,-0.0005796571
67.19955,-0.0005789932
67.29955,-0.0005783623
67.39954,-0.0005776898
67.49954,-0.0005770682
67.59954,-0.0005763761
67.69954,-0.0005758035
67.79954,-0.0005751123
67.89954,-0.0005743929
67.99953,-0.0005737685
68.09953,-0.0005731347
68.19953,-0.0005724293
68.29953,-0.0005718162
68.39953,-0.000571173
68.49953,-0.0005704941
68.59953,-0.0005698556
68.69952,-0.0005692407
68.79952,-0.0005685155
68.89952,-0.0005678987
68.99952,-0.0005672753
69.09952,-0.0005666594
69.19952,-0.0005660811
69.29951,-0.0005654426
69.39951,-0.0005647937
69.49951,-0.0005641599
69.59951,-0.0005635234
69.69951,-0.0005628444
69.79951,-0.0005622699
69.89951,-0.000561637
69.9995,-0.0005609411
70.0995,-0.0005603121
70.1995,-0.0005597206
70.2995,-0.0005589927
70.3995,-0.0005585162
70.4995,-0.000557889
70.59949,-0.0005572232
70.69949,-0.0005565658
70.79949,-0.0005559113
70.89949,-0.0005552483
70.99949,-0.0005546137
71.09949,-0.0005540279
71.19949,-0.0005533272
71.29948,-0.0005526718
71.39948,-0.000552053
71.49948,-0.0005514871
71.59948,-0.0005508872
71.69948,-0.0005502393
71.79948,-0.0005496423
71.89948,-0.0005489943
71.99947,-0.0005483972
72.09947,-0.0005477748
72.19947,-0.0005471693
72.29947,-0.0005465524
72.39947,-0.0005459412
72.49947,-0.0005453631
72.59946,-0.00054475
72.69946,-0.000544167
72.79946,-0.0005435483
72.89946,-0.0005429512
72.99946,-0.0005423419
73.09946,-0.0005417929
73.19946,-0.0005411723
73.29945,-0.0005405677
73.39945,-0.0005399283
73.49945,-0.0005394094
73.59945,-0.000538916
73.69945,-0.0005382256
73.79945,-0.0005376389
73.89944,-0.0005370193
73.99944,-0.0005364071
74.09944,-0.0005358685
74.19944,-0.000535295
74.29944,-0.0005346338
74.39944,-0.0005340782
74.49944,-0.0005335019
74.59943,-0.0005328653
74.69943,-0.0005322494
74.79943,-0.0005317277
74.89943,-0.0005311589
74.99943,-0.0005305646
75.09943,-0.0005299525
75.19942,-0.0005293583
75.29942,-0.000528814
75.39942,-0.0005282659
75.49942,-0.0005276604
75.59942,-0.0005271
75.69942,-0.000526536
75.79942,-0.0005259342
75.89941,-0.0005253869
75.99941,-0.0005247843
76.09941,-0.0005241741
76.19941,-0.0005236128
76.29941,-0.0005230553
76.39941,-0.0005224526
76.4994,-0.0005219186
76.5994,-0.0005213282
76.6994,-0.0005206869
76.7994,-0.0005201802
76.8994,-0.0005196349
76.9994,-0.0005190416
77.0994,-0.0005184511
77.19939,-0.0005179144
77.29939,-0.0005173163
77.39939,-0.0005167475
77.49939,-0.0005162428
77.59939,-0.0005156542
77.69939,-0.000515077
77.79939,-0.0005145636
77.89938,-0.000513994
77.99938,-0.0005134656
78.09938,-0.0005129034
78.19938,-0.0005123412
78.29938,-0.0005117734
78.39938,-0.0005112431
78.49937,-0.0005106791
78.59937,-0.0005101177
78.69937,-0.0005096205
78.79937,-0.000509063
78.89937,-0.0005085055
78.99937,-0.0005079904
79.09937,-0.0005074508
79.19936,-0.0005069291
79.29936,-0.0005064921
79.39936,-0.0005058781
79.49936,-0.000505315
79.59936,-0.0005048789
79.69936,-0.0005043111
79.79935,-0.0005037838
79.89935,-0.0005032903
79.99935,-0.0005026583
80.09935,-0.0005021262
80.19935,-0.0005017552
80.29935,-0.0005013041
80.39935,-0.0005006722
80.49934,-0.0005001383
80.59934,-0.0004996429
80.69934,-0.0004990365
80.79934,-0.000498509
80.89934,-0.0004979855
80.99934,-0.0004973875
81.09933,-0.0004968771
81.19933,-0.0004963421
81.29933,-0.0004957808
81.39933,-0.0004952751
81.49933,-0.0004947336
81.59933,-0.00049418
81.69933,-0.0004936893
81.79932,-0.0004931336
81.89932,-0.000492627
81.99932,-0.0004921684
82.09932,-0.0004916344
82.19932,-0.000491076
82.29932,-0.0004906032
82.39931,-0.0004900749
82.49931,-0.0004895287
82.59931,-0.0004890192
82.69931,-0.0004884853
82.79931,-0.0004879315
82.89931,-0.000487456
82.99931,-0.0004869117
83.0993,-0.0004863739
83.1993,-0.000485856
83.2993,-0.000485371
83.3993,-0.00048482
83.4993,-0.0004842917
83.5993,-0.000483755
83.6993,-0.0004832342
83.79929,-0.0004827407
83.89929,-0.0004822397
83.99929,-0.0004816878
84.09929,-0.0004811464
84.19929,-0.000480634
84.29929,-0.0004801302
84.39928,-0.0004796358
84.49928,-0.0004790745
84.59928,-0.0004785745
84.69928,-0.0004780622
84.79928,-0.0004775941
84.89928,-0.0004770932
84.99928,-0.0004765818
85.09927,-0.000476094
85.19927,-0.000475576
85.29927,-0.0004750713
85.39927,-0.0004745674
85.49927,-0.00047409
85.59927,-0.0004735975
85.69926,-0.0004730842
85.79926,-0.0004725729
85.89926,-0.0004720417
85.99926,-0.0004715784
86.09926,-0.0004711037
86.19926,-0.0004705924
86.29926,-0.000470082
86.39925,-0.0004695904
86.49925,-0.0004690913
86.59925,-0.0004686646
86.69925,-0.000468158
86.79925,-0.0004676598
86.89925,-0.0004671805
86.99924,-0.0004666814
87.09924,-0.000466186
87.19924,-0.0004657443
87.29924,-0.0004652528
87.39924,-0.0004647141
87.49924,-0.0004642366
87.59924,-0.0004637921
87.69923,-0.0004632845
87.79923,-0.0004628344
87.89923,-0.0004623663
87.99923,-0.0004618804
88.09923,-0.0004614058
88.19923,-0.0004609651
88.29922,-0.000460449
88.39922,-0.0004599678
88.49922,-0.0004595393
88.59922,-0.0004590289
88.69922,-0.0004585721
88.79922,-0.0004580994
88.89922,-0.000457604
88.99921,-0.0004571558
89.09921,-0.0004566971
89.19921,-0.0004561848
89.29921,-0.0004557347
89.39921,-0.0004552911
89.49921,-0.0004547751
89.59921,-0.0004543136
89.6992,-0.0004538616
89.7992,-0.0004533813
89.8992,-0.0004529462
89.9992,-0.0004524979
90.0992,-0.0004520158
90.1992,-0.0004515185
90.29919,-0.0004510967
90.39919,-0.0004506248
90.49919,-0.0004501474
90.59919,-0.000449684
90.69919,-0.0004492782
90.79919,-0.0004487856
90.89919,-0.0004483044
90.99918,-0.0004478476
91.09918,-0.0004473862
91.19918,-0.0004469728
91.29918,-0.0004465113
91.39918,-0.0004460188
91.49918,-0.0004457391
91.59917,-0.0004453803
91.69917,-0.0004447503
91.79917,-0.0004442503
91.89917,-0.0004438745
91.99917,-0.0004433792
92.09917,-0.0004429337
92.19917,-0.0004425608
92.29916,-0.0004420664
92.39916,-0.0004416963
92.49916,-0.0004413196
92.59916,-0.0004408468
92.69916,-0.0004403863
92.79916,-0.0004399776
92.89915,-0.0004394776
92.99915,-0.0004390481
93.09915,-0.0004386131
93.19915,-0.0004381394
93.29915,-0.0004377174
93.39915,-0.0004372975
93.49915,-0.0004368351
93.59914,-0.0004364085
93.69914,-0.0004359696
93.79914,-0.0004354677
93.89914,-0.0004350138
93.99914,-0.000434589
94.09914,-0.0004341869
94.19913,-0.0004337792
94.29913,-0.0004333478
94.39913,-0.0004328788
94.49913,-0.0004324287
94.59913,-0.000432021
94.69913,-0.0004315472
94.79913,-0.0004311263
94.89912,-0.0004306818
94.99912,-0.0004302363
95.09912,-0.0004298144
95.19912,-0.0004293869
95.29912,-0.0004290338
95.39912,-0.0004285676
95.49911,-0.0004281071
95.59911,-0.0004276843
95.69911,-0.0004272539
95.79911,-0.0004268329
95.89911,-0.0004263734
95.99911,-0.0004259345
96.09911,-0.0004255107
96.1991,-0.0004250757
96.2991,-0.000424635
96.3991,-0.0004242083
96.4991,-0.0004238166
96.5991,-0.0004233975
96.6991,-0.0004230246
96.7991,-0.0004225914
96.89909,-0.0004221686
96.99909,-0.0004218333
97.09909,-0.0004214095
97.19909,-0.0004209217
97.29909,-0.0004205412
97.39909,-0.000420157
97.49908,-0.0004196607
97.59908,-0.0004192793
97.69908,-0.000418831
97.79908,-0.0004183884
97.89908,-0.0004180447
97.99908,-0.0004176285
98.09908,-0.000417151
98.19907,-0.0004167263
98.29907,-0.0004163251
98.39907,-0.0004159107
98.49907,-0.0004155246
98.59907,-0.0004150811
98.69907,-0.000414646
98.79906,-0.0004142882
98.89906,-0.000413886
98.99906,-0.0004134585
99.09906,-0.0004130356
99.19906,-0.0004126476
99.29906,-0.0004122653
99.39906,-0.0004118773
99.49905,-0.0004114177
99.59905,-0.0004110269
99.69905,-0.0004106775
99.79905,-0.0004101972
99.89905,-0.000409765
99.99905,-0.0004094222
100.099,-0.0004090182
100.199,-0.0004085756
100.299,-0.000408214
100.399,-0.0004077996
100.499,-0.0004073551
100.599,-0.0004069502
100.699,-0.0004066064
100.799,-0.0004061525
100.899,-0.0004057325
100.999,-0.0004053332
101.099,-0.0004048765
101.199,-0.0004045073
101.299,-0.0004041297
101.399,-0.0004037398
101.499,-0.0004033236
101.599,-0.0004029233
101.699,-0.0004024892
101.799,-0.0004020692
101.899,-0.0004018347
101.999,-0.000401393
102.099,-0.0004009382
102.199,-0.000400617
102.299,-0.0004002309
102.399,-0.000399745
102.499,-0.000399372
102.599,-0.0003990133
102.699,-0.0003985735
102.799,-0.0003981996
102.899,-0.0003978427
102.999,-0.0003974123
103.099,-0.0003970366
103.199,-0.0003966457
103.299,-0.00039627
103.399,-0.0003958952
103.499,-0.0003954893
103.599,-0.0003950721
103.699,-0.0003947171
103.799,-0.0003943263
103.899,-0.0003939316
103.999,-0.0003935616
104.099,-0.0003932207
104.199,-0.0003927705
104.299,-0.0003924202
104.399,-0.0003920576
104.499,-0.0003916197
104.599,-0.0003912572
104.699,-0.000390905
104.799,-0.0003905132
104.899,-0.0003901092
104.999,-0.000389757
105.099,-0.0003893727
105.199,-0.0003889838
105.299,-0.0003885864
105.399,-0.0003882003
105.499,-0.0003878791
105.599,-0.0003875194
105.699,-0.000387138
105.799,-0.0003867774
105.899,-0.0003864618
105.999,-0.000386039
106.099,-0.0003856313
106.199,-0.0003853045
106.299,-0.0003849061
106.3989,-0.0003845426
106.4989,-0.0003842055
106.5989,-0.0003838175
106.6989,-0.0003834267
106.7989,-0.0003830377
106.8989,-0.0003827204
106.9989,-0.0003823644
107.0989,-0.0003820235
107.1989,-0.0003816487
107.2989,-0.0003812381
107.3989,-0.0003808595
107.4989,-0.0003804913
107.5989,-0.0003801061
107.6989,-0.0003797793
107.7989,-0.0003794243
107.8989,-0.0003790212
107.9989,-0.0003786596
108.0989,-0.0003782989
108.1989,-0.0003779581
108.2989,-0.0003775625
108.3989,-0.0003772046
108.4989,-0.0003768157
108.5989,-0.0003764823
108.6989,-0.0003760821
108.7989,-0.0003756753
108.8989,-0.0003753702
108.9989,-0.0003750001
109.0989,-0.0003746205
109.1989,-0.0003742514
109.2989,-0.0003738973
109.3989,-0.0003735611
109.4989,-0.0003732315
109.5989,-0.000372836
109.6989,-0.000372479
109.7989,-0.0003721268
109.8989,-0.0003717906
109.9989,-0.0003714572
110.0989,-0.0003711003
110.1989,-0.0003707142
110.2989,-0.0003703639
110.3989,-0.0003700164
110.4989,-0.0003696746
110.5989,-0.0003693157
110.6989,-0.0003689711
110.7989,-0.0003686255
110.8989,-0.0003682497
110.9989,-0.0003679116
111.0989,-0.0003675754
111.1989,-0.0003672138
111.2989,-0.0003668607
111.3989,-0.0003665235
111.4989,-0.0003661299
111.5989,-0.0003658088
111.6989,-0.000365529
111.7989,-0.0003651363
111.8989,-0.0003647634
111.9989,-0.0003644969
112.0989,-0.0003641683
112.1989,-0.0003637812
112.2989,-0.0003634657
112.3989,-0.0003631709
112.4989,-0.0003627839
112.5989,-0.0003626332
112.6989,-0.0003622565
112.7989,-0.0003617791
112.8988,-0.0003615078
112.9988,-0.000361199
113.0988,-0.0003607997
113.1988,-0.000360471
113.2988,-0.0003601226
113.3988,-0.0003597242
113.4988,-0.0003594295
113.5988,-0.0003590923
113.6988,-0.0003587138
113.7988,-0.0003583842
113.8988,-0.0003580828
113.9988,-0.0003577089
114.0988,-0.0003574132
114.1988,-0.0003570676
114.2988,-0.0003567107
114.3988,-0.000356366
114.4988,-0.0003560317
114.5988,-0.0003556682
114.6988,-0.0003553461
114.7988,-0.000355025
114.8988,-0.000354654
114.9988,-0.0003543074
115.0988,-0.0003540183
115.1988,-0.0003536557
115.2988,-0.0003533402
115.3988,-0.0003530021
115.4988,-0.0003526339
115.5988,-0.0003523297
115.6988,-0.0003519813
115.7988,-0.0003516253
115.8988,-0.0003513118
115.9988,-0.0003509624
116.0988,-0.000350612
116.1988,-0.0003503314
116.2988,-0.0003500216
116.3988,-0.0003496684
116.4988,-0.0003493492
116.5988,-0.000349028
116.6988,-0.0003486777
116.7988,-0.0003483679
116.8988,-0.0003480232
116.9988,-0.0003476945
117.0988,-0.0003474205
117.1988,-0.0003470777
117.2988,-0.0003467151
117.3988,-0.00034641
117.4988,-0.0003460833
117.5988,-0.000345748
117.6988,-0.0003454495
117.7988,-0.0003451368
117.8988,-0.000344761
117.9988,-0.0003444691
118.0988,-0.0003441545
118.1988,-0.0003438391
118.2988,-0.0003435171
118.3988,-0.0003432119
118.4988,-0.0003428879
118.5988,-0.0003426205
118.6988,-0.0003422655
118.7988,-0.0003419095
118.8988,-0.0003416138
118.9988,-0.0003413228
119.0988,-0.0003409951
119.1988,-0.0003406768
119.2988,-0.0003403453
119.3988,-0.0003400269
119.4987,-0.0003397077
119.5987,-0.0003393989
119.6987,-0.0003390777
119.7987,-0.0003387763
119.8987,-0.0003384335
119.9987,-0.000338103
120.0987,-0.0003378214
120.1987,-0.0003375088
120.2987,-0.0003372555
120.3987,-0.0003369032
120.4987,-0.0003365736
120.5987,-0.0003362836
120.6987,-0.0003360284
120.7987,-0.0003356978
120.8987,-0.0003353447
120.9987,-0.000335016
121.0987,-0.0003347514
121.1987,-0.000334434
121.2987,-0.0003341101
121.3987,-0.0003338341
121.4987,-0.000333546
121.5987,-0.0003332201
121.6987,-0.0003329564
121.7987,-0.0003326033
121.8987,-0.0003322511
121.9987,-0.0003319959
122.0987,-0.0003316832
122.1987,-0.0003313188
122.2987,-0.0003310419
122.3987,-0.0003307688
122.4987,-0.0003304684
122.5987,-0.0003301746
122.6987,-0.0003298921
122.7987,-0.0003295389
122.8987,-0.0003292479
122.9987,-0.000328955
123.0987,-0.0003286405
123.1987,-0.000328358
123.2987,-0.000328034
123.3987,-0.0003277101
123.4987,-0.0003274304
123.5987,-0.000327145
123.6987,-0.0003268267
123.7987,-0.0003265254
123.8987,-0.000326256
123.9987,-0.0003259358
124.0987,-0.0003256966
124.1987,-0.0003254188
124.2987,-0.0003250403
124.3987,-0.0003247483
124.4987,-0.0003245317
124.5987,-0.000324155
124.6987,-0.0003238395
124.7987,-0.0003235203
124.8987,-0.0003232566
124.9987,-0.0003229873
125.0987,-0.0003227434
125.1987,-0.0003224053
125.2987,-0.000322103
125.3987,-0.0003218732
125.4987,-0.0003215464
125.5987,-0.0003212366
125.6987,-0.0003209663
125.7987,-0.0003206791
125.8987,-0.0003203796
125.9986,-0.0003201094
126.0986,-0.0003198278
126.1986,-0.000319565
126.2986,-0.0003192562
126.3986,-0.0003190141
126.4986,-0.0003187382
126.5986,-0.000318434
126.6986,-0.0003181402
126.7986,-0.0003178454
126.8986,-0.0003175497
126.9986,-0.0003172549
127.0986,-0.000316963
127.1986,-0.0003166946
127.2986,-0.0003164338
127.3986,-0.0003161117
127.4986,-0.0003158047
127.5986,-0.0003155344
127.6986,-0.0003152509
127.7986,-0.0003150052
127.8986,-0.0003146859
127.9986,-0.0003143874
128.0986,-0.0003141538
128.1986,-0.0003138628
128.2986,-0.0003135596
128.3986,-0.0003132629
128.4986,-0.0003129974
128.5986,-0.0003126998
128.6987,-0.000312439
128.7987,-0.000312148
128.8987,-0.0003118937
128.9987,-0.0003116197
129.0987,-0.0003113343
129.1987,-0.0003110273
129.2987,-0.0003107711
129.3987,-0.0003104726
129.4987,-0.0003101807
129.5987,-0.0003099273
129.6987,-0.000309675
129.7987,-0.0003093538
129.8987,-0.0003090836
129.9987,-0.0003088331
130.0987,-0.0003085552
130.1987,-0.0003082821
130.2988,-0.0003080081
130.3988,-0.000307687
130.4988,-0.0003074383
130.5988,-0.000307152
130.6988,-0.0003068959
130.7988,-0.0003066304
130.8988,-0.0003063563
130.9988,-0.0003060822
131.0988,-0.0003058045
131.1988,-0.000305601
131.2988,-0.0003052912
131.3988,-0.0003050012
131.4988,-0.0003047742
131.5988,-0.0003044992
131.6988,-0.0003042054
131.7988,-0.000303938
131.8988,-0.0003037195
131.9989,-0.0003034294
132.0989,-0.000303161
132.1989,-0.0003028907
132.2989,-0.0003025969
132.3989,-0.0003023474
132.4989,-0.0003020705
132.5989,-0.0003017719
132.6989,-0.0003015196
132.7989,-0.0003012907
132.8989,-0.0003010346
132.9989,-0.0003007624
133.0989,-0.0003004705
133.1989,-0.0003001814
133.2989,-0.0002999469
133.3989,-0.0002996926
133.4989,-0.0002993818
133.599,-0.0002991031
133.699,-0.0002988761
133.799,-0.00029862
133.899,-0.0002983836
133.999,-0.0002980785
134.099,-0.0002977771
134.199,-0.0002975634
134.299,-0.0002973854
134.399,-0.0002970859
134.499,-0.0002968439
134.599,-0.0002966
134.699,-0.000296308
134.799,-0.0002960396
134.899,-0.0002958268
134.999,-0.000295548
135.099,-0.0002953079
135.1991,-0.0002950301
135.2991,-0.0002947758
135.3991,-0.0002945555
135.4991,-0.0002942871
135.5991,-0.0002940008
135.6991,-0.0002937333
135.7991,-0.0002934904
135.8991,-0.0002932361
135.9991,-0.0002929997
136.0991,-0.0002927304
136.1991,-0.000292446
136.2991,-0.0002922172
136.3991,-0.000291978
136.4991,-0.0002917171
136.5991,-0.0002914393
136.6991,-0.000291185
136.7991,-0.0002908884
136.8992,-0.0002906821
136.9992,-0.0002904269
137.0992,-0.0002901416
137.1992,-0.0002898958
137.2992,-0.0002896255
137.3992,-0.0002893976
137.4992,-0.0002891528
137.5992,-0.0002888994
137.6992,-0.0002886282
137.7992,-0.000288372
137.8992,-0.0002881423
137.9992,-0.00028784
138.0992,-0.0002876149
138.1992,-0.0002873663
138.2992,-0.0002870932
138.3992,-0.0002868446
138.4993,-0.000286611
138.5993,-0.0002863492
138.6993,-0.0002860742
138.7993,-0.0002858275
138.8993,-0.0002855902
138.9993,-0.0002853434
139.0993,-0.0002851033
139.1993,-0.00028485
139.2993,-0.0002846183
139.3993,-0.0002844036
139.4993,-0.000284187
139.5993,-0.0002839761
139.6993,-0.0002837265
139.7993,-0.0002834864
139.8993,-0.0002832236
139.9993,-0.0002829872
140.0993,-0.0002827217
140.1994,-0.0002824787
140.2994,-0.0002822602
140.3994,-0.0002819928
140.4994,-0.0002817611
140.5994,-0.0002815313
140.6994,-0.0002812498
140.7994,-0.0002810237
140.8994,-0.0002807808
140.9994,-0.0002804926
141.0994,-0.0002802995
141.1994,-0.0002800763
141.2994,-0.0002798306
141.3994,-0.0002795829
141.4994,-0.0002793493
141.5994,-0.0002791073
141.6994,-0.0002788333
141.7995,-0.0002786157
141.8995,-0.0002783436
141.9995,-0.0002781025
142.0995,-0.0002778661
142.1995,-0.0002776213
142.2995,-0.0002774395
142.3995,-0.0002772229
142.4995,-0.0002769677
142.5995,-0.0002767115
142.6995,-0.000276495
142.7995,-0.0002762812
142.8995,-0.0002760081
142.9995,-0.0002757444
143.0995,-0.0002755043
143.1995,-0.0002752415
143.2995,-0.0002750155
143.3996,-0.0002747829
143.4996,-0.0002745456
143.5996,-0.0002743402
143.6996,-0.0002741086
143.7996,-0.0002738506
143.8996,-0.0002737065
143.9996,-0.0002734551
144.0996,-0.000273165
144.1996,-0.0002729653
144.2996,-0.0002727478
144.3996,-0.0002724521
144.4996,-0.0002722355
144.5996,-0.0002720227
144.6996,-0.0002717599
144.7996,-0.0002715226
144.8996,-0.0002713333
144.9996,-0.000271063
145.0997,-0.0002708239
145.1997,-0.0002706176
145.2997,-0.0002703878
145.3997,-0.000270159
145.4997,-0.0002699085
145.5997,-0.0002696815
145.6997,-0.0002694696
145.7997,-0.0002692455
145.8997,-0.0002689997
145.9997,-0.0002687577
146.0997,-0.0002685345
146.1997,-0.0002682915
146.2997,-0.0002680749
146.3997,-0.0002678235
146.4997,-0.0002675796
146.5997,-0.0002673658
146.6998,-0.0002671445
146.7998,-0.0002668921
146.8998,-0.0002666981
146.9998,-0.0002664721
147.0998,-0.0002662367
147.1998,-0.0002660012
147.2998,-0.0002658016
147.3998,-0.0002655643
147.4998,-0.0002653373
147.5998,-0.0002651311
147.6998,-0.0002649051
147.7998,-0.0002646715
147.8998,-0.0002644709
147.9998,-0.0002642185
148.0998,-0.000264016
148.1998,-0.00026379
148.2999,-0.0002635791
148.3999,-0.0002633587
148.4999,-0.0002631732
148.5999,-0.000262918
148.6999,-0.000262692
148.7999,-0.0002624792
148.8999,-0.0002622578
148.9999,-0.000262028
149.0999,-0.000261836
149.1999,-0.00026156
149.2999,-0.0002613538
149.3999,-0.0002611438
149.4999,-0.0002609121
149.5999,-0.0002607134
149.6999,-0.0002604912
149.7999,-0.0002602171
149.8999,-0.0002600231
150,-0.0002598508
150.1,-0.0002595852
150.2,-0.000259395
150.3,-0.0002591737
150.4,-0.0002589655
150.5,-0.0002587169
150.6,-0.0002585484
150.7,-0.0002583261
150.8,-0.0002580888
150.9,-0.0002578741
151,-0.0002576453
151.1,-0.0002574522
151.2,-0.0002572459
151.3,-0.0002569888
151.4,-0.0002568297
151.5,-0.0002566489
151.6001,-0.0002564087
151.7001,-0.0002561517
151.8001,-0.0002559633
151.9001,-0.0002557486
152.0001,-0.000255533
152.1001,-0.0002553135
152.2001,-0.0002551289
152.3001,-0.000254902
152.4001,-0.0002546996
152.5001,-0.0002544641
152.6001,-0.0002542371
152.7001,-0.0002540639
152.8001,-0.0002538567
152.9001,-0.0002536231
153.0001,-0.0002534037
153.1001,-0.00025322
153.2001,-0.0002530035
153.3002,-0.0002528208
153.4002,-0.0002526437
153.5002,-0.0002523989
153.6002,-0.0002521747
153.7002,-0.0002519685
153.8002,-0.0002517679
153.9002,-0.0002515758
154.0002,-0.0002513281
154.1002,-0.0002511012
154.2002,-0.0002509053
154.3002,-0.000250715
154.4002,-0.0002504872
154.5002,-0.0002503026
154.6002,-0.0002500728
154.7002,-0.0002498609
154.8002,-0.0002496839
154.9003,-0.0002494889
155.0003,-0.0002492365
155.1003,-0.0002490463
155.2003,-0.000248825
155.3003,-0.0002486225
155.4003,-0.0002484134
155.5003,-0.0002482053
155.6003,-0.0002479708
155.7003,-0.0002477844
155.8003,-0.0002475979
155.9003,-0.0002474133
156.0003,-0.000247224
156.1003,-0.0002469933
156.2003,-0.0002467485
156.3003,-0.0002465856
156.4003,-0.0002463709
156.5004,-0.0002461561
156.6004,-0.0002459301
156.7004,-0.0002457192
156.8004,-0.0002455176
156.9004,-0.0002453227
157.0004,-0.000245108
157.1004,-0.0002448641
157.2004,-0.0002447077
157.3004,-0.0002445203
157.4004,-0.0002442698
157.5004,-0.0002441182
157.6004,-0.0002439214
157.7004,-0.0002436954
157.8004,-0.0002434901
157.9004,-0.000243282
158.0004,-0.0002430635
158.1004,-0.0002428714
158.2005,-0.0002426953
158.3005,-0.000242522
158.4005,-0.0002423186
158.5005,-0.0002421745
158.6005,-0.0002419626
158.7005,-0.0002417262
158.8005,-0.0002415642
158.9005,-0.0002413655
159.0005,-0.0002411047
159.1005,-0.0002409634
159.2005,-0.0002407176
159.3005,-0.000240518
159.4005,-0.0002403193
159.5005,-0.0002401498
159.6005,-0.0002399482
159.7005,-0.0002397288
159.8006,-0.0002395424
159.9006,-0.0002393465
160.0006,-0.0002391704
160.1006,-0.0002389528
160.2006,-0.000238757
160.3006,-0.0002385808
160.4006,-0.0002383953
160.5006,-0.000238175
160.6006,-0.0002379923
160.7006,-0.0002378133
160.8006,-0.0002376005
160.9006,-0.0002373886
161.0006,-0.0002372342
161.1006,-0.0002369987
161.2006,-0.0002368198
161.3006,-0.0002366795
161.4007,-0.0002364883
161.5007,-0.000236284
161.6007,-0.0002360805
161.7007,-0.0002359082
161.8007,-0.0002357217
161.9007,-0.0002355372
162.0007,-0.0002353196
162.1007,-0.0002351143
162.2007,-0.0002349335
162.3007,-0.0002347405
162.4007,-0.0002345493
162.5007,-0.0002343638
162.6007,-0.0002341547
162.7007,-0.0002339692
162.8007,-0.0002338072
162.9007,-0.0002335944
163.0007,-0.0002334239
163.1008,-0.0002332591
163.2008,-0.0002330274
163.3008,-0.0002328325
163.4008,-0.0002326668
163.5008,-0.0002324671
163.6008,-0.0002322844
163.7008,-0.0002321234
163.8008,-0.0002318823
163.9008,-0.0002317166
164.0008,-0.0002315508
164.1008,-0.000231321
164.2008,-0.0002311289
164.3008,-0.0002310065
164.4008,-0.0002308219
164.5008,-0.0002305987
164.6008,-0.0002304255
164.7009,-0.0002302333
164.8009,-0.0002300356
164.9009,-0.0002299066
165.0009,-0.000229689
165.1009,-0.0002294489
165.2009,-0.0002292944
165.3009,-0.0002291164
165.4009,-0.0002289281
165.5009,-0.0002287322
165.6009,-0.0002285655
165.7009,-0.0002283875
165.8009,-0.0002282096
165.9009,-0.000228024
166.0009,-0.0002278507
166.1009,-0.0002276765
166.2009,-0.0002275014
166.3009,-0.0002273008
166.401,-0.0002271689
166.501,-0.0002269636
166.601,-0.0002267583
166.701,-0.0002265728
166.801,-0.0002264448
166.901,-0.0002262555
167.001,-0.0002260417
167.101,-0.0002258778
167.201,-0.0002257253
167.301,-0.0002255454
167.401,-0.0002253862
167.501,-0.00022518
167.601,-0.000225002
167.701,-0.0002248598
167.801,-0.0002246686
167.901,-0.0002244803
168.0011,-0.0002243098
168.1011,-0.0002241177
168.2011,-0.0002238936
168.3011,-0.0002237344
168.4011,-0.0002235866
168.5011,-0.0002233794
168.6011,-0.0002231977
168.7011,-0.0002230282
168.8011,-0.000222852
168.9011,-0.0002227419
169.0011,-0.0002225385
169.1011,-0.0002223077
169.2011,-0.0002221684
169.3011,-0.0002219988
169.4011,-0.0002217907
169.5011,-0.000221625
169.6012,-0.000221431
169.7012,-0.0002213029
169.8012,-0.0002211532
169.9012,-0.0002209601
170.0012,-0.0002207416
170.1012,-0.0002205909
170.2012,-0.0002204356
170.3012,-0.0002202368
170.4012,-0.0002200457
170.5012,-0.0002198903
170.6012,-0.0002197001
170.7012,-0.0002195287
170.8012,-0.0002193516
170.9012,-0.0002191388
171.0012,-0.00021899
171.1012,-0.0002188243
171.2012,-0.0002186265
171.3013,-0.0002184551
171.4013,-0.0002182771
171.5013,-0.0002180925
171.6013,-0.0002179315
171.7013,-0.0002177997
171.8013,-0.000217616
171.9013,-0.0002174456
172.0013,-0.0002172845
172.1013,-0.0002170821
172.2013,-0.0002169201
172.3013,-0.00021676
172.4013,-0.0002165773
172.5013,-0.0002163984
172.6013,-0.0002162053
172.7013,-0.0002160593
172.8013,-0.0002158512
172.9014,-0.0002157109
173.0014,-0.0002155357
173.1014,-0.0002153653
173.2014,-0.000215209
173.3014,-0.0002150573
173.4014,-0.000214901
173.5014,-0.0002147428
173.6014,-0.0002145723
173.7014,-0.0002143689
173.8014,-0.0002142126
173.9014,-0.0002140525
174.0014,-0.0002138726
174.1014,-0.0002137267
174.2014,-0.0002135374
174.3014,-0.0002133679
174.4014,-0.0002131993
174.5014,-0.0002130571
174.6015,-0.0002128593
174.7015,-0.0002127021
174.8015,-0.000212542
174.9015,-0.0002123894
175.0015,-0.0002122312
175.1015,-0.0002120447
175.2015,-0.0002118601
175.3015,-0.0002117274
175.4015,-0.0002115645
175.5015,-0.0002113657
175.6015,-0.0002112264
175.7015,-0.0002110795
175.8015,-0.0002109024
175.9015,-0.0002107273
176.0015,-0.0002105662
176.1015,-0.0002104042
176.2016,-0.0002102752
176.3016,-0.0002100869
176.4016,-0.0002098967
176.5016,-0.0002097563
176.6016,-0.0002096047
176.7016,-0.0002094126
176.8016,-0.0002092374
176.9016,-0.0002090858
177.0016,-0.000208921
177.1016,-0.0002087619
177.2016,-0.0002085735
177.3016,-0.00020842
177.4016,-0.0002082985
177.5016,-0.0002081083
177.6016,-0.0002079642
177.7016,-0.0002077853
177.8017,-0.0002076289
177.9017,-0.0002074604
178.0017,-0.0002073238
178.1017,-0.0002071741
178.2017,-0.0002070036
178.3017,-0.0002068049
178.4017,-0.0002066627
178.5017,-0.0002064942
178.6017,-0.0002063623
178.7017,-0.0002061815
178.8017,-0.000206029
178.9017,-0.0002058434
179.0017,-0.0002057078
179.1017,-0.0002055402
179.2017,-0.0002053792
179.3017,-0.0002052407
179.4017,-0.000205042
179.5018,-0.0002049036
179.6018,-0.0002047529
179.7018,-0.0002045825
179.8018,-0.0002044233
179.9018,-0.0002042576
180.0018,-0.0002041078
180.1018,-0.0002039515
180.2018,-0.0002038065
180.3018,-0.0002036322
180.4018,-0.0002034995
180.5018,-0.0002033215
180.6018,-0.0002031501
180.7018,-0.0002030305
180.8018,-0.0002028751
180.9018,-0.0002026736
181.0018,-0.0002025474
181.1019,-0.0002024362
181.2019,-0.0002022828
181.3019,-0.0002020737
181.4019,-0.0002019173
181.5019,-0.0002018081
181.6019,-0.0002016716
181.7019,-0.0002014682
181.8019,-0.0002013269
181.9019,-0.0002011913
182.0019,-0.0002010604
182.1019,-0.0002008871
182.2019,-0.0002007138
182.3019,-0.0002005707
182.4019,-0.0002003917
182.5019,-0.0002002722
182.6019,-0.0002001601
182.702,-0.0001999727
182.802,-0.0001997796
182.902,-0.0001996233
183.002,-0.0001995009
183.102,-0.0001993408
183.202,-0.0001991891
183.302,-0.0001990328
183.402,-0.0001988652
183.502,-0.0001987192
183.602,-0.0001985902
183.702,-0.0001984518
183.802,-0.0001982926
183.902,-0.0001981344
184.002,-0.0001979724
184.102,-0.000197834
184.202,-0.0001976767
184.302,-0.0001975053
184.4021,-0.000197366
184.5021,-0.0001972247
184.6021,-0.0001970853
184.7021,-0.0001969601
184.8021,-0.0001967472
184.9021,-0.0001965862
185.0021,-0.0001964525
185.1021,-0.0001963188
185.2021,-0.0001961511
185.3021,-0.0001960136
185.4021,-0.0001958639
185.5021,-0.0001957038
185.6021,-0.0001955738
185.7021,-0.0001954392
185.8021,-0.0001952725
185.9021,-0.0001951096
186.0022,-0.0001949617
186.1022,-0.0001948045
186.2022,-0.0001946849
186.3022,-0.0001945144
186.4022,-0.0001943487
186.5022,-0.0001942121
186.6022,-0.0001940887
186.7022,-0.0001939333
186.8022,-0.0001937959
186.9022,-0.0001936188
187.0022,-0.0001934776
187.1022,-0.0001933344
187.2022,-0.0001932026
187.3022,-0.0001930472
187.4022,-0.0001929267
187.5022,-0.0001927741
187.6022,-0.000192598
187.7023,-0.0001924737
187.8023,-0.0001923437
187.9023,-0.0001921469
188.0023,-0.0001920235
188.1023,-0.0001919002
188.2023,-0.0001917335
188.3023,-0.000191595
188.4023,-0.0001914623
188.5023,-0.0001913031
188.6023,-0.000191192
188.7023,-0.0001910573
188.8023,-0.0001909019
188.9023,-0.0001907541
189.0023,-0.0001906345
189.1023,-0.0001904847
189.2023,-0.0001903567
189.3024,-0.0001901768
189.4024,-0.0001900271
189.5024,-0.0001899037
189.6024,-0.0001897492
189.7024,-0.0001895976
189.8024,-0.000189478
189.9024,-0.0001893368
190.0024,-0.0001891786
190.1024,-0.0001890524
190.2024,-0.0001888979
190.3024,-0.0001887482
190.4024,-0.0001886126
190.5024,-0.0001885099
190.6024,-0.0001883866
190.7024,-0.0001882076
190.8024,-0.000188121
190.9025,-0.0001879769
191.0025,-0.0001878168
191.1025,-0.0001876982
191.2025,-0.0001875701
191.3025,-0.0001874156
191.4025,-0.0001872913
191.5025,-0.0001871519
191.6025,-0.000187006
191.7025,-0.0001868948
191.8025,-0.0001867781
191.9025,-0.0001866057
192.0025,-0.0001864786
192.1025,-0.0001863618
192.2025,-0.0001861999
192.3025,-0.0001860708
192.4025,-0.0001859258
192.5025,-0.0001857761
192.6026,-0.0001856574
192.7026,-0.0001855171
192.8026,-0.0001853504
192.9026,-0.0001852186
193.0026,-0.0001850905
193.1026,-0.0001849605
193.2026,-0.0001848297
193.3026,-0.0001846865
193.4026,-0.0001845415
193.5026,-0.0001844219
193.6026,-0.0001842853
193.7026,-0.0001841073
193.8026,-0.0001839717
193.9026,-0.0001838766
194.0026,-0.0001837325
194.1026,-0.0001836129
194.2027,-0.0001834726
194.3027,-0.0001833097
194.4027,-0.0001832042
194.5027,-0.0001830808
194.6027,-0.0001829245
194.7027,-0.0001827559
194.8027,-0.0001826684
194.9027,-0.0001825459
195.0027,-0.0001823821
195.1027,-0.0001822672
195.2027,-0.0001821485
195.3027,-0.0001819913
195.4027,-0.000181866
195.5027,-0.000181736
195.6027,-0.0001815741
195.7027,-0.0001814563
195.8027,-0.0001813301
195.9028,-0.0001811701
196.0028,-0.0001810571
196.1028,-0.0001809196
196.2028,-0.0001807529
196.3028,-0.0001806427
196.4028,-0.0001805137
196.5028,-0.0001803527
196.6028,-0.0001802396
196.7028,-0.0001801144
196.8028,-0.0001799618
196.9028,-0.0001798601
197.0028,-0.0001797358
197.1028,-0.0001796011
197.2028,-0.0001794655
197.3028,-0.000179361
197.4028,-0.0001792066
197.5029,-0.0001790766
197.6029,-0.0001789297
197.7029,-0.0001788016
197.8029,-0.0001787112
197.9029,-0.0001785737
198.0029,-0.0001784136
198.1029,-0.000178295
198.2029,-0.0001781895
198.3029,-0.0001780153
198.4029,-0.0001779098
198.5029,-0.000177778
198.6029,-0.0001775962
198.7029,-0.0001775115
198.8029,-0.00017739
198.9029,-0.0001772336
199.0029,-0.0001770764
199.103,-0.0001770039
199.203,-0.0001768616
199.303,-0.0001767581
199.403,-0.0001766564
199.503,-0.000176468
199.603,-0.0001763324
199.703,-0.0001762797
199.803,-0.0001761224
199.903,-0.0001759632
200.003,-0.0001758681
200.103,-0.0001757372
200.203,-0.0001755734
200.303,-0.0001754688
200.403,-0.0001753257
200.503,-0.000175175
200.603,-0.000175062
200.703,-0.0001749264
200.8031,-0.000174803
200.9031,-0.0001746759
201.0031,-0.0001745535
201.1031,-0.0001744037
201.2031,-0.0001743142
201.3031,-0.0001741758
201.4031,-0.0001740477
201.5031,-0.0001739611
201.6031,-0.0001738208
201.7031,-0.0001736861
201.8031,-0.0001735185
201.9031,-0.0001734422
202.0031,-0.0001733057
202.1031,-0.0001731672
202.2031,-0.0001730345
202.3031,-0.0001728875
202.4032,-0.0001728037
202.5032,-0.00017267
202.6032,-0.0001725306
202.7032,-0.0001723988
202.8032,-0.0001723018
202.9032,-0.0001721756
203.0032,-0.0001720456
203.1032,-0.0001719072
203.2032,-0.0001717829
203.3032,-0.0001716821
203.4032,-0.0001715757
203.5032,-0.0001714137
203.6032,-0.000171296
203.7032,-0.0001711745
203.8032,-0.0001710389
203.9032,-0.0001709259
204.0033,-0.0001707884
204.1033,-0.0001706396
204.2033,-0.0001705219
204.3033,-0.0001704193
204.4033,-0.0001702488
204.5033,-0.0001701405
204.6033,-0.0001700181
204.7033,-0.0001699032
204.8033,-0.0001697554
204.9033,-0.000169631
205.0033,-0.0001695322
205.1033,-0.0001694229
205.2033,-0.0001693024
205.3033,-0.0001691574
205.4033,-0.0001690726
205.5033,-0.0001689756
205.6033,-0.000168823
205.7034,-0.0001686968
205.8034,-0.0001686083
205.9034,-0.0001685141
206.0034,-0.0001683908
206.1034,-0.0001682881
206.2034,-0.000168113
206.3034,-0.0001680169
206.4034,-0.0001679218
206.5034,-0.0001677447
206.6034,-0.0001676543
206.7034,-0.0001675168
206.8034,-0.000167353
206.9034,-0.0001672409
207.0034,-0.0001671298
207.1034,-0.0001669885
207.2034,-0.0001668426
207.3035,-0.0001667531
207.4035,-0.0001666128
207.5035,-0.00016648
207.6035,-0.0001664159
207.7035,-0.0001662945
207.8035,-0.0001661221
207.9035,-0.0001660289
208.0035,-0.000165947
208.1035,-0.000165785
208.2035,-0.0001656777
208.3035,-0.0001655392
208.4035,-0.0001654366
208.5035,-0.0001653433
208.6035,-0.00016522
208.7035,-0.0001650561
208.8035,-0.0001649572
208.9035,-0.0001648442
209.0036,-0.0001647256
209.1036,-0.0001646314
209.2036,-0.0001644826
209.3036,-0.0001643724
209.4036,-0.0001642848
209.5036,-0.0001641549
209.6036,-0.0001640155
209.7036,-0.0001639317
209.8036,-0.0001638375
209.9036,-0.0001636962
210.0036,-0.0001635898
210.1036,-0.0001634806
210.2036,-0.0001633572
210.3036,-0.0001632489
210.4036,-0.0001631322
210.5036,-0.0001630107
210.6037,-0.0001629108
210.7037,-0.0001627978
210.8037,-0.0001626283
210.9037,-0.0001625257
211.0037,-0.0001624588
211.1037,-0.0001623194
211.2037,-0.0001622206
211.3037,-0.0001621038
211.4037,-0.0001619804
211.5037,-0.0001618853
211.6037,-0.0001617676
211.7037,-0.0001616178
211.8037,-0.0001614945
211.9037,-0.0001614097
212.0037,-0.0001612788
212.1037,-0.0001611677
212.2038,-0.0001610509
212.3038,-0.0001609614
212.4038,-0.0001608607
212.5038,-0.0001607477
212.6038,-0.0001606243
212.7038,-0.0001604962
212.8038,-0.0001604341
212.9038,-0.0001602862
213.0038,-0.0001601544
213.1038,-0.0001600574
213.2038,-0.0001599161
213.3038,-0.0001598285
213.4038,-0.0001597193
213.5038,-0.0001596167
213.6038,-0.0001594735
213.7038,-0.0001593652
213.8038,-0.0001592748
213.9039,-0.0001591778
214.0039,-0.0001590714
214.1039,-0.0001589028
214.2039,-0.0001587757
214.3039,-0.0001587173
214.4039,-0.0001586024
214.5039,-0.00015848
214.6039,-0.0001583566
214.7039,-0.0001582643
214.8039,-0.0001581476
214.9039,-0.0001580722
215.0039,-0.0001579432
215.1039,-0.0001578292
215.2039,-0.0001577407
215.3039,-0.0001576381
215.4039,-0.0001575072
215.504,-0.0001574045
215.604,-0.0001572991
215.704,-0.0001571955
215.804,-0.0001570608
215.904,-0.0001569553
216.004,-0.000156815
216.104,-0.0001567444
216.204,-0.000156638
216.304,-0.0001565005
216.404,-0.0001564138
216.504,-0.0001562933
216.604,-0.0001561539
216.704,-0.0001560786
216.804,-0.0001559891
216.904,-0.0001558384
217.004,-0.000155732
217.104,-0.0001556416
217.2041,-0.0001555154
217.3041,-0.0001554438
217.4041,-0.0001553516
217.5041,-0.0001551943
217.6041,-0.0001551001
217.7041,-0.0001550097
217.8041,-0.0001548863
217.9041,-0.0001547978
218.0041,-0.0001546942
218.1041,-0.0001545473
218.2041,-0.0001544334
218.3041,-0.0001543533
218.4041,-0.0001542431
218.5041,-0.0001541556
218.6041,-0.0001540237
218.7041,-0.0001538919
218.8042,-0.000153793
218.9042,-0.0001537233
219.0042,-0.0001536075
219.1042,-0.0001534982
219.2042,-0.000153389
219.3042,-0.0001532863
219.4042,-0.0001531875
219.5042,-0.0001530584
219.6042,-0.0001529549
219.7042,-0.0001528466
219.8042,-0.0001527722
219.9042,-0.0001526582
220.0042,-0.0001525104
220.1042,-0.0001524378
220.2042,-0.0001523399
220.3042,-0.000152241
220.4043,-0.0001521572
220.5043,-0.0001520602
220.6043,-0.0001519237
220.7043,-0.0001518257
220.8043,-0.0001517353
220.9043,-0.0001516091
221.0043,-0.0001515244
221.1043,-0.0001514095
221.2043,-0.0001512757
221.3043,-0.0001511825
221.4043,-0.0001510836
221.5043,-0.0001509734
221.6043,-0.0001508878
221.7043,-0.000150755
221.8043,-0.0001506222
221.9043,-0.0001505459
222.0043,-0.0001504536
222.1044,-0.0001503463
222.2044,-0.0001502399
222.3044,-0.0001501466
222.4044,-0.0001500261
222.5044,-0.0001499507
222.6044,-0.0001498641
222.7044,-0.0001497454
222.8044,-0.0001496494
222.9044,-0.0001495392
223.0044,-0.0001494337
223.1044,-0.0001493584
223.2044,-0.0001492548
223.3044,-0.0001491182
223.4044,-0.000149025
223.5044,-0.0001489497
223.6044,-0.0001488517
223.7045,-0.0001487444
223.8045,-0.0001486398
223.9045,-0.0001485542
224.0045,-0.000148444
224.1045,-0.0001483583
224.2045,-0.0001482377
224.3045,-0.0001481351
224.4045,-0.0001480513
224.5045,-0.0001479288
224.6045,-0.0001478554
224.7045,-0.0001477706
224.8045,-0.0001476152
224.9045,-0.0001475248
225.0045,-0.0001474617
225.1045,-0.0001473506
225.2045,-0.0001472508
225.3046,-0.000147151
225.4046,-0.0001470672
225.5046,-0.0001469673
225.6046,-0.0001468779
225.7046,-0.000146746
225.8046,-0.0001466424
225.9046,-0.0001465718
226.0046,-0.0001464644
226.1046,-0.0001463496
226.2046,-0.0001462959
226.3046,-0.0001462158
226.4046,-0.0001460868
226.5046,-0.0001459804
226.6046,-0.0001458985
226.7046,-0.000145777
226.8046,-0.0001457356
226.9046,-0.0001455962
227.0047,-0.0001454691
227.1047,-0.000145404
227.2047,-0.0001453193
227.3047,-0.0001452166
227.4047,-0.0001451149
227.5047,-0.0001450085
227.6047,-0.0001448654
227.7047,-0.0001448032
227.8047,-0.0001447251
227.9047,-0.0001446017
228.0047,-0.0001445254
228.1047,-0.0001444171
228.2047,-0.0001443436
228.3047,-0.0001442551
228.4047,-0.0001441525
228.5047,-0.0001440084
228.6048,-0.0001439406
228.7048,-0.0001438464
228.8048,-0.0001437485
228.9048,-0.000143659
229.0048,-0.0001435554
229.1048,-0.0001434434
229.2048,-0.000143369
229.3048,-0.000143304
229.4048,-0.0001431448
229.5048,-0.0001430544
229.6048,-0.0001429885
229.7048,-0.000142868
229.8048,-0.0001428011
229.9048,-0.0001426853
230.0048,-0.0001425807
230.1048,-0.0001424734
230.2048,-0.0001424065
230.3049,-0.0001422935
230.4049,-0.0001422078
230.5049,-0.0001421155
230.6049,-0.0001419856
230.7049,-0.0001419046
230.8049,-0.0001418283
230.9049,-0.0001417369
231.0049,-0.0001416419
231.1049,-0.0001415637
231.2049,-0.0001414384
231.3049,-0.000141365
231.4049,-0.0001412972
231.5049,-0.0001411634
231.6049,-0.0001410551
231.7049,-0.0001409958
231.8049,-0.0001408828
231.905,-0.0001407886
232.005,-0.0001406832
232.105,-0.000140557
232.205,-0.0001404901
232.305,-0.0001404298
232.405,-0.0001402782
232.505,-0.0001401963
232.605,-0.0001401793
232.705,-0.0001400899
232.805,-0.0001399684
232.905,-0.0001398582
233.005,-0.0001397885
233.105,-0.0001396887
233.205,-0.0001395992
233.305,-0.0001395003
233.405,-0.0001393873
233.5051,-0.0001393111
233.6051,-0.0001392254
233.7051,-0.0001391472
233.8051,-0.0001390624
233.9051,-0.0001389833
234.0051,-0.0001388826
234.1051,-0.0001387959
234.2051,-0.0001387074
234.3051,-0.0001386057
234.4051,-0.000138536
234.5051,-0.0001384221
234.6051,-0.0001383458
234.7051,-0.0001382459
234.8051,-0.000138164
234.9051,-0.0001380585
235.0051,-0.0001379992
235.1051,-0.0001378796
235.2052,-0.0001377553
235.3052,-0.0001377271
235.4052,-0.0001376367
235.5052,-0.0001375189
235.6052,-0.0001374144
235.7052,-0.0001373344
235.8052,-0.0001372364
235.9052,-0.0001371846
236.0052,-0.0001370886
236.1052,-0.0001369859
236.2052,-0.0001368852
236.3052,-0.0001367881
236.4052,-0.0001367137
236.5052,-0.0001366299
236.6052,-0.0001365489
236.7052,-0.000136419
236.8053,-0.0001363257
236.9053,-0.000136257
237.0053,-0.0001361741
237.1053,-0.0001360922
237.2053,-0.0001359886
237.3053,-0.0001358615
237.4053,-0.0001357918
237.5053,-0.0001357193
237.6053,-0.0001356185
237.7053,-0.0001354942
237.8053,-0.00013545
237.9053,-0.0001353765
238.0053,-0.0001352842
238.1053,-0.0001351966
238.2053,-0.0001350789
238.3053,-0.0001349951
238.4053,-0.0001349264
238.5054,-0.0001348303
238.6054,-0.0001347484
238.7054,-0.0001346683
238.8054,-0.0001345167
238.9054,-0.0001344649
239.0054,-0.0001344009
239.1054,-0.0001343029
239.2054,-0.0001341918
239.3054,-0.0001341287
239.4054,-0.0001340486
239.5054,-0.0001339159
239.6054,-0.0001338679
239.7054,-0.0001338
239.8054,-0.0001336917
239.9054,-0.0001336409
240.0054,-0.0001335147
240.1055,-0.0001334337
240.2055,-0.0001333857
240.3055,-0.0001332924
240.4055,-0.0001331955
240.5055,-0.0001331041
240.6055,-0.0001330382
240.7055,-0.000132927
240.8055,-0.0001328696
240.9055,-0.0001327849
241.0055,-0.0001326832
241.1055,-0.0001326003
241.2055,-0.0001325033
241.3055,-0.000132395
241.4055,-0.0001323272
241.5055,-0.0001322387
241.6055,-0.000132153
241.7056,-0.0001320513
241.8056,-0.0001319721
241.9056,-0.0001318893
242.0056,-0.0001318007
242.1056,-0.0001317264
242.2056,-0.000131635
242.3056,-0.0001315813
242.4056,-0.0001314683
242.5056,-0.0001313826
242.6056,-0.0001313073
242.7056,-0.0001312188
242.8056,-0.0001311152
242.9056,-0.0001310464
243.0056,-0.0001309598
243.1056,-0.0001308741
243.2056,-0.0001307903
243.3056,-0.0001307083
243.4057,-0.0001306537
243.5057,-0.0001305576
243.6057,-0.0001304965
243.7057,-0.0001303816
243.8057,-0.0001302864
243.9057,-0.0001302591
244.0057,-0.0001301772
244.1057,-0.0001300717
244.2057,-0.0001299842
244.3057,-0.0001299013
244.4057,-0.0001298306
244.5057,-0.0001297619
244.6057,-0.0001296395
244.7057,-0.0001295481
244.8057,-0.0001295283
244.9057,-0.0001294069
245.0058,-0.0001293052
245.1058,-0.0001292496
245.2058,-0.000129162
245.3058,-0.0001290754
245.4058,-0.0001290076
245.5058,-0.0001288983
245.6058,-0.000128823
245.7058,-0.0001287533
245.8058,-0.0001286732
245.9058,-0.0001285885
246.0058,-0.0001285179
246.1058,-0.0001284623
246.2058,-0.0001283446
246.3058,-0.0001282787
246.4058,-0.0001282184
246.5058,-0.0001281186
246.6059,-0.0001280216
246.7059,-0.0001279773
246.8059,-0.0001278803
246.9059,-0.0001278069
247.0059,-0.0001277438
247.1059,-0.000127675
247.2059,-0.0001276439
247.3059,-0.0001275582
247.4059,-0.0001274829
247.5059,-0.0001273953
247.6059,-0.0001273454
247.7059,-0.0001272785
247.8059,-0.0001272004
247.9059,-0.0001271382
248.0059,-0.0001270667
248.1059,-0.00012698
248.2059,-0.0001269131
248.306,-0.0001268001
248.406,-0.0001267361
248.506,-0.0001266617
248.606,-0.0001265638
248.706,-0.0001264677
248.806,-0.0001264197
248.906,-0.0001263378
249.006,-0.0001262436
249.106,-0.0001261635
249.206,-0.0001260891
249.306,-0.0001259959
249.406,-0.0001259498
249.506,-0.0001258481
249.606,-0.0001257539
249.706,-0.0001257021
249.806,-0.0001256258
249.9061,-0.0001255514
250.0061,-0.0001254808
250.1061,-0.0001253791
250.2061,-0.0001252877
250.3061,-0.0001252416
250.4061,-0.0001251578
250.5061,-0.0001250485
250.6061,-0.0001249826
250.7061,-0.0001249214
250.8061,-0.0001248187
250.9061,-0.0001247613
251.0061,-0.0001246671
251.1061,-0.0001245645
251.2061,-0.0001245391
251.3061,-0.0001244788
251.4061,-0.0001243309
251.5061,-0.0001242951
251.6062,-0.000124217
251.7062,-0.0001241548
251.8062,-0.0001240691
251.9062,-0.0001239985
252.0062,-0.0001238836
252.1062,-0.0001237979
252.2062,-0.0001237555
252.3062,-0.0001236745
252.4062,-0.0001235973
252.5062,-0.0001234815
252.6062,-0.0001233967
252.7062,-0.000123376
252.8062,-0.0001232903
252.9062,-0.0001231933
253.0062,-0.0001231039
253.1062,-0.0001230549
253.2063,-0.0001229739
253.3063,-0.0001229089
253.4063,-0.0001227921
253.5063,-0.0001227469
253.6063,-0.0001227027
253.7063,-0.0001226094
253.8063,-0.0001224964
253.9063,-0.0001224418
254.0063,-0.0001223655
254.1063,-0.0001222704
254.2063,-0.0001222243
254.3063,-0.0001221433
254.4063,-0.0001220312
254.5063,-0.0001219813
254.6063,-0.0001218853
254.7063,-0.0001218146
254.8064,-0.00012176
254.9064,-0.0001216649
255.0064,-0.0001215773
255.1064,-0.0001215255
255.2064,-0.0001214153
255.3064,-0.0001213221
255.4064,-0.000121276
255.5064,-0.0001212345
255.6064,-0.0001211074
255.7064,-0.0001210264
255.8064,-0.000121
255.9064,-0.0001209021
256.0064,-0.0001208183
256.1064,-0.0001207627
256.2064,-0.0001207166
256.3064,-0.0001206017
256.4064,-0.0001205395
256.5064,-0.0001204962
256.6064,-0.0001204453
256.7065,-0.0001203455
256.8065,-0.0001202401
256.9065,-0.0001201911
257.0065,-0.0001201459
257.1065,-0.0001200423
257.2065,-0.00011995
257.3065,-0.000119902
257.4065,-0.0001198266
257.5065,-0.0001197419
257.6065,-0.0001196807
257.7065,-0.0001196176
257.8065,-0.0001195281
257.9065,-0.0001194368
258.0065,-0.0001193868
258.1065,-0.0001192993
258.2065,-0.0001192051
258.3065,-0.0001191618
258.4066,-0.0001190619
258.5066,-0.0001190083
258.6066,-0.0001189499
258.7066,-0.0001188501
258.8066,-0.0001187851
258.9066,-0.0001186956
259.0066,-0.0001185948
259.1066,-0.0001185449
259.2066,-0.0001184913
259.3066,-0.0001183999
259.4066,-0.0001182991
259.5066,-0.0001182624
259.6066,-0.0001181852
259.7066,-0.0001181051
259.8066,-0.0001180411
259.9066,-0.0001179498
260.0067,-0.0001179159
260.1067,-0.0001178537
260.2067,-0.0001177529
260.3067,-0.0001176719
260.4067,-0.0001176437
260.5067,-0.0001175636
260.6067,-0.000117478
260.7067,-0.000117428
260.8067,-0.0001173197
260.9067,-0.0001172529
261.0067,-0.000117203
261.1067,-0.0001171031
261.2067,-0.0001170504
261.3067,-0.0001169949
261.4067,-0.0001169054
261.5067,-0.0001167961
261.6068,-0.0001167782
261.7068,-0.0001167001
261.8068,-0.0001165899
261.9068,-0.0001165588
262.0068,-0.0001164986
262.1068,-0.000116411
262.2068,-0.000116313
262.3068,-0.0001162998
262.4068,-0.000116232
262.5068,-0.0001161171
262.6068,-0.0001160296
262.7068,-0.0001159702
262.8068,-0.0001159128
262.9068,-0.0001158572
263.0068,-0.0001157442
263.1068,-0.0001156811
263.2068,-0.0001156303
263.3069,-0.0001155436
263.4069,-0.0001154683
263.5069,-0.000115408
263.6069,-0.0001153402
263.7069,-0.0001152884
263.8069,-0.0001152103
263.9069,-0.0001151302
264.0069,-0.000115037
264.1069,-0.0001150191
264.2069,-0.0001149438
264.3069,-0.0001148628
264.4069,-0.0001148072
264.5069,-0.0001147027
264.6069,-0.0001146885
264.7069,-0.0001145821
264.8069,-0.0001145162
264.907,-0.0001144654
265.007,-0.0001144107
265.107,-0.0001143053
265.207,-0.0001142214
265.307,-0.0001142111
265.407,-0.000114132
265.507,-0.0001140114
265.607,-0.0001139662
265.707,-0.0001138937
265.807,-0.0001138203
265.907,-0.0001137732
266.007,-0.0001137063
266.107,-0.0001136046
266.207,-0.0001135726
266.307,-0.0001134963
266.407,-0.0001134087
266.507,-0.0001133447
266.6071,-0.0001133004
266.7071,-0.0001132053
266.8071,-0.0001131592
266.9071,-0.0001130622
267.0071,-0.0001129812
267.1071,-0.0001129247
267.2071,-0.0001128691
267.3071,-0.0001128107
267.4071,-0.0001127448
267.5071,-0.0001126855
267.6071,-0.0001126299
267.7071,-0.0001125518
267.8071,-0.000112499
267.9071,-0.0001123992
268.0071,-0.0001123568
268.1071,-0.0001122721
268.2072,-0.0001121845
268.3072,-0.0001121704
268.4072,-0.0001121327
268.5072,-0.0001120084
268.6072,-0.0001119274
268.7072,-0.0001118963
268.8072,-0.0001118389
268.9072,-0.0001117315
269.0072,-0.0001116741
269.1072,-0.0001115884
269.2072,-0.0001115158
269.3072,-0.0001114678
269.4072,-0.0001113925
269.5072,-0.0001112917
269.6072,-0.0001112625
269.7072,-0.0001112051
269.8073,-0.0001110996
269.9073,-0.0001110365
270.0073,-0.0001110064
270.1073,-0.0001108783
270.2073,-0.0001108416
270.3073,-0.0001107549
270.4073,-0.0001106909
270.5073,-0.0001106768
270.6073,-0.0001106269
270.7073,-0.0001105308
270.8073,-0.0001104489
270.9073,-0.0001103971
271.0073,-0.0001103302
271.1073,-0.0001102652
271.2073,-0.0001101786
271.3073,-0.000110092
271.4073,-0.0001100656
271.5074,-0.00011001
271.6074,-0.0001099102
271.7074,-0.0001098556
271.8074,-0.0001097802
271.9074,-0.0001097341
272.0074,-0.0001096663
272.1074,-0.0001096051
272.2074,-0.0001095269
272.3074,-0.0001094751
272.4074,-0.000109445
272.5074,-0.0001093348
272.6074,-0.0001092623
272.7074,-0.000109267
272.8074,-0.000109218
272.9074,-0.0001091257
273.0074,-0.0001090504
273.1075,-0.0001089892
273.2075,-0.0001089044
273.3075,-0.0001088696
273.4075,-0.0001087754
273.5075,-0.0001087048
273.6075,-0.0001086511
273.7075,-0.0001085899
273.8075,-0.0001085277
273.9075,-0.0001084703
274.0075,-0.0001083931
274.1075,-0.0001083168
274.2075,-0.0001082706
274.3075,-0.0001082038
274.4075,-0.0001081435
274.5075,-0.0001080842
274.6075,-0.0001079749
274.7076,-0.0001079608
274.8076,-0.0001079363
274.9076,-0.0001078497
275.0076,-0.0001077612
275.1076,-0.0001077103
275.2076,-0.0001076623
275.3076,-0.0001075813
275.4076,-0.0001075276
275.5076,-0.0001074589
275.6076,-0.0001073835
275.7076,-0.0001073223
275.8076,-0.0001072639
275.9076,-0.0001072121
276.0076,-0.0001071782
276.1076,-0.0001071133
276.2076,-0.0001070068
276.3076,-0.0001069852
276.4077,-0.0001068938
276.5077,-0.0001068515
276.6077,-0.0001067912
276.7077,-0.0001067243
276.8077,-0.0001066584
276.9077,-0.0001066066
277.0077,-0.0001065426
277.1077,-0.0001064851
277.2077,-0.0001064362
277.3077,-0.0001063467
277.4077,-0.00010626
277.5077,-0.0001062365
277.6077,-0.0001061941
277.7077,-0.0001060755
277.8077,-0.000106003
277.9077,-0.000106003
278.0078,-0.000105953
278.1078,-0.0001058617
278.2078,-0.0001058146
278.3078,-0.0001057835
278.4078,-0.0001057007
278.5078,-0.0001056376
278.6078,-0.0001055726
278.7078,-0.0001054746
278.8078,-0.0001054681
278.9078,-0.0001053965
279.0078,-0.0001053146
279.1078,-0.0001052618
279.2078,-0.0001051808
279.3078,-0.0001051337
279.4078,-0.0001050688
279.5078,-0.0001050273
279.6078,-0.0001049482
279.7079,-0.0001048983
279.8079,-0.0001048352
279.9079,-0.0001047674
280.0079,-0.00010471
280.1079,-0.0001046459
280.2079,-0.0001045781
280.3079,-0.0001045254
280.4079,-0.0001044604
280.5079,-0.0001043982
280.6079,-0.0001043756
280.7079,-0.0001042899
280.8079,-0.0001042203
280.9079,-0.0001041835
281.0079,-0.0001041506
281.1079,-0.0001040432
281.2079,-0.0001040046
281.308,-0.0001039622
281.408,-0.000103885
281.508,-0.0001038181
281.608,-0.0001037645
281.708,-0.0001036948
281.808,-0.0001036373
281.908,-0.0001035629
282.008,-0.000103498
282.108,-0.0001034791
282.208,-0.0001034113
282.308,-0.0001032993
282.408,-0.0001033228
282.508,-0.0001032663
282.608,-0.0001031646
282.708,-0.0001030987
282.808,-0.0001030629
282.9081,-0.0001030026
283.0081,-0.0001029433
283.1081,-0.0001028642
283.2081,-0.0001028011
283.3081,-0.0001027333
283.4081,-0.0001026796
283.5081,-0.0001026391
283.6081,-0.0001025751
283.7081,-0.0001025195
283.8081,-0.0001024216
283.9081,-0.0001023858
284.0081,-0.0001023453
284.1081,-0.000102269
284.2081,-0.0001021842
284.3081,-0.0001021597
284.4081,-0.000102108
284.5081,-0.0001020505
284.6082,-0.000101978
284.7082,-0.0001019243
284.8082,-0.0001018499
284.9082,-0.0001018217
285.0082,-0.000101768
285.1082,-0.000101703
285.2082,-0.0001016248
285.3082,-0.0001015721
285.4082,-0.0001015005
285.5082,-0.0001014826
285.6082,-0.0001014158
285.7082,-0.0001013339
285.8082,-0.0001012849
285.9082,-0.0001012444
286.0082,-0.0001011803
286.1082,-0.0001011238
286.2083,-0.0001010739
286.3083,-0.0001009967
286.4083,-0.0001009496
286.5083,-0.0001008903
286.6083,-0.000100831
286.7083,-0.000100815
286.8083,-0.0001007359
286.9083,-0.0001006568
287.0083,-0.0001005889
287.1083,-0.0001005494
287.2083,-0.0001004788
287.3083,-0.000100442
287.4083,-0.0001003658
287.5083,-0.000100297
287.6083,-0.0001002687
287.7083,-0.0001002188
287.8083,-0.0001001303
287.9084,-0.0001000842
288.0084,-0.0001000399
288.1084,-9.997776E-05
288.2084,-9.990807E-05
288.3084,-9.985721E-05
288.4084,-9.978471E-05
288.5084,-9.974703E-05
288.6084,-9.969335E-05
288.7084,-9.962743E-05
288.8084,-9.955681E-05
288.9084,-9.955021E-05
289.0084,-9.947299E-05
289.1084,-9.93807E-05
289.2084,-9.936187E-05
289.3084,-9.930913E-05
289.4084,-9.922061E-05
289.5085,-9.917164E-05
289.6085,-9.913398E-05
289.7085,-9.910854E-05
289.8085,-9.903791E-05
289.9085,-9.896351E-05
290.0085,-9.89023E-05
290.1085,-9.885993E-05
290.2085,-9.882131E-05
290.3085,-9.874974E-05
290.4085,-9.868099E-05
290.5085,-9.862638E-05
290.6085,-9.859435E-05
290.7085,-9.855669E-05
290.8085,-9.846722E-05
290.9085,-9.842014E-05
291.0085,-9.841072E-05
291.1086,-9.836269E-05
291.2086,-9.825062E-05
291.3086,-9.820071E-05
291.4086,-9.816492E-05
291.5086,-9.810089E-05
291.6086,-9.808488E-05
291.7086,-9.803213E-05
291.8086,-9.790501E-05
291.9086,-9.786733E-05
292.0086,-9.782308E-05
292.1086,-9.776469E-05
292.2086,-9.771196E-05
292.3086,-9.766298E-05
292.4086,-9.757164E-05
292.5086,-9.755186E-05
292.6086,-9.75236E-05
292.7086,-9.744921E-05
292.8087,-9.737011E-05
292.9087,-9.731831E-05
293.0087,-9.726086E-05
293.1087,-9.720813E-05
293.2087,-9.715633E-05
293.3087,-9.708665E-05
293.4087,-9.705274E-05
293.5087,-9.700189E-05
293.6087,-9.692372E-05
293.7087,-9.687193E-05
293.8087,-9.682578E-05
293.9087,-9.677021E-05
294.0087,-9.671938E-05
294.1087,-9.666192E-05
294.2087,-9.661577E-05
294.3087,-9.655175E-05
294.4088,-9.652443E-05
294.5088,-9.646793E-05
294.6088,-9.639258E-05
294.7088,-9.635586E-05
294.8088,-9.630407E-05
294.9088,-9.62598E-05
295.0088,-9.620989E-05
295.1088,-9.612231E-05
295.2088,-9.609029E-05
295.3088,-9.603285E-05
295.4088,-9.600366E-05
295.5088,-9.59575E-05
295.6088,-9.589065E-05
295.7088,-9.582378E-05
295.8088,-9.578611E-05
295.9088,-9.574091E-05
296.0089,-9.568064E-05
296.1089,-9.562696E-05
296.2089,-9.55827E-05
296.3089,-9.550076E-05
296.4089,-9.546498E-05
296.5089,-9.542731E-05
296.6089,-9.537175E-05
296.7089,-9.530583E-05
296.8089,-9.526627E-05
296.9089,-9.522013E-05
297.0089,-9.515421E-05
297.1089,-9.51269E-05
297.2089,-9.50525E-05
297.3089,-9.498188E-05
297.4089,-9.497622E-05
297.5089,-9.488958E-05
297.6089,-9.483214E-05
297.709,-9.480012E-05
297.809,-9.478128E-05
297.909,-9.47003E-05
298.009,-9.462119E-05
298.109,-9.459483E-05
298.209,-9.457693E-05
298.309,-9.451383E-05
298.409,-9.443378E-05
298.509,-9.438387E-05
298.609,-9.43415E-05
298.709,-9.429347E-05
298.809,-9.424544E-05
298.909,-9.416728E-05
299.009,-9.41362E-05
299.109,-9.40778E-05
299.209,-9.40213E-05
299.3091,-9.396009E-05
299.4091,-9.392619E-05
299.5091,-9.388287E-05
299.6091,-9.382072E-05
299.7091,-9.37482E-05
299.8091,-9.370864E-05
299.9091,-9.368417E-05
300.0091,-9.359564E-05
300.1091,-9.35674E-05
300.2091,-9.351843E-05
300.3091,-9.34751E-05
300.4091,-9.343932E-05
300.5091,-9.339977E-05
300.6091,-9.329712E-05
300.7091,-9.324626E-05
300.8091,-9.32472E-05
300.9091,-9.316433E-05
301.0092,-9.312289E-05
301.1092,-9.310123E-05
301.2092,-9.3008E-05
301.3092,-9.298541E-05
301.4092,-9.292607E-05
301.5092,-9.285167E-05
301.6092,-9.284886E-05
301.7092,-9.280742E-05
301.8092,-9.273302E-05
301.9092,-9.266051E-05
302.0092,-9.265015E-05
302.1092,-9.25701E-05
302.2092,-9.251547E-05
302.3092,-9.247875E-05
302.4092,-9.242979E-05
302.5092,-9.237045E-05
302.6093,-9.231207E-05
302.7093,-9.224332E-05
302.8093,-9.22E-05
302.9093,-9.216327E-05
303.0093,-9.210771E-05
303.1093,-9.202577E-05
303.2093,-9.199564E-05
303.3093,-9.194102E-05
303.4093,-9.186663E-05
303.5093,-9.180824E-05
303.6093,-9.178469E-05
303.7093,-9.171877E-05
303.8093,-9.167828E-05
303.9093,-9.161518E-05
304.0093,-9.153891E-05
304.1093,-9.149841E-05
304.2094,-9.148334E-05
304.3094,-9.140141E-05
304.4094,-9.134114E-05
304.5094,-9.128652E-05
304.6094,-9.125732E-05
304.7094,-9.124414E-05
304.8094,-9.118293E-05
304.9094,-9.11123E-05
305.0094,-9.106804E-05
305.1094,-9.103508E-05
305.2094,-9.097292E-05
305.3094,-9.092395E-05
305.4094,-9.089475E-05
305.5094,-9.083167E-05
305.6094,-9.077704E-05
305.7094,-9.071772E-05
305.8094,-9.067722E-05
305.9095,-9.061601E-05
306.0095,-9.060094E-05
306.1095,-9.049547E-05
306.2095,-9.047569E-05
306.3095,-9.046157E-05
306.4095,-9.038811E-05
306.5095,-9.032313E-05
306.6095,-9.032972E-05
306.7095,-9.027793E-05
306.8095,-9.021389E-05
306.9095,-9.017151E-05
307.0095,-9.009051E-05
307.1095,-9.006415E-05
307.2095,-9.003308E-05
307.3095,-8.996527E-05
307.4095,-8.989463E-05
307.5096,-8.988522E-05
307.6096,-8.984567E-05
307.7096,-8.977127E-05
307.8096,-8.976657E-05
307.9096,-8.970441E-05
308.0096,-8.960647E-05
308.1096,-8.959328E-05
308.2096,-8.956974E-05
308.3096,-8.947651E-05
308.4096,-8.946333E-05
308.5096,-8.937668E-05
308.6096,-8.931736E-05
308.7096,-8.928534E-05
308.8096,-8.925332E-05
308.9096,-8.916103E-05
309.0096,-8.912053E-05
309.1096,-8.906215E-05
309.2097,-8.902448E-05
309.3097,-8.897927E-05
309.4097,-8.89077E-05
309.5097,-8.886157E-05
309.6097,-8.882295E-05
309.7097,-8.877869E-05
309.8097,-8.871276E-05
309.9097,-8.867698E-05
310.0097,-8.862236E-05
310.1097,-8.855644E-05
310.2097,-8.852725E-05
310.3097,-8.848675E-05
310.4097,-8.842177E-05
310.5097,-8.836527E-05
310.6097,-8.831253E-05
310.7097,-8.827581E-05
310.8098,-8.827674E-05
310.9098,-8.8208E-05
311.0098,-8.814302E-05
311.1098,-8.809217E-05
311.2098,-8.805827E-05
311.3098,-8.800647E-05
311.4098,-8.799141E-05
311.5098,-8.792171E-05
311.6098,-8.784355E-05
311.7098,-8.78379E-05
311.8098,-8.777574E-05
311.9098,-8.773148E-05
312.0098,-8.770983E-05
312.1098,-8.763166E-05
312.2098,-8.757421E-05
312.3098,-8.755255E-05
312.4099,-8.751394E-05
312.5099,-8.744331E-05
312.6099,-8.73934E-05
312.7099,-8.734726E-05
312.8099,-8.72851E-05
312.9099,-8.724743E-05
313.0099,-8.722671E-05
313.1099,-8.714855E-05
313.2099,-8.711842E-05
313.3099,-8.704873E-05
313.4099,-8.700729E-05
313.5099,-8.696492E-05
313.6099,-8.694042E-05
313.7099,-8.685944E-05
313.8099,-8.682554E-05
313.9099,-8.678505E-05
314.0099,-8.672666E-05
314.11,-8.670123E-05
314.21,-8.666356E-05
314.31,-8.657033E-05
314.41,-8.655997E-05
314.51,-8.651476E-05
314.61,-8.645826E-05
314.71,-8.6414E-05
314.81,-8.639799E-05
314.91,-8.63283E-05
315.01,-8.62605E-05
315.11,-8.623884E-05
315.21,-8.61974E-05
315.31,-8.613525E-05
315.41,-8.610512E-05
315.51,-8.60552E-05
315.61,-8.60213E-05
315.7101,-8.597233E-05
315.8101,-8.592148E-05
315.9101,-8.587533E-05
316.0101,-8.583484E-05
316.1101,-8.578681E-05
316.2101,-8.574444E-05
316.3101,-8.569829E-05
316.4101,-8.56625E-05
316.5101,-8.560694E-05
316.6101,-8.555703E-05
316.7101,-8.550429E-05
316.8101,-8.54638E-05
316.9101,-8.54299E-05
317.0101,-8.537433E-05
317.1101,-8.532537E-05
317.2101,-8.532818E-05
317.3102,-8.527074E-05
317.4102,-8.519163E-05
317.5102,-8.51841E-05
317.6102,-8.512478E-05
317.7102,-8.510499E-05
317.8102,-8.508052E-05
317.9102,-8.500423E-05
318.0102,-8.494961E-05
318.1102,-8.491005E-05
318.2102,-8.488369E-05
318.3102,-8.483848E-05
318.4102,-8.477727E-05
318.5102,-8.474242E-05
318.6102,-8.467934E-05
318.7102,-8.465861E-05
318.8102,-8.461624E-05
318.9102,-8.456538E-05
319.0103,-8.453619E-05
319.1103,-8.445897E-05
319.2103,-8.442318E-05
319.3103,-8.439494E-05
319.4103,-8.434031E-05
319.5103,-8.429417E-05
319.6103,-8.427533E-05
319.7103,-8.424425E-05
319.8103,-8.418586E-05
319.9103,-8.414067E-05
320.0103,-8.410205E-05
320.1103,-8.403895E-05
320.2103,-8.399375E-05
320.3103,-8.395985E-05
320.4103,-8.388828E-05
320.5103,-8.388262E-05
320.6104,-8.385249E-05
320.7104,-8.376491E-05
320.8104,-8.374608E-05
320.9104,-8.370935E-05
321.0104,-8.364437E-05
321.1104,-8.360387E-05
321.2104,-8.358881E-05
321.3104,-8.351535E-05
321.4104,-8.344473E-05
321.5104,-8.344002E-05
321.6104,-8.340799E-05
321.7104,-8.334112E-05
321.8104,-8.330817E-05
321.9104,-8.326108E-05
322.0104,-8.323471E-05
322.1104,-8.319139E-05
322.2104,-8.314148E-05
322.3105,-8.308781E-05
322.4105,-8.307368E-05
322.5105,-8.302565E-05
322.6105,-8.29682E-05
322.7105,-8.292771E-05
322.8105,-8.288157E-05
322.9105,-8.285426E-05
323.0105,-8.283166E-05
323.1105,-8.275725E-05
323.2105,-8.271488E-05
323.3105,-8.270075E-05
323.4105,-8.265085E-05
323.5105,-8.258304E-05
323.6105,-8.255008E-05
323.7105,-8.252277E-05
323.8105,-8.249922E-05
323.9106,-8.243895E-05
324.0106,-8.237963E-05
324.1106,-8.234289E-05
324.2106,-8.234101E-05
324.3106,-8.22845E-05
324.4106,-8.2212E-05
324.5106,-8.224684E-05
324.6106,-8.222518E-05
324.7106,-8.213383E-05
324.8106,-8.209993E-05
324.9106,-8.207921E-05
325.0106,-8.201895E-05
325.1106,-8.198033E-05
325.2106,-8.195679E-05
325.3106,-8.18758E-05
325.4106,-8.182872E-05
325.5107,-8.180611E-05
325.6107,-8.176185E-05
325.7107,-8.174772E-05
325.8107,-8.169028E-05
325.9107,-8.161589E-05
326.0107,-8.158763E-05
326.1107,-8.155561E-05
326.2107,-8.150947E-05
326.3107,-8.145861E-05
326.4107,-8.142283E-05
326.5107,-8.136444E-05
326.6107,-8.132582E-05
326.7107,-8.129945E-05
326.8107,-8.124673E-05
326.9107,-8.118456E-05
327.0107,-8.118645E-05
327.1107,-8.114784E-05
327.2108,-8.107062E-05
327.3108,-8.106026E-05
327.4108,-8.100376E-05
327.5108,-8.095196E-05
327.6108,-8.09369E-05
327.7108,-8.087944E-05
327.8108,-8.083708E-05
327.9108,-8.080505E-05
328.0108,-8.075702E-05
328.1108,-8.070052E-05
328.2108,-8.068922E-05
328.3108,-8.066285E-05
328.4108,-8.058092E-05
328.5108,-8.057621E-05
328.6108,-8.05423E-05
328.7108,-8.047638E-05
328.8109,-8.048769E-05
328.9109,-8.040765E-05
329.0109,-8.03728E-05
329.1109,-8.03323E-05
329.2109,-8.027768E-05
329.3109,-8.024943E-05
329.4109,-8.021459E-05
329.5109,-8.015902E-05
329.6109,-8.010535E-05
329.7109,-8.007145E-05
329.8109,-8.006014E-05
329.9109,-8.000175E-05
330.0109,-7.998198E-05
330.1109,-7.993678E-05
330.2109,-7.988121E-05
330.3109,-7.985107E-05
330.4109,-7.979928E-05
330.511,-7.976915E-05
330.611,-7.975502E-05
330.711,-7.972112E-05
330.811,-7.964012E-05
330.911,-7.963259E-05
331.011,-7.957138E-05
331.111,-7.954407E-05
331.211,-7.953183E-05
331.311,-7.948474E-05
331.411,-7.939246E-05
331.511,-7.940941E-05
331.611,-7.938209E-05
331.711,-7.932653E-05
331.811,-7.927379E-05
331.911,-7.923706E-05
332.011,-7.919469E-05
332.1111,-7.918244E-05
332.2111,-7.913912E-05
332.3111,-7.906755E-05
332.4111,-7.903648E-05
332.5111,-7.900634E-05
332.6111,-7.896961E-05
332.7111,-7.893948E-05
332.8111,-7.890369E-05
332.9111,-7.883683E-05
333.0111,-7.881611E-05
333.1111,-7.877279E-05
333.2111,-7.876055E-05
333.3111,-7.869651E-05
333.4111,-7.86626E-05
333.5111,-7.863247E-05
333.6111,-7.857974E-05
333.7112,-7.855902E-05
333.8112,-7.84997E-05
333.9112,-7.848086E-05
334.0112,-7.844131E-05
334.1112,-7.838951E-05
334.2112,-7.835749E-05
334.3112,-7.833206E-05
334.4112,-7.827086E-05
334.5112,-7.823224E-05
334.6112,-7.819457E-05
334.7112,-7.813619E-05
334.8112,-7.810794E-05
334.9112,-7.808628E-05
335.0112,-7.802789E-05
335.1112,-7.798267E-05
335.2112,-7.797515E-05
335.3112,-7.791488E-05
335.4113,-7.787532E-05
335.5113,-7.784519E-05
335.6113,-7.778492E-05
335.7113,-7.777267E-05
335.8113,-7.775572E-05
335.9113,-7.765966E-05
336.0113,-7.763424E-05
336.1113,-7.762389E-05
336.2113,-7.757868E-05
336.3113,-7.754289E-05
336.4113,-7.748451E-05
336.5113,-7.746473E-05
336.6113,-7.743177E-05
336.7113,-7.739315E-05
336.8113,-7.736114E-05
336.9113,-7.730369E-05
337.0114,-7.728769E-05
337.1114,-7.724718E-05
337.2114,-7.719916E-05
337.3114,-7.717279E-05
337.4114,-7.713417E-05
337.5114,-7.710216E-05
337.6114,-7.705413E-05
337.7114,-7.700139E-05
337.8114,-7.694489E-05
337.9114,-7.695526E-05
338.0114,-7.688556E-05
338.1114,-7.685355E-05
338.2114,-7.681776E-05
338.3114,-7.677444E-05
338.4114,-7.675467E-05
338.5114,-7.671605E-05
338.6115,-7.665107E-05
338.7115,-7.662565E-05
338.8115,-7.661057E-05
338.9115,-7.655691E-05
339.0115,-7.64938E-05
339.1115,-7.647685E-05
339.2115,-7.645896E-05
339.3115,-7.6426E-05
339.4115,-7.637514E-05
339.5115,-7.63403E-05
339.6115,-7.628569E-05
339.7115,-7.627061E-05
339.8115,-7.623294E-05
339.9115,-7.616797E-05
340.0115,-7.614348E-05
340.1115,-7.612182E-05
340.2115,-7.609357E-05
340.3116,-7.604554E-05
340.4116,-7.600975E-05
340.5116,-7.595137E-05
340.6116,-7.594383E-05
340.7116,-7.593535E-05
340.8116,-7.587132E-05
340.9116,-7.583177E-05
341.0116,-7.579597E-05
341.1116,-7.578939E-05
341.2116,-7.575549E-05
341.3116,-7.571876E-05
341.4116,-7.56792E-05
341.5116,-7.565378E-05
341.6116,-7.560576E-05
341.7116,-7.556055E-05
341.8116,-7.553701E-05
341.9117,-7.549651E-05
342.0117,-7.543906E-05
342.1117,-7.543436E-05
342.2117,-7.54061E-05
342.3117,-7.533453E-05
342.4117,-7.526579E-05
342.5117,-7.529026E-05
342.6117,-7.524036E-05
342.7117,-7.521305E-05
342.8117,-7.516219E-05
342.9117,-7.512924E-05
343.0117,-7.509816E-05
343.1117,-7.506707E-05
343.2117,-7.502282E-05
343.3117,-7.499928E-05
343.4117,-7.497008E-05
343.5117,-7.487309E-05
343.6118,-7.491075E-05
343.7118,-7.490416E-05
343.8118,-7.484484E-05
343.9118,-7.477514E-05
344.0118,-7.475536E-05
344.1118,-7.473466E-05
344.2118,-7.468191E-05
344.3118,-7.46546E-05
344.4118,-7.460658E-05
344.5118,-7.457643E-05
344.6118,-7.453689E-05
344.7118,-7.449733E-05
344.8118,-7.446814E-05
344.9118,-7.444554E-05
345.0118,-7.440128E-05
345.1118,-7.434477E-05
345.2119,-7.432499E-05
345.3119,-7.430239E-05
345.4119,-7.427602E-05
345.5119,-7.4228E-05
345.6119,-7.417621E-05
345.7119,-7.411594E-05
345.8119,-7.415078E-05
345.9119,-7.408485E-05
346.0119,-7.403494E-05
346.1119,-7.40114E-05
346.2119,-7.398127E-05
346.3119,-7.395584E-05
346.4119,-7.392006E-05
346.5119,-7.387767E-05
346.6119,-7.381834E-05
346.7119,-7.38174E-05
346.812,-7.379762E-05
346.912,-7.373736E-05
347.012,-7.372135E-05
347.112,-7.367237E-05
347.212,-7.360645E-05
347.312,-7.359045E-05
347.412,-7.357255E-05
347.512,-7.351228E-05
347.612,-7.34991E-05
347.712,-7.342847E-05
347.812,-7.339645E-05
347.912,-7.341717E-05
348.012,-7.335972E-05
348.112,-7.329285E-05
348.212,-7.327968E-05
348.312,-7.325989E-05
348.412,-7.320716E-05
348.5121,-7.319869E-05
348.6121,-7.316007E-05
348.7121,-7.308002E-05
348.8121,-7.30838E-05
348.9121,-7.307343E-05
349.0121,-7.30207E-05
349.1121,-7.29689E-05
349.2121,-7.292276E-05
349.3121,-7.289262E-05
349.4121,-7.286907E-05
349.5121,-7.28446E-05
349.6121,-7.278997E-05
349.7121,-7.275889E-05
349.8121,-7.272123E-05
349.9121,-7.268827E-05
350.0121,-7.266943E-05
350.1122,-7.262894E-05
350.2122,-7.259787E-05
350.3122,-7.257715E-05
350.4122,-7.25244E-05
350.5122,-7.246884E-05
350.6122,-7.244435E-05
350.7122,-7.241139E-05
350.8122,-7.237279E-05
350.9122,-7.234736E-05
351.0122,-7.231534E-05
351.1122,-7.224942E-05
351.2122,-7.223152E-05
351.3122,-7.223058E-05
351.4122,-7.215902E-05
351.5122,-7.213829E-05
351.6122,-7.209968E-05
351.7122,-7.206861E-05
351.8123,-7.205731E-05
351.9123,-7.203094E-05
352.0123,-7.19782E-05
352.1123,-7.193111E-05
352.2123,-7.192358E-05
352.3123,-7.189815E-05
352.4123,-7.184542E-05
352.5123,-7.185578E-05
352.6123,-7.18021E-05
352.7123,-7.178891E-05
352.8123,-7.176631E-05
352.9123,-7.169191E-05
353.0123,-7.166743E-05
353.1123,-7.164766E-05
353.2123,-7.162317E-05
353.3123,-7.158456E-05
353.4124,-7.154877E-05
353.5124,-7.151299E-05
353.6124,-7.14593E-05
353.7124,-7.148285E-05
353.8124,-7.142824E-05
353.9124,-7.136702E-05
354.0124,-7.136702E-05
354.1124,-7.133971E-05
354.2124,-7.129827E-05
354.3124,-7.128979E-05
354.4124,-7.122952E-05
354.5124,-7.117961E-05
354.6124,-7.117773E-05
354.7124,-7.11476E-05
354.8124,-7.109674E-05
354.9124,-7.107884E-05
355.0125,-7.103647E-05
355.1125,-7.097432E-05
355.2125,-7.097526E-05
355.3125,-7.0947E-05
355.4125,-7.091121E-05
355.5125,-7.089709E-05
355.6125,-7.083494E-05
355.7125,-7.081139E-05
355.8125,-7.076525E-05
355.9125,-7.075113E-05
356.0125,-7.072005E-05
356.1125,-7.068803E-05
356.2125,-7.067672E-05
356.3125,-7.063624E-05
356.4125,-7.061834E-05
356.5125,-7.055995E-05
356.6125,-7.051663E-05
356.7126,-7.051947E-05
356.8126,-7.047332E-05
356.9126,-7.042057E-05
357.0126,-7.041305E-05
357.1126,-7.037914E-05
357.2126,-7.032641E-05
357.3126,-7.032546E-05
357.4126,-7.029721E-05
357.5126,-7.024165E-05
357.6126,-7.01908E-05
357.7126,-7.018232E-05
357.8126,-7.017572E-05
357.9126,-7.013336E-05
358.0126,-7.009285E-05
358.1126,-7.005236E-05
358.2126,-7.000057E-05
358.3127,-7.001658E-05
358.4127,-6.996289E-05
358.5127,-6.992522E-05
358.6127,-6.991205E-05
358.7127,-6.987908E-05
358.8127,-6.98659E-05
358.9127,-6.980656E-05
359.0127,-6.976608E-05
359.1127,-6.971899E-05
359.2127,-6.970203E-05
359.3127,-6.968885E-05
359.4127,-6.963988E-05
359.5127,-6.961446E-05
359.6127,-6.958526E-05
359.7127,-6.953252E-05
359.8127,-6.951275E-05
359.9128,-6.949674E-05
360.0128,-6.946284E-05
360.1128,-6.942893E-05
360.2128,-6.938937E-05
360.3128,-6.933288E-05
360.4128,-6.935077E-05
360.5128,-6.93244E-05
360.6128,-6.925189E-05
360.7128,-6.92274E-05
360.8128,-6.921704E-05
360.9128,-6.918503E-05
361.0128,-6.918973E-05
361.1128,-6.913229E-05
361.2128,-6.908237E-05
361.3128,-6.906637E-05
361.4128,-6.906543E-05
361.5128,-6.901457E-05
361.6129,-6.897879E-05
361.7129,-6.893359E-05
361.8129,-6.894206E-05
361.9129,-6.893829E-05
362.0129,-6.889497E-05
362.1129,-6.883847E-05
362.2129,-6.88187E-05
362.3129,-6.881492E-05
362.4129,-6.874712E-05
362.5129,-6.872264E-05
362.6129,-6.871321E-05
362.7129,-6.868873E-05
362.8129,-6.86812E-05
362.9129,-6.864353E-05
363.0129,-6.858986E-05
363.1129,-6.858609E-05
363.213,-6.858986E-05
363.313,-6.852582E-05
363.413,-6.847779E-05
363.513,-6.847025E-05
363.613,-6.840056E-05
363.713,-6.839303E-05
363.813,-6.840339E-05
363.913,-6.833558E-05
364.013,-6.82772E-05
364.113,-6.828002E-05
364.213,-6.824424E-05
364.313,-6.821316E-05
364.413,-6.820374E-05
364.513,-6.815383E-05
364.613,-6.810769E-05
364.713,-6.812463E-05
364.813,-6.807755E-05
364.9131,-6.804553E-05
365.0131,-6.803706E-05
365.1131,-6.797208E-05
365.2131,-6.795042E-05
365.3131,-6.794288E-05
365.4131,-6.788826E-05
365.5131,-6.785154E-05
365.6131,-6.786472E-05
365.7131,-6.782046E-05
365.8131,-6.780445E-05
365.9131,-6.774982E-05
366.0131,-6.769615E-05
366.1131,-6.768108E-05
366.2131,-6.769144E-05
366.3131,-6.762081E-05
366.4131,-6.758409E-05
366.5132,-6.755772E-05
366.6132,-6.752476E-05
366.7132,-6.751062E-05
366.8132,-6.747955E-05
366.9132,-6.743247E-05
367.0132,-6.739196E-05
367.1132,-6.740233E-05
367.2132,-6.734677E-05
367.3132,-6.730533E-05
367.4132,-6.732794E-05
367.5132,-6.731004E-05
367.6132,-6.722622E-05
367.7132,-6.72234E-05
367.8132,-6.718667E-05
367.9132,-6.716219E-05
368.0132,-6.718008E-05
368.1133,-6.714524E-05
368.2133,-6.706802E-05
368.3133,-6.707931E-05
368.4133,-6.70633E-05
368.5133,-6.700397E-05
368.6133,-6.695123E-05
368.7133,-6.695218E-05
368.8133,-6.689851E-05
368.9133,-6.689756E-05
369.0133,-6.684765E-05
369.1133,-6.679209E-05
369.2133,-6.67855E-05
369.3133,-6.677984E-05
369.4133,-6.674594E-05
369.5133,-6.670639E-05
369.6133,-6.667437E-05
369.7133,-6.663764E-05
369.8134,-6.663199E-05
369.9134,-6.661599E-05
370.0134,-6.654724E-05
370.1134,-6.654159E-05
370.2134,-6.650203E-05
370.3134,-6.646813E-05
370.4134,-6.645494E-05
370.5134,-6.644082E-05
370.6134,-6.638808E-05
370.7134,-6.635512E-05
370.8134,-6.634947E-05
370.9134,-6.63231E-05
371.0134,-6.630898E-05
371.1134,-6.626848E-05
371.2134,-6.622045E-05
371.3134,-6.61922E-05
371.4135,-6.621669E-05
371.5135,-6.615736E-05
371.6135,-6.612534E-05
371.7135,-6.610462E-05
371.8135,-6.606695E-05
371.9135,-6.605565E-05
372.0135,-6.604341E-05
372.1135,-6.597467E-05
372.2135,-6.59756E-05
372.3135,-6.595018E-05
372.4135,-6.591251E-05
372.5135,-6.587013E-05
372.6135,-6.587202E-05
372.7135,-6.584565E-05
372.8135,-6.580327E-05
372.9135,-6.577314E-05
373.0135,-6.574111E-05
373.1136,-6.571852E-05
373.2136,-6.571286E-05
373.3136,-6.565636E-05
373.4136,-6.563282E-05
373.5136,-6.562622E-05
373.6136,-6.556784E-05
373.7136,-6.553205E-05
373.8136,-6.55377E-05
373.9136,-6.552922E-05
374.0136,-6.546801E-05
374.1136,-6.545389E-05
374.2136,-6.5436E-05
374.3136,-6.540208E-05
374.4136,-6.540398E-05
374.5136,-6.537007E-05
374.6136,-6.52919E-05
374.7137,-6.531827E-05
374.8137,-6.529097E-05
374.9137,-6.522693E-05
375.0137,-6.520527E-05
375.1137,-6.520715E-05
375.2137,-6.51723E-05
375.3137,-6.511863E-05
375.4137,-6.508567E-05
375.5137,-6.508378E-05
375.6137,-6.504235E-05
375.7137,-6.502445E-05
375.8137,-6.498679E-05
375.9137,-6.495854E-05
376.0137,-6.495948E-05
376.1137,-6.491239E-05
376.2137,-6.487095E-05
376.3138,-6.487943E-05
376.4138,-6.481445E-05
376.5138,-6.479656E-05
376.6138,-6.477678E-05
376.7138,-6.472499E-05
376.8138,-6.469391E-05
376.9138,-6.469391E-05
377.0138,-6.464683E-05
377.1138,-6.461387E-05
377.2138,-6.461009E-05
377.3138,-6.457807E-05
377.4138,-6.456207E-05
377.5138,-6.450179E-05
377.6138,-6.447354E-05
377.7138,-6.446789E-05
377.8138,-6.446036E-05
377.9138,-6.440009E-05
378.0139,-6.438031E-05
378.1139,-6.436524E-05
378.2139,-6.432004E-05
378.3139,-6.429744E-05
378.4139,-6.428237E-05
378.5139,-6.425412E-05
378.6139,-6.422116E-05
378.7139,-6.421269E-05
378.8139,-6.414489E-05
378.9139,-6.415712E-05
379.0139,-6.414582E-05
379.1139,-6.408933E-05
379.2139,-6.4046E-05
379.3139,-6.405918E-05
379.4139,-6.404129E-05
379.5139,-6.399043E-05
379.614,-6.398196E-05
379.714,-6.394806E-05
379.814,-6.387837E-05
379.914,-6.392922E-05
380.014,-6.386895E-05
380.114,-6.38228E-05
380.214,-6.381245E-05
380.314,-6.379549E-05
380.414,-6.377478E-05
380.514,-6.375501E-05
380.614,-6.371827E-05
380.714,-6.365612E-05
380.814,-6.367119E-05
380.914,-6.366647E-05
381.014,-6.362693E-05
381.114,-6.357607E-05
381.2141,-6.356665E-05
381.3141,-6.35497E-05
381.4141,-6.353934E-05
381.5141,-6.348284E-05
381.6141,-6.344612E-05
381.7141,-6.343481E-05
381.8141,-6.340467E-05
381.9141,-6.339056E-05
382.0141,-6.334911E-05
382.1141,-6.334535E-05
382.2141,-6.328885E-05
382.3141,-6.327473E-05
382.4141,-6.327001E-05
382.5141,-6.321162E-05
382.6141,-6.319844E-05
382.7141,-6.317018E-05
382.8141,-6.313346E-05
382.9142,-6.312216E-05
383.0142,-6.308637E-05
383.1142,-6.305624E-05
383.2142,-6.305154E-05
383.3142,-6.302328E-05
383.4142,-6.297619E-05
383.5142,-6.296112E-05
383.6142,-6.294606E-05
383.7142,-6.290933E-05
383.8142,-6.288485E-05
383.9142,-6.285471E-05
384.0142,-6.280856E-05
384.1142,-6.281986E-05
384.2142,-6.279915E-05
384.3142,-6.273417E-05
384.4142,-6.272098E-05
384.5143,-6.272193E-05
384.6143,-6.266636E-05
384.7143,-6.268237E-05
384.8143,-6.263905E-05
384.9143,-6.259103E-05
385.0143,-6.257219E-05
385.1143,-6.257313E-05
385.2143,-6.253452E-05
385.3143,-6.249968E-05
385.4143,-6.247331E-05
385.5143,-6.242246E-05
385.6143,-6.243752E-05
385.7143,-6.243752E-05
385.8143,-6.237725E-05
385.9143,-6.230473E-05
386.0143,-6.233299E-05
386.1143,-6.230473E-05
386.2144,-6.225576E-05
386.3144,-6.226425E-05
386.4144,-6.222469E-05
386.5144,-6.21955E-05
386.6144,-6.217666E-05
386.7144,-6.213993E-05
386.8144,-6.212769E-05
386.9144,-6.210132E-05
387.0144,-6.20646E-05
387.1144,-6.204388E-05
387.2144,-6.202787E-05
387.3144,-6.198361E-05
387.4144,-6.196195E-05
387.5144,-6.193464E-05
387.6144,-6.191674E-05
387.7144,-6.189414E-05
387.8145,-6.187813E-05
387.9145,-6.185177E-05
388.0145,-6.179526E-05
388.1145,-6.177831E-05
388.2145,-6.177266E-05
388.3145,-6.173969E-05
388.4145,-6.169826E-05
388.5145,-6.166531E-05
388.6145,-6.164741E-05
388.7145,-6.163988E-05
388.8145,-6.160785E-05
388.9145,-6.157019E-05
389.0145,-6.155983E-05
389.1145,-6.15165E-05
389.2145,-6.149108E-05
389.3145,-6.151086E-05
389.4146,-6.14892E-05
389.5146,-6.141386E-05
389.6146,-6.139785E-05
389.7146,-6.140632E-05
389.8146,-6.135923E-05
389.9146,-6.134888E-05
390.0146,-6.132816E-05
390.1146,-6.128201E-05
390.2146,-6.128014E-05
390.3146,-6.125E-05
390.4146,-6.12048E-05
390.5146,-6.121045E-05
390.6146,-6.120385E-05
390.7146,-6.111251E-05
390.8146,-6.111439E-05
390.9146,-6.112381E-05
391.0146,-6.109273E-05
391.1147,-6.104658E-05
391.2147,-6.104282E-05
391.3147,-6.099573E-05
391.4147,-6.098819E-05
391.5147,-6.098161E-05
391.6147,-6.093169E-05
391.7147,-6.090909E-05
391.8147,-6.091474E-05
391.9147,-6.086766E-05
392.0147,-6.08573E-05
392.1147,-6.082057E-05
392.2147,-6.079891E-05
392.3147,-6.078761E-05
392.4147,-6.0765E-05
392.5147,-6.072169E-05
392.6147,-6.070191E-05
392.7148,-6.071886E-05
392.8148,-6.06699E-05
392.9148,-6.060868E-05
393.0148,-6.062374E-05
393.1148,-6.061339E-05
393.2148,-6.055029E-05
393.3148,-6.052204E-05
393.4148,-6.053052E-05
393.5148,-6.050791E-05
393.6148,-6.048531E-05
393.7148,-6.044199E-05
393.8148,-6.043069E-05
393.9148,-6.040055E-05
394.0148,-6.037324E-05
394.1148,-6.032051E-05
394.2148,-6.032239E-05
394.3148,-6.031957E-05
394.4149,-6.02753E-05
394.5149,-6.025553E-05
394.6149,-6.023575E-05
394.7149,-6.018772E-05
394.8149,-6.019714E-05
394.9149,-6.018113E-05
395.0149,-6.013216E-05
395.1149,-6.012746E-05
395.2149,-6.010109E-05
395.3149,-6.006907E-05
395.4149,-6.003234E-05
395.5149,-6.00427E-05
395.6149,-5.999561E-05
395.7149,-5.997207E-05
395.8149,-5.994287E-05
395.9149,-5.991745E-05
396.015,-5.991651E-05
396.115,-5.990238E-05
396.215,-5.985247E-05
396.315,-5.98487E-05
396.415,-5.983834E-05
396.515,-5.979314E-05
396.615,-5.979974E-05
396.715,-5.976489E-05
396.815,-5.972533E-05
396.915,-5.971215E-05
397.015,-5.97065E-05
397.115,-5.966412E-05
397.215,-5.964246E-05
397.315,-5.964435E-05
397.415,-5.960102E-05
397.515,-5.95577E-05
397.6151,-5.957277E-05
397.7151,-5.953605E-05
397.8151,-5.949649E-05
397.9151,-5.948237E-05
398.0151,-5.948143E-05
398.1151,-5.944752E-05
398.2151,-5.942775E-05
398.3151,-5.939102E-05
398.4151,-5.936654E-05
398.5151,-5.936654E-05
398.6151,-5.934676E-05
398.7151,-5.930438E-05
398.8151,-5.929497E-05
398.9151,-5.929779E-05
399.0151,-5.927142E-05
399.1151,-5.920832E-05
399.2151,-5.92055E-05
399.3152,-5.916877E-05
399.4152,-5.916124E-05
399.5152,-5.91311E-05
399.6152,-5.908402E-05
399.7152,-5.908966E-05
399.8152,-5.908119E-05
399.9152,-5.903787E-05
400.0152,-5.90002E-05
400.1152,-5.898702E-05
400.2152,-5.896348E-05
400.3152,-5.898325E-05
400.4152,-5.892769E-05
400.5152,-5.886742E-05
400.6152,-5.890979E-05
400.7152,-5.888342E-05
400.8152,-5.884105E-05
400.9153,-5.882221E-05
401.0153,-5.880338E-05
401.1153,-5.876948E-05
401.2153,-5.87723E-05
401.3153,-5.874217E-05
401.4153,-5.870073E-05
401.5153,-5.871768E-05
401.6153,-5.86753E-05
401.7153,-5.862351E-05
401.8153,-5.864328E-05
401.9153,-5.863858E-05
402.0153,-5.857737E-05
402.1153,-5.854723E-05
402.2153,-5.854817E-05
402.3153,-5.851709E-05
402.4153,-5.851144E-05
402.5154,-5.848602E-05
402.6154,-5.844458E-05
402.7154,-5.845023E-05
402.8154,-5.845023E-05
402.9154,-5.839184E-05
403.0154,-5.837301E-05
403.1154,-5.836924E-05
403.2154,-5.836547E-05
403.3154,-5.837772E-05
403.4154,-5.831933E-05
403.5154,-5.830897E-05
403.6154,-5.828166E-05
403.7154,-5.826565E-05
403.8154,-5.823269E-05
403.9154,-5.820726E-05
404.0154,-5.818183E-05
404.1154,-5.815358E-05
404.2155,-5.812345E-05
404.3155,-5.812156E-05
404.4155,-5.80839E-05
404.5155,-5.807542E-05
404.6155,-5.805753E-05
404.7155,-5.80208E-05
404.8155,-5.799255E-05
404.9155,-5.798878E-05
405.0155,-5.79577E-05
405.1155,-5.796618E-05
405.2155,-5.796618E-05
405.3155,-5.793605E-05
405.4155,-5.789649E-05
405.5155,-5.790685E-05
405.6155,-5.787201E-05
405.7155,-5.781362E-05
405.8156,-5.78381E-05
405.9156,-5.782304E-05
406.0156,-5.776936E-05
406.1156,-5.775523E-05
406.2156,-5.772698E-05
406.3156,-5.770249E-05
406.4156,-5.77251E-05
406.5156,-5.768178E-05
406.6156,-5.764787E-05
406.7156,-5.763846E-05
406.8156,-5.762151E-05
406.9156,-5.757536E-05
407.0156,-5.758948E-05
407.1156,-5.756029E-05
407.2156,-5.749249E-05
407.3156,-5.750944E-05
407.4156,-5.749814E-05
407.5157,-5.742092E-05
407.6157,-5.741527E-05
407.7157,-5.74407E-05
407.8157,-5.740114E-05
407.9157,-5.736536E-05
408.0157,-5.734652E-05
408.1157,-5.731639E-05
408.2157,-5.730509E-05
408.3157,-5.730226E-05
408.4157,-5.724387E-05
408.5157,-5.723163E-05
408.6157,-5.723069E-05
408.7157,-5.720809E-05
408.8157,-5.720903E-05
408.9157,-5.717607E-05
409.0157,-5.714405E-05
409.1158,-5.713181E-05
409.2158,-5.711862E-05
409.3158,-5.709414E-05
409.4158,-5.707907E-05
409.5158,-5.707153E-05
409.6158,-5.701409E-05
409.7158,-5.704705E-05
409.8158,-5.69896E-05
409.9158,-5.695947E-05
410.0158,-5.693875E-05
410.1158,-5.694346E-05
410.2158,-5.689449E-05
410.3158,-5.687754E-05
410.4158,-5.685305E-05
410.5158,-5.683799E-05
410.6158,-5.681633E-05
410.7159,-5.681633E-05
410.8159,-5.676548E-05
410.9159,-5.680691E-05
411.0159,-5.678337E-05
411.1159,-5.672969E-05
411.2159,-5.670237E-05
411.3159,-5.671744E-05
411.4159,-5.667413E-05
411.5159,-5.669013E-05
411.6159,-5.66826E-05
411.7159,-5.660255E-05
411.8159,-5.656865E-05
411.9159,-5.660726E-05
412.0159,-5.657148E-05
412.1159,-5.652345E-05
412.2159,-5.652627E-05
412.3159,-5.653381E-05
412.416,-5.647448E-05
412.516,-5.6466E-05
412.616,-5.644057E-05
412.716,-5.641609E-05
412.816,-5.642456E-05
412.916,-5.63803E-05
413.016,-5.630779E-05
413.116,-5.635205E-05
413.216,-5.632474E-05
413.316,-5.625411E-05
413.416,-5.628519E-05
413.516,-5.626447E-05
413.616,-5.623245E-05
413.716,-5.620891E-05
413.816,-5.618537E-05
413.916,-5.616371E-05
414.0161,-5.615523E-05
414.1161,-5.615994E-05
414.2161,-5.611756E-05
414.3161,-5.609496E-05
414.4161,-5.609402E-05
414.5161,-5.605164E-05
414.6161,-5.604317E-05
414.7161,-5.605541E-05
414.8161,-5.601303E-05
414.9161,-5.597724E-05
415.0161,-5.597536E-05
415.1161,-5.59471E-05
415.2161,-5.593392E-05
415.3161,-5.592922E-05
415.4161,-5.588684E-05
415.5161,-5.586989E-05
415.6161,-5.587553E-05
415.7162,-5.585199E-05
415.8162,-5.581244E-05
415.9162,-5.580396E-05
416.0162,-5.57823E-05
416.1162,-5.577665E-05
416.2162,-5.575876E-05
416.3162,-5.573804E-05
416.4162,-5.56919E-05
416.5162,-5.568813E-05
416.6162,-5.567307E-05
416.7162,-5.564764E-05
416.8162,-5.562975E-05
416.9162,-5.559396E-05
417.0162,-5.557418E-05
417.1162,-5.558454E-05
417.2162,-5.554499E-05
417.3163,-5.551674E-05
417.4163,-5.550638E-05
417.5163,-5.547907E-05
417.6163,-5.547248E-05
417.7163,-5.547341E-05
417.8163,-5.539808E-05
417.9163,-5.537925E-05
418.0163,-5.541691E-05
418.1163,-5.541974E-05
418.2163,-5.536889E-05
418.3163,-5.534346E-05
418.4163,-5.533781E-05
418.5163,-5.531709E-05
418.6163,-5.52992E-05
418.7163,-5.52813E-05
418.8163,-5.523045E-05
418.9164,-5.523516E-05
419.0164,-5.522198E-05
419.1164,-5.518242E-05
419.2164,-5.51796E-05
419.3164,-5.518431E-05
419.4164,-5.51278E-05
419.5164,-5.514193E-05
419.6164,-5.511838E-05
419.7164,-5.509861E-05
419.8164,-5.507412E-05
419.9164,-5.505152E-05
420.0164,-5.503363E-05
420.1164,-5.504587E-05
420.2164,-5.500255E-05
420.3164,-5.494322E-05
420.4164,-5.496488E-05
420.5164,-5.495547E-05
420.6165,-5.489519E-05
420.7165,-5.488766E-05
420.8165,-5.488578E-05
420.9165,-5.485564E-05
421.0165,-5.485753E-05
421.1165,-5.483116E-05
421.2165,-5.480008E-05
421.3165,-5.477183E-05
421.4165,-5.478218E-05
421.5165,-5.473792E-05
421.6165,-5.473227E-05
421.7165,-5.470402E-05
421.8165,-5.465976E-05
421.9165,-5.467672E-05
422.0165,-5.465882E-05
422.1165,-5.46381E-05
422.2166,-5.460515E-05
422.3166,-5.458442E-05
422.4166,-5.456935E-05
422.5166,-5.454581E-05
422.6166,-5.456277E-05
422.7166,-5.451568E-05
422.8166,-5.449873E-05
422.9166,-5.448083E-05
423.0166,-5.444882E-05
423.1166,-5.444504E-05
423.2166,-5.443751E-05
423.3166,-5.440079E-05
423.4166,-5.436971E-05
423.5166,-5.436877E-05
423.6166,-5.436123E-05
423.7166,-5.43424E-05
423.8167,-5.432922E-05
423.9167,-5.427742E-05
424.0167,-5.427271E-05
424.1167,-5.430096E-05
424.2167,-5.427177E-05
424.3167,-5.421526E-05
424.4167,-5.420585E-05
424.5167,-5.420396E-05
424.6167,-5.418513E-05
424.7167,-5.417289E-05
424.8167,-5.415688E-05
424.9167,-5.414275E-05
425.0167,-5.41258E-05
425.1167,-5.410696E-05
425.2167,-5.407777E-05
425.3167,-5.409566E-05
425.4167,-5.405611E-05
425.5168,-5.404669E-05
425.6168,-5.402786E-05
425.7168,-5.398642E-05
425.8168,-5.398077E-05
425.9168,-5.396382E-05
426.0168,-5.395441E-05
426.1168,-5.391297E-05
426.2168,-5.391673E-05
426.3168,-5.389884E-05
426.4168,-5.387624E-05
426.5168,-5.387436E-05
426.6168,-5.38301E-05
426.7168,-5.382162E-05
426.8168,-5.380467E-05
426.9168,-5.380373E-05
427.0168,-5.378301E-05
427.1169,-5.377736E-05
427.2169,-5.376135E-05
427.3169,-5.37039E-05
427.4169,-5.372462E-05
427.5169,-5.372274E-05
427.6169,-5.367942E-05
427.7169,-5.363422E-05
427.8169,-5.364645E-05
427.9169,-5.362857E-05
428.0169,-5.362103E-05
428.1169,-5.36135E-05
428.2169,-5.358242E-05
428.3169,-5.357206E-05
428.4169,-5.356641E-05
428.5169,-5.35617E-05
428.6169,-5.354569E-05
428.7169,-5.353628E-05
428.817,-5.348636E-05
428.917,-5.346282E-05
429.017,-5.346659E-05
429.117,-5.345152E-05
429.217,-5.340914E-05
429.317,-5.340914E-05
429.417,-5.339407E-05
429.517,-5.336112E-05
429.617,-5.339031E-05
429.717,-5.3363E-05
429.817,-5.334322E-05
429.917,-5.33225E-05
430.017,-5.331497E-05
430.117,-5.328389E-05
430.217,-5.32886E-05
430.317,-5.326223E-05
430.4171,-5.321892E-05
430.5171,-5.323021E-05
430.6171,-5.321043E-05
430.7171,-5.316806E-05
430.8171,-5.314358E-05
430.9171,-5.315676E-05
431.0171,-5.313981E-05
431.1171,-5.31238E-05
431.2171,-5.310025E-05
431.3171,-5.307859E-05
431.4171,-5.307671E-05
431.5171,-5.305976E-05
431.6171,-5.300796E-05
431.7171,-5.300137E-05
431.8171,-5.300514E-05
431.9171,-5.298724E-05
432.0172,-5.295052E-05
432.1172,-5.294392E-05
432.2172,-5.29185E-05
432.3172,-5.29298E-05
432.4172,-5.289873E-05
432.5172,-5.288648E-05
432.6172,-5.286388E-05
432.7172,-5.285823E-05
432.8172,-5.281773E-05
432.9172,-5.281773E-05
433.0172,-5.279702E-05
433.1172,-5.277818E-05
433.2172,-5.278195E-05
433.3172,-5.278101E-05
433.4172,-5.272262E-05
433.5172,-5.271226E-05
433.6172,-5.271508E-05
433.7173,-5.268777E-05
433.8173,-5.267177E-05
433.9173,-5.264916E-05
434.0173,-5.262562E-05
434.1173,-5.262562E-05
434.2173,-5.261997E-05
434.3173,-5.257853E-05
434.4173,-5.255876E-05
434.5173,-5.25597E-05
434.6173,-5.252391E-05
434.7173,-5.253051E-05
434.8173,-5.250979E-05
434.9173,-5.247494E-05
435.0173,-5.248719E-05
435.1173,-5.246741E-05
435.2173,-5.243068E-05
435.3174,-5.24175E-05
435.4174,-5.241656E-05
435.5174,-5.238266E-05
435.6174,-5.238548E-05
435.7174,-5.236853E-05
435.8174,-5.230638E-05
435.9174,-5.23205E-05
436.0174,-5.232615E-05
436.1174,-5.227718E-05
436.2174,-5.225834E-05
436.3174,-5.226965E-05
436.4174,-5.222633E-05
436.5174,-5.221031E-05
436.6174,-5.221974E-05
436.7174,-5.216512E-05
436.8174,-5.218112E-05
436.9174,-5.216982E-05
437.0175,-5.213121E-05
437.1175,-5.211614E-05
437.2175,-5.212462E-05
437.3175,-5.208413E-05
437.4175,-5.207282E-05
437.5175,-5.205588E-05
437.6175,-5.205211E-05
437.7175,-5.205399E-05
437.8175,-5.202574E-05
437.9175,-5.198712E-05
438.0175,-5.197959E-05
438.1175,-5.202292E-05
438.2175,-5.193439E-05
438.3175,-5.194663E-05
438.4175,-5.195699E-05
438.5175,-5.19099E-05
438.6176,-5.187977E-05
438.7176,-5.18873E-05
438.8176,-5.189955E-05
438.9176,-5.187224E-05
439.0176,-5.184587E-05
439.1176,-5.180726E-05
439.2176,-5.179784E-05
439.3176,-5.182044E-05
439.4176,-5.177241E-05
439.5176,-5.17225E-05
439.6176,-5.176959E-05
439.7176,-5.175923E-05
439.8176,-5.172156E-05
439.9176,-5.169331E-05
440.0176,-5.169425E-05
440.1176,-5.16594E-05
440.2177,-5.166694E-05
440.3177,-5.164716E-05
440.4177,-5.163021E-05
440.5177,-5.159537E-05
440.6177,-5.159254E-05
440.7177,-5.157371E-05
440.8177,-5.15577E-05
440.9177,-5.155864E-05
441.0177,-5.152662E-05
441.1177,-5.152851E-05
441.2177,-5.149178E-05
441.3177,-5.147577E-05
441.4177,-5.148707E-05
441.5177,-5.143716E-05
441.6177,-5.142586E-05
441.7177,-5.143245E-05
441.8177,-5.140702E-05
441.9178,-5.138065E-05
442.0178,-5.138254E-05
442.1178,-5.137406E-05
442.2178,-5.133639E-05
442.3178,-5.129307E-05
442.4178,-5.131097E-05
442.5178,-5.127706E-05
442.6178,-5.128177E-05
442.7178,-5.12667E-05
442.8178,-5.124504E-05
442.9178,-5.12441E-05
443.0178,-5.124316E-05
443.1178,-5.119137E-05
443.2178,-5.118101E-05
443.3178,-5.118289E-05
443.4178,-5.116782E-05
443.5179,-5.114428E-05
443.6179,-5.112544E-05
443.7179,-5.108589E-05
443.8179,-5.110473E-05
443.9179,-5.109437E-05
444.0179,-5.104539E-05
444.1179,-5.102656E-05
444.2179,-5.104351E-05
444.3179,-5.102185E-05
444.4179,-5.100396E-05
444.5179,-5.098042E-05
444.6179,-5.098324E-05
444.7179,-5.095593E-05
444.8179,-5.095028E-05
444.9179,-5.092862E-05
445.0179,-5.093239E-05
445.118,-5.09192E-05
445.218,-5.086836E-05
445.318,-5.085046E-05
445.418,-5.086082E-05
445.518,-5.087118E-05
445.618,-5.081844E-05
445.718,-5.082786E-05
445.818,-5.081655E-05
445.918,-5.07544E-05
446.018,-5.080714E-05
446.118,-5.078736E-05
446.218,-5.07318E-05
446.318,-5.074687E-05
446.418,-5.074593E-05
446.518,-5.071862E-05
446.618,-5.06866E-05
446.718,-5.066776E-05
446.8181,-5.064705E-05
446.9181,-5.065929E-05
447.0181,-5.064705E-05
447.1181,-5.058866E-05
447.2181,-5.061031E-05
447.3181,-5.059148E-05
447.4181,-5.05896E-05
447.5181,-5.058395E-05
447.6181,-5.056417E-05
447.7181,-5.05265E-05
447.8181,-5.053027E-05
447.9181,-5.051332E-05
448.0181,-5.049731E-05
448.1181,-5.050673E-05
448.2181,-5.048978E-05
448.3181,-5.042856E-05
448.4182,-5.042856E-05
448.5182,-5.043516E-05
448.6182,-5.039749E-05
448.7182,-5.041632E-05
448.8182,-5.037489E-05
448.9182,-5.034757E-05
449.0182,-5.033439E-05
449.1182,-5.03617E-05
449.2182,-5.031367E-05
449.3182,-5.031838E-05
449.4182,-5.03099E-05
449.5182,-5.027223E-05
449.6182,-5.028165E-05
449.7182,-5.027223E-05
449.8182,-5.024304E-05
449.9182,-5.023645E-05
450.0182,-5.021385E-05
450.1183,-5.018371E-05
450.2183,-5.018277E-05
450.3183,-5.016017E-05
450.4183,-5.013192E-05
450.5183,-5.013286E-05
450.6183,-5.013474E-05
450.7183,-5.010649E-05
450.8183,-5.011874E-05
450.9183,-5.011779E-05
451.0183,-5.008201E-05
451.1183,-5.005564E-05
451.2183,-5.003963E-05
451.3183,-5.00547E-05
451.4183,-5.00434E-05
451.5183,-5.003398E-05
451.6183,-4.996523E-05
451.7184,-4.996241E-05
451.8184,-4.999819E-05
451.9184,-4.995958E-05
452.0184,-4.994734E-05
452.1184,-4.994451E-05
452.2184,-4.990402E-05
452.3184,-4.989743E-05
452.4184,-4.990025E-05
452.5184,-4.987577E-05
452.6184,-4.983056E-05
452.7184,-4.98541E-05
452.8184,-4.983998E-05
452.9184,-4.981738E-05
453.0184,-4.982868E-05
453.1184,-4.979383E-05
453.2184,-4.979478E-05
453.3185,-4.976558E-05
453.4185,-4.974016E-05
453.5185,-4.972509E-05
453.6185,-4.972226E-05
453.7185,-4.97232E-05
453.8185,-4.96959E-05
453.9185,-4.967989E-05
454.0185,-4.967141E-05
454.1185,-4.962244E-05
454.2185,-4.965634E-05
454.3185,-4.962997E-05
454.4185,-4.956217E-05
454.5185,-4.959231E-05
454.6185,-4.96149E-05
454.7185,-4.956029E-05
454.8185,-4.953015E-05
454.9185,-4.951508E-05
455.0186,-4.952168E-05
455.1186,-4.951602E-05
455.2186,-4.950096E-05
455.3186,-4.945764E-05
455.4186,-4.946988E-05
455.5186,-4.947836E-05
455.6186,-4.944445E-05
455.7186,-4.944539E-05
455.8186,-4.940019E-05
455.9186,-4.937194E-05
456.0186,-4.938418E-05
456.1186,-4.938418E-05
456.2186,-4.935781E-05
456.3186,-4.934745E-05
456.4186,-4.932862E-05
456.5186,-4.929001E-05
456.6187,-4.929377E-05
456.7187,-4.929471E-05
456.8187,-4.924386E-05
456.9187,-4.924575E-05
457.0187,-4.923539E-05
457.1187,-4.921655E-05
457.2187,-4.921467E-05
457.3187,-4.921373E-05
457.4187,-4.916664E-05
457.5187,-4.916759E-05
457.6187,-4.917135E-05
457.7187,-4.912615E-05
457.8187,-4.912615E-05
457.9187,-4.912521E-05
458.0187,-4.910166E-05
458.1187,-4.908942E-05
458.2188,-4.906305E-05
458.3188,-4.905834E-05
458.4188,-4.906776E-05
458.5188,-4.905081E-05
458.6188,-4.901691E-05
458.7188,-4.900561E-05
458.8188,-4.900561E-05
458.9188,-4.900184E-05
459.0188,-4.89896E-05
459.1188,-4.896041E-05
459.2188,-4.892085E-05
459.3188,-4.894345E-05
459.4188,-4.894157E-05
459.5188,-4.89039E-05
459.6188,-4.891332E-05
459.7188,-4.888601E-05
459.8188,-4.886435E-05
459.9189,-4.885869E-05
460.0189,-4.887282E-05
460.1189,-4.884928E-05
460.2189,-4.882762E-05
460.3189,-4.881349E-05
460.4189,-4.880972E-05
460.5189,-4.878806E-05
460.6189,-4.877959E-05
460.7189,-4.875793E-05
460.8189,-4.87617E-05
460.9189,-4.876641E-05
461.0189,-4.876829E-05
461.1189,-4.871555E-05
461.2189,-4.870331E-05
461.3189,-4.869201E-05
461.4189,-4.86873E-05
461.519,-4.86873E-05
461.619,-4.864116E-05
461.719,-4.861667E-05
461.819,-4.864681E-05
461.919,-4.865528E-05
462.019,-4.861385E-05
462.119,-4.858748E-05
462.219,-4.860254E-05
462.319,-4.857524E-05
462.419,-4.857147E-05
462.519,-4.856299E-05
462.619,-4.852815E-05
462.719,-4.854981E-05
462.819,-4.852061E-05
462.919,-4.847918E-05
463.019,-4.847824E-05
463.119,-4.849048E-05
463.2191,-4.846223E-05
463.3191,-4.845281E-05
463.4191,-4.84255E-05
463.5191,-4.841043E-05
463.6191,-4.842738E-05
463.7191,-4.84076E-05
463.8191,-4.836617E-05
463.9191,-4.836617E-05
464.0191,-4.837841E-05
464.1191,-4.834734E-05
464.2191,-4.83398E-05
464.3191,-4.835864E-05
464.4191,-4.832285E-05
464.5191,-4.830872E-05
464.6191,-4.828801E-05
464.7191,-4.8272E-05
464.8192,-4.828424E-05
464.9192,-4.828801E-05
465.0192,-4.821832E-05
465.1192,-4.822585E-05
465.2192,-4.823433E-05
465.3192,-4.821361E-05
465.4192,-4.821455E-05
465.5192,-4.821926E-05
465.6192,-4.815522E-05
465.7192,-4.819383E-05
465.8192,-4.816652E-05
465.9192,-4.812226E-05
466.0192,-4.817594E-05
466.1192,-4.815428E-05
466.2192,-4.810154E-05
466.3192,-4.807329E-05
466.4193,-4.811379E-05
466.5193,-4.810154E-05
466.6193,-4.805916E-05
466.7193,-4.806482E-05
466.8193,-4.801396E-05
466.9193,-4.800266E-05
467.0193,-4.802715E-05
467.1193,-4.801773E-05
467.2193,-4.797912E-05
467.3193,-4.798477E-05
467.4193,-4.796782E-05
467.5193,-4.793674E-05
467.6193,-4.795746E-05
467.7193,-4.793015E-05
467.8193,-4.789719E-05
467.9193,-4.790849E-05
468.0193,-4.788871E-05
468.1194,-4.787741E-05
468.2194,-4.785293E-05
468.3194,-4.786423E-05
468.4194,-4.784633E-05
468.5194,-4.783409E-05
468.6194,-4.779077E-05
468.7194,-4.779454E-05
468.8194,-4.779549E-05
468.9194,-4.776252E-05
469.0194,-4.775028E-05
469.1194,-4.777194E-05
469.2194,-4.775405E-05
469.3194,-4.770979E-05
469.4194,-4.773521E-05
469.5194,-4.773615E-05
469.6194,-4.769283E-05
469.7195,-4.765328E-05
469.8195,-4.768812E-05
469.9195,-4.768812E-05
470.0195,-4.766458E-05
470.1195,-4.765987E-05
470.2195,-4.76222E-05
470.3195,-4.761467E-05
470.4195,-4.76335E-05
470.5195,-4.760525E-05
470.6195,-4.760431E-05
470.7195,-4.757794E-05
470.8195,-4.754875E-05
470.9195,-4.75591E-05
471.0195,-4.754216E-05
471.1195,-4.751484E-05
471.2195,-4.753086E-05
471.3195,-4.752521E-05
471.4196,-4.748094E-05
471.5196,-4.748E-05
471.6196,-4.749036E-05
471.7196,-4.74687E-05
471.8196,-4.744327E-05
471.9196,-4.745269E-05
472.0196,-4.745457E-05
472.1196,-4.74009E-05
472.2196,-4.739901E-05
472.3196,-4.742255E-05
472.4196,-4.740372E-05
472.5196,-4.738866E-05
472.6196,-4.735757E-05
472.7196,-4.733309E-05
472.8196,-4.735946E-05
472.9196,-4.735663E-05
473.0197,-4.73086E-05
473.1197,-4.731708E-05
473.2197,-4.730202E-05
473.3197,-4.727847E-05
473.4197,-4.7286E-05
473.5197,-4.728883E-05
473.6197,-4.726152E-05
473.7197,-4.723986E-05
473.8197,-4.724646E-05
473.9197,-4.723609E-05
474.0197,-4.721349E-05
474.1197,-4.723138E-05
474.2197,-4.717865E-05
474.3197,-4.719842E-05
474.4197,-4.718524E-05
474.5197,-4.716735E-05
474.6198,-4.71617E-05
474.7198,-4.715793E-05
474.8198,-4.714663E-05
474.9198,-4.712779E-05
475.0198,-4.711367E-05
475.1198,-4.709578E-05
475.2198,-4.711744E-05
475.3198,-4.711838E-05
475.4198,-4.705905E-05
475.5198,-4.705152E-05
475.6198,-4.705152E-05
475.7198,-4.704963E-05
475.8198,-4.704492E-05
475.9198,-4.704115E-05
476.0198,-4.701949E-05
476.1198,-4.697147E-05
476.2198,-4.702609E-05
476.3199,-4.697994E-05
476.4199,-4.697429E-05
476.5199,-4.698089E-05
476.6199,-4.69451E-05
476.7199,-4.694039E-05
476.8199,-4.69564E-05
476.9199,-4.691779E-05
477.0199,-4.69159E-05
477.1199,-4.691402E-05
477.2199,-4.689895E-05
477.3199,-4.686411E-05
477.4199,-4.689048E-05
477.5199,-4.685186E-05
477.6199,-4.685752E-05
477.7199,-4.683491E-05
477.8199,-4.682926E-05
477.92,-4.685846E-05
478.02,-4.682456E-05
478.12,-4.678312E-05
478.22,-4.681138E-05
478.32,-4.680572E-05
478.42,-4.675958E-05
478.52,-4.673321E-05
478.62,-4.675581E-05
478.72,-4.675392E-05
478.82,-4.672944E-05
478.92,-4.672379E-05
479.02,-4.670684E-05
479.12,-4.669742E-05
479.22,-4.671908E-05
479.32,-4.668801E-05
479.42,-4.666164E-05
479.5201,-4.664186E-05
479.6201,-4.666729E-05
479.7201,-4.663998E-05
479.8201,-4.665976E-05
479.9201,-4.662679E-05
480.0201,-4.65976E-05
480.1201,-4.660514E-05
480.2201,-4.658441E-05
480.3201,-4.656652E-05
480.4201,-4.656369E-05
480.5201,-4.656181E-05
480.6201,-4.652885E-05
480.7201,-4.651472E-05
480.8201,-4.65185E-05
480.9201,-4.651002E-05
481.0201,-4.65119E-05
481.1201,-4.648741E-05
481.2202,-4.648459E-05
481.3202,-4.645916E-05
481.4202,-4.644975E-05
481.5202,-4.643562E-05
481.6202,-4.644504E-05
481.7202,-4.644033E-05
481.8202,-4.637441E-05
481.9202,-4.639042E-05
482.0202,-4.639889E-05
482.1202,-4.640078E-05
482.2202,-4.636028E-05
482.3202,-4.63518E-05
482.4202,-4.635745E-05
482.5202,-4.634992E-05
482.6202,-4.63245E-05
482.7202,-4.631884E-05
482.8203,-4.634145E-05
482.9203,-4.632261E-05
483.0203,-4.628494E-05
483.1203,-4.625387E-05
483.2203,-4.631508E-05
483.3203,-4.625857E-05
483.4203,-4.621525E-05
483.5203,-4.625293E-05
483.6203,-4.624916E-05
483.7203,-4.61823E-05
483.8203,-4.619925E-05
483.9203,-4.621055E-05
484.0203,-4.61936E-05
484.1203,-4.619642E-05
484.2203,-4.613898E-05
484.3203,-4.614086E-05
484.4203,-4.614274E-05
484.5204,-4.615216E-05
484.6204,-4.610507E-05
484.7204,-4.609377E-05
484.8204,-4.611732E-05
484.9204,-4.610037E-05
485.0204,-4.608718E-05
485.1204,-4.604292E-05
485.2204,-4.605045E-05
485.3204,-4.606835E-05
485.4204,-4.605516E-05
485.5204,-4.601843E-05
485.6204,-4.601184E-05
485.7204,-4.601938E-05
485.8204,-4.59883E-05
485.9204,-4.599395E-05
486.0204,-4.599678E-05
486.1205,-4.594686E-05
486.2205,-4.593839E-05
486.3205,-4.594121E-05
486.4205,-4.59252E-05
486.5205,-4.593274E-05
486.6205,-4.592426E-05
486.7205,-4.589224E-05
486.8205,-4.588283E-05
486.9205,-4.590449E-05
487.0205,-4.587341E-05
487.1205,-4.588942E-05
487.2205,-4.586493E-05
487.3205,-4.581031E-05
487.4205,-4.583009E-05
487.5205,-4.58395E-05
487.6205,-4.581408E-05
487.7206,-4.579054E-05
487.8206,-4.581408E-05
487.9206,-4.577735E-05
488.0206,-4.578206E-05
488.1206,-4.577076E-05
488.2206,-4.574345E-05
488.3206,-4.578771E-05
488.4206,-4.579336E-05
488.5206,-4.573591E-05
488.6206,-4.571896E-05
488.7206,-4.573026E-05
488.8206,-4.571049E-05
488.9206,-4.57039E-05
489.0206,-4.568224E-05
489.1206,-4.565681E-05
489.2206,-4.567282E-05
489.3206,-4.565964E-05
489.4207,-4.562196E-05
489.5207,-4.560784E-05
489.6207,-4.565587E-05
489.7207,-4.562103E-05
489.8207,-4.561066E-05
489.9207,-4.560219E-05
490.0207,-4.561537E-05
490.1207,-4.558901E-05
490.2207,-4.560596E-05
490.3207,-4.555228E-05
490.4207,-4.554663E-05
490.5207,-4.554286E-05
490.6207,-4.553344E-05
490.7207,-4.551367E-05
490.8207,-4.552685E-05
490.9207,-4.550142E-05
491.0208,-4.549766E-05
491.1208,-4.550142E-05
491.2208,-4.545716E-05
491.3208,-4.545151E-05
491.4208,-4.546564E-05
491.5208,-4.545434E-05
491.6208,-4.541572E-05
491.7208,-4.543833E-05
491.8208,-4.541855E-05
491.9208,-4.540066E-05
492.0208,-4.540066E-05
492.1208,-4.540819E-05
492.2208,-4.5379E-05
492.3208,-4.537711E-05
492.4208,-4.535828E-05
492.5208,-4.533285E-05
492.6208,-4.534886E-05
492.7209,-4.537052E-05
492.8209,-4.531779E-05
492.9209,-4.532344E-05
493.0209,-4.528483E-05
493.1209,-4.532344E-05
493.2209,-4.532344E-05
493.3209,-4.531308E-05
493.4209,-4.526976E-05
493.5209,-4.526034E-05
493.6209,-4.526222E-05
493.7209,-4.526034E-05
493.8209,-4.526411E-05
493.9209,-4.523303E-05
494.0209,-4.518783E-05
494.1209,-4.521702E-05
494.2209,-4.52302E-05
494.321,-4.519253E-05
494.421,-4.519819E-05
494.521,-4.517747E-05
494.621,-4.514922E-05
494.721,-4.514639E-05
494.821,-4.515863E-05
494.921,-4.512002E-05
495.021,-4.512284E-05
495.121,-4.511531E-05
495.221,-4.510213E-05
495.321,-4.508989E-05
495.421,-4.509083E-05
495.521,-4.505222E-05
495.621,-4.508612E-05
495.721,-4.506823E-05
495.821,-4.504563E-05
495.9211,-4.503809E-05
496.0211,-4.504657E-05
496.1211,-4.501643E-05
496.2211,-4.501455E-05
496.3211,-4.499854E-05
496.4211,-4.499007E-05
496.5211,-4.497311E-05
496.6211,-4.498441E-05
496.7211,-4.495239E-05
496.8211,-4.495993E-05
496.9211,-4.495239E-05
497.0211,-4.492414E-05
497.1211,-4.492131E-05
497.2211,-4.492979E-05
497.3211,-4.489683E-05
497.4211,-4.489307E-05
497.5211,-4.489024E-05
497.6212,-4.489118E-05
497.7212,-4.488647E-05
497.8212,-4.486764E-05
497.9212,-4.484221E-05
498.0212,-4.482997E-05
498.1212,-4.483845E-05
498.2212,-4.484409E-05
498.3212,-4.483186E-05
498.4212,-4.479513E-05
498.5212,-4.479324E-05
498.6212,-4.483374E-05
498.7212,-4.479701E-05
498.8212,-4.476499E-05
498.9212,-4.477347E-05
499.0212,-4.476688E-05
499.1212,-4.47584E-05
499.2213,-4.477629E-05
499.3213,-4.477441E-05
499.4213,-4.472261E-05
499.5213,-4.473203E-05
499.6213,-4.473957E-05
499.7213,-4.470472E-05
499.8213,-4.473674E-05
499.9213,-4.473297E-05
500.0213,-4.469248E-05
500.1213,-4.468118E-05
500.2213,-4.469719E-05
500.3213,-4.465763E-05
500.4213,-4.465293E-05
500.5213,-4.466234E-05
500.6213,-4.465951E-05
500.7213,-4.464068E-05
500.8214,-4.468494E-05
500.9214,-4.466423E-05
501.0214,-4.463691E-05
501.1214,-4.465575E-05
501.2214,-4.465857E-05
501.3214,-4.461808E-05
501.4214,-4.46435E-05
501.5214,-4.462467E-05
501.6214,-4.458135E-05
501.7214,-4.46275E-05
501.8214,-4.461714E-05
501.9214,-4.455969E-05
502.0214,-4.458135E-05
502.1214,-4.4587E-05
502.2214,-4.45757E-05
502.3214,-4.457853E-05
502.4214,-4.454368E-05
502.5215,-4.451449E-05
502.6215,-4.453898E-05
502.7215,-4.455028E-05
502.8215,-4.451355E-05
502.9215,-4.451638E-05
503.0215,-4.449848E-05
503.1215,-4.447494E-05
503.2215,-4.448435E-05
503.3215,-4.449942E-05
503.4215,-4.447776E-05
503.5215,-4.448624E-05
503.6215,-4.447023E-05
503.7215,-4.444951E-05
503.8215,-4.444762E-05
503.9215,-4.445799E-05
504.0215,-4.442879E-05
504.1216,-4.442879E-05
504.2216,-4.441184E-05
504.3216,-4.441749E-05
504.4216,-4.442691E-05
504.5216,-4.440431E-05
504.6216,-4.436758E-05
504.7216,-4.439678E-05
504.8216,-4.438735E-05
504.9216,-4.432897E-05
505.0216,-4.437982E-05
505.1216,-4.439112E-05
505.2216,-4.438924E-05
505.3216,-4.435346E-05
505.4216,-4.438453E-05
505.5216,-4.43883E-05
505.6216,-4.435251E-05
505.7216,-4.434874E-05
505.8217,-4.434121E-05
505.9217,-4.436475E-05
506.0217,-4.436193E-05
506.1217,-4.431767E-05
506.2217,-4.428942E-05
506.3217,-4.431202E-05
506.4217,-4.433274E-05
506.5217,-4.430919E-05
506.6217,-4.429601E-05
506.7217,-4.429789E-05
506.8217,-4.426305E-05
506.9217,-4.428847E-05
507.0217,-4.428847E-05
507.1217,-4.426776E-05
507.2217,-4.426964E-05
507.3217,-4.425834E-05
507.4218,-4.424892E-05
507.5218,-4.423668E-05
507.6218,-4.423197E-05
507.7218,-4.421596E-05
507.8218,-4.42395E-05
507.9218,-4.420089E-05
508.0218,-4.421596E-05
508.1218,-4.422067E-05
508.2218,-4.420184E-05
508.3218,-4.418489E-05
508.4218,-4.419336E-05
508.5218,-4.418394E-05
508.6218,-4.416981E-05
508.7218,-4.417923E-05
508.8218,-4.416887E-05
508.9218,-4.415663E-05
509.0219,-4.415098E-05
509.1219,-4.415098E-05
509.2219,-4.413497E-05
509.3219,-4.416887E-05
509.4219,-4.413121E-05
509.5219,-4.412838E-05
509.6219,-4.410672E-05
509.7219,-4.412555E-05
509.8219,-4.410672E-05
509.9219,-4.411049E-05
510.0219,-4.410201E-05
510.1219,-4.407658E-05
510.2219,-4.409448E-05
510.3219,-4.409542E-05
510.4219,-4.402291E-05
510.5219,-4.40973E-05
510.6219,-4.410484E-05
510.722,-4.406058E-05
510.822,-4.405492E-05
510.922,-4.407847E-05
511.022,-4.405304E-05
511.122,-4.404739E-05
511.222,-4.40521E-05
511.322,-4.404551E-05
511.422,-4.403232E-05
511.522,-4.401726E-05
511.622,-4.400124E-05
511.722,-4.400784E-05
511.822,-4.404645E-05
511.922,-4.398712E-05
512.022,-4.3973E-05
512.122,-4.398241E-05
512.222,-4.401443E-05
512.322,-4.398994E-05
512.4219,-4.396828E-05
512.5219,-4.395604E-05
512.6219,-4.39664E-05
512.7219,-4.397865E-05
512.8218,-4.395228E-05
512.9218,-4.392591E-05
513.0218,-4.395792E-05
513.1218,-4.394285E-05
513.2217,-4.388071E-05
513.3217,-4.394285E-05
513.4217,-4.394663E-05
513.5217,-4.389766E-05
513.6216,-4.391649E-05
513.7216,-4.389671E-05
513.8216,-4.385904E-05
513.9216,-4.391366E-05
514.0215,-4.391461E-05
514.1215,-4.386469E-05
514.2215,-4.387129E-05
514.3215,-4.387411E-05
514.4214,-4.388353E-05
514.5214,-4.38986E-05
514.6214,-4.387034E-05
514.7214,-4.384209E-05
514.8214,-4.38355E-05
514.9213,-4.385151E-05
515.0213,-4.38468E-05
515.1213,-4.38355E-05
515.2213,-4.382703E-05
515.3212,-4.381667E-05
515.4212,-4.38468E-05
515.5212,-4.381761E-05
515.6212,-4.379595E-05
515.7211,-4.380913E-05
515.8211,-4.380913E-05
515.9211,-4.378559E-05
516.0211,-4.3779E-05
516.121,-4.377335E-05
516.221,-4.376676E-05
516.321,-4.378935E-05
516.421,-4.376676E-05
516.5209,-4.373379E-05
516.6209,-4.373379E-05
516.7209,-4.373944E-05
516.8209,-4.375546E-05
516.9208,-4.374792E-05
517.0208,-4.37159E-05
517.1208,-4.370366E-05
517.2208,-4.373285E-05
517.3207,-4.372438E-05
517.4207,-4.369047E-05
517.5207,-4.370742E-05
517.6207,-4.36933E-05
517.7206,-4.367352E-05
517.8206,-4.369424E-05
517.9206,-4.370648E-05
518.0206,-4.366316E-05
518.1205,-4.365563E-05
518.2205,-4.364339E-05
518.3205,-4.365375E-05
518.4205,-4.36641E-05
518.5204,-4.36707E-05
518.6204,-4.362644E-05
518.7204,-4.364715E-05
518.8204,-4.366034E-05
518.9203,-4.361608E-05
519.0203,-4.361796E-05
519.1203,-4.362738E-05
519.2203,-4.361608E-05
519.3203,-4.359819E-05
519.4202,-4.361796E-05
519.5202,-4.361419E-05
519.6202,-4.3585E-05
519.7202,-4.361325E-05
519.8201,-4.357088E-05
519.9201,-4.358688E-05
520.0201,-4.360384E-05
520.1201,-4.356522E-05
520.22,-4.351437E-05
520.32,-4.357276E-05
520.42,-4.361137E-05
520.52,-4.353509E-05
520.6199,-4.354451E-05
520.7199,-4.355958E-05
520.8199,-4.354545E-05
520.9199,-4.355863E-05
521.0198,-4.352755E-05
521.1198,-4.351531E-05
521.2198,-4.35332E-05
521.3198,-4.353792E-05
521.4197,-4.346823E-05
521.5197,-4.352473E-05
521.6197,-4.350213E-05
521.7197,-4.345316E-05
521.8196,-4.34993E-05
521.9196,-4.350307E-05
522.0196,-4.34767E-05
522.1196,-4.344657E-05
522.2195,-4.348047E-05
522.3195,-4.346823E-05
522.4195,-4.346069E-05
522.5195,-4.344563E-05
522.6194,-4.344845E-05
522.7194,-4.344657E-05
522.8194,-4.343903E-05
522.9194,-4.340136E-05
523.0193,-4.343338E-05
523.1193,-4.342773E-05
523.2193,-4.340607E-05
523.3193,-4.339289E-05
523.4193,-4.3391E-05
523.5192,-4.337311E-05
523.6192,-4.339006E-05
523.7192,-4.3391E-05
523.8192,-4.333544E-05
523.9191,-4.332508E-05
524.0191,-4.339194E-05
524.1191,-4.338347E-05
524.2191,-4.334862E-05
524.319,-4.333356E-05
524.419,-4.334674E-05
524.519,-4.332508E-05
524.619,-4.336181E-05
524.7189,-4.330248E-05
524.8189,-4.32893E-05
524.9189,-4.330625E-05
525.0189,-4.332037E-05
525.1188,-4.330813E-05
525.2188,-4.328836E-05
525.3188,-4.327046E-05
525.4188,-4.325351E-05
525.5187,-4.329212E-05
525.6187,-4.327893E-05
525.7187,-4.324974E-05
525.8187,-4.326858E-05
525.9186,-4.324127E-05
526.0186,-4.323844E-05
526.1186,-4.324692E-05
526.2186,-4.323844E-05
526.3185,-4.320831E-05
526.4185,-4.323279E-05
526.5185,-4.322243E-05
526.6185,-4.323468E-05
526.7184,-4.321584E-05
526.8184,-4.322243E-05
526.9184,-4.321584E-05
527.0184,-4.319042E-05
527.1183,-4.321207E-05
527.2183,-4.320266E-05
527.3183,-4.320077E-05
527.4183,-4.3181E-05
527.5182,-4.314521E-05
527.6182,-4.317252E-05
527.7182,-4.318194E-05
527.8182,-4.315275E-05
527.9182,-4.311413E-05
528.0181,-4.316875E-05
528.1181,-4.319418E-05
528.2181,-4.31405E-05
528.3181,-4.316499E-05
528.418,-4.316781E-05
528.518,-4.311979E-05
528.618,-4.314992E-05
528.718,-4.318006E-05
528.8179,-4.314238E-05
528.9179,-4.316687E-05
529.0179,-4.311696E-05
529.1179,-4.312355E-05
529.2178,-4.314521E-05
529.3178,-4.313485E-05
529.4178,-4.310001E-05
529.5178,-4.312167E-05
529.6177,-4.310754E-05
529.7177,-4.307741E-05
529.8177,-4.309247E-05
529.9177,-4.309907E-05
530.0176,-4.305575E-05
530.1176,-4.308588E-05
530.2176,-4.308965E-05
530.3176,-4.306422E-05
530.4175,-4.304068E-05
530.5175,-4.303503E-05
530.6175,-4.304445E-05
530.7175,-4.305293E-05
530.8174,-4.303503E-05
530.9174,-4.300112E-05
531.0174,-4.301713E-05
531.1174,-4.301337E-05
531.2173,-4.298512E-05
531.3173,-4.299265E-05
531.4173,-4.299077E-05
531.5173,-4.299171E-05
531.6172,-4.299924E-05
531.7172,-4.297288E-05
531.8172,-4.295686E-05
531.9172,-4.297099E-05
532.0172,-4.298229E-05
532.1171,-4.295121E-05
532.2171,-4.294839E-05
532.3171,-4.29418E-05
532.4171,-4.292673E-05
532.517,-4.29531E-05
532.617,-4.294745E-05
532.717,-4.290319E-05
532.817,-4.292391E-05
532.9169,-4.292673E-05
533.0169,-4.291637E-05
533.1169,-4.29192E-05
533.2169,-4.288812E-05
533.3168,-4.289094E-05
533.4168,-4.289094E-05
533.5168,-4.290695E-05
533.6168,-4.286646E-05
533.7167,-4.287023E-05
533.8167,-4.286646E-05
533.9167,-4.28514E-05
534.0167,-4.287399E-05
534.1166,-4.286081E-05
534.2166,-4.283444E-05
534.3166,-4.285233E-05
534.4166,-4.286175E-05
534.5165,-4.281749E-05
534.6165,-4.28335E-05
534.7165,-4.280996E-05
534.8165,-4.28109E-05
534.9164,-4.283067E-05
535.0164,-4.282031E-05
535.1164,-4.278171E-05
535.2164,-4.277981E-05
535.3163,-4.281372E-05
535.4163,-4.278641E-05
535.5163,-4.279583E-05
535.6163,-4.277981E-05
535.7162,-4.275722E-05
535.8162,-4.277323E-05
535.9162,-4.279018E-05
536.0162,-4.276475E-05
536.1161,-4.275251E-05
536.2161,-4.275345E-05
536.3161,-4.273556E-05
536.4161,-4.275816E-05
536.5161,-4.273933E-05
536.616,-4.270166E-05
536.716,-4.272708E-05
536.816,-4.273556E-05
536.916,-4.26913E-05
537.0159,-4.269412E-05
537.1159,-4.27026E-05
537.2159,-4.267435E-05
537.3159,-4.269977E-05
537.4158,-4.269977E-05
537.5158,-4.269412E-05
537.6158,-4.272049E-05
537.7158,-4.270825E-05
537.8157,-4.264892E-05
537.9157,-4.267717E-05
538.0157,-4.267717E-05
538.1157,-4.266493E-05
538.2156,-4.264798E-05
538.3156,-4.266964E-05
538.4156,-4.265645E-05
538.5156,-4.26687E-05
538.6155,-4.265645E-05
538.7155,-4.261408E-05
538.8155,-4.26395E-05
538.9155,-4.26508E-05
539.0154,-4.263291E-05
539.1154,-4.258582E-05
539.2154,-4.262538E-05
539.3154,-4.260843E-05
539.4153,-4.258959E-05
539.5153,-4.261784E-05
539.6153,-4.26056E-05
539.7153,-4.256981E-05
539.8152,-4.262349E-05
539.9152,-4.26056E-05
540.0152,-4.256605E-05
540.1152,-4.257452E-05
540.2151,-4.258394E-05
540.3151,-4.259524E-05
540.4151,-4.257075E-05
540.5151,-4.256699E-05
540.6151,-4.253591E-05
540.715,-4.253874E-05
540.815,-4.254344E-05
540.915,-4.253309E-05
541.015,-4.254251E-05
541.1149,-4.249165E-05
541.2149,-4.25086E-05
541.3149,-4.254439E-05
541.4149,-4.252555E-05
541.5148,-4.249918E-05
541.6148,-4.250013E-05
541.7148,-4.251048E-05
541.8148,-4.250578E-05
541.9147,-4.249542E-05
542.0147,-4.248506E-05
542.1147,-4.243985E-05
542.2147,-4.247658E-05
542.3146,-4.246811E-05
542.4146,-4.245398E-05
542.5146,-4.249636E-05
542.6146,-4.246152E-05
542.7145,-4.242102E-05
542.8145,-4.243232E-05
542.9145,-4.245869E-05
543.0145,-4.242855E-05
543.1144,-4.244457E-05
543.2144,-4.242385E-05
543.3144,-4.241066E-05
543.4144,-4.241443E-05
543.5143,-4.241632E-05
543.6143,-4.238335E-05
543.7143,-4.239183E-05
543.8143,-4.242573E-05
543.9142,-4.235416E-05
544.0142,-4.235698E-05
544.1142,-4.239465E-05
544.2142,-4.239559E-05
544.3141,-4.234851E-05
544.4141,-4.236169E-05
544.5141,-4.236923E-05
544.6141,-4.236075E-05
544.7141,-4.235604E-05
544.814,-4.232873E-05
544.914,-4.235886E-05
545.014,-4.232308E-05
545.114,-4.231932E-05
545.2139,-4.232967E-05
545.3139,-4.232967E-05
545.4139,-4.232685E-05
545.5139,-4.230896E-05
545.6138,-4.232025E-05
545.7138,-4.228541E-05
545.8138,-4.228164E-05
545.9138,-4.231084E-05
546.0137,-4.228353E-05
546.1137,-4.22694E-05
546.2137,-4.227223E-05
546.3137,-4.229483E-05
546.4136,-4.227694E-05
546.5136,-4.227411E-05
546.6136,-4.227411E-05
546.7136,-4.224492E-05
546.8135,-4.225622E-05
546.9135,-4.225151E-05
547.0135,-4.224774E-05
547.1135,-4.226375E-05
547.2134,-4.22468E-05
547.3134,-4.223644E-05
547.4134,-4.223739E-05
547.5134,-4.220631E-05
547.6133,-4.220913E-05
547.7133,-4.221666E-05
547.8133,-4.222137E-05
547.9133,-4.220819E-05
548.0132,-4.22129E-05
548.1132,-4.219971E-05
548.2132,-4.218465E-05
548.3132,-4.219124E-05
548.4131,-4.220348E-05
548.5131,-4.217146E-05
548.6131,-4.219783E-05
548.7131,-4.219595E-05
548.813,-4.214604E-05
548.913,-4.218088E-05
549.013,-4.218465E-05
549.113,-4.210648E-05
549.213,-4.214415E-05
549.3129,-4.217523E-05
549.4129,-4.214227E-05
549.5129,-4.21272E-05
549.6129,-4.214697E-05
549.7128,-4.211308E-05
549.8128,-4.213567E-05
549.9128,-4.216582E-05
550.0128,-4.211119E-05
550.1127,-4.209613E-05
550.2127,-4.211213E-05
550.3127,-4.210554E-05
550.4127,-4.20933E-05
550.5126,-4.210554E-05
550.6126,-4.209047E-05
550.7126,-4.210083E-05
550.8126,-4.21046E-05
550.9125,-4.2082E-05
551.0125,-4.20933E-05
551.1125,-4.207352E-05
551.2125,-4.205563E-05
551.3124,-4.210178E-05
551.4124,-4.212155E-05
551.5124,-4.206128E-05
551.6124,-4.20302E-05
551.7123,-4.204997E-05
551.8123,-4.208765E-05
551.9123,-4.206599E-05
552.0123,-4.203585E-05
552.1122,-4.201796E-05
552.2122,-4.200571E-05
552.3122,-4.20415E-05
552.4122,-4.203679E-05
552.5121,-4.201608E-05
552.6121,-4.199253E-05
552.7121,-4.201043E-05
552.8121,-4.199442E-05
552.912,-4.202361E-05
553.012,-4.200007E-05
553.112,-4.198029E-05
553.212,-4.198783E-05
553.312,-4.198312E-05
553.4119,-4.19784E-05
553.5119,-4.198877E-05
553.6119,-4.198783E-05
553.7119,-4.193886E-05
553.8118,-4.196522E-05
553.9118,-4.196993E-05
554.0118,-4.194262E-05
554.1118,-4.195298E-05
554.2117,-4.193603E-05
554.3117,-4.193697E-05
554.4117,-4.194451E-05
554.5117,-4.193886E-05
554.6116,-4.190872E-05
554.7116,-4.194639E-05
554.8116,-4.194451E-05
554.9116,-4.191814E-05
555.0115,-4.191155E-05
555.1115,-4.192096E-05
555.2115,-4.19106E-05
555.3115,-4.192755E-05
555.4114,-4.192661E-05
555.5114,-4.189365E-05
555.6114,-4.189742E-05
555.7114,-4.189742E-05
555.8113,-4.187952E-05
555.9113,-4.191437E-05
556.0113,-4.187199E-05
556.1113,-4.185221E-05
556.2112,-4.186446E-05
556.3112,-4.189177E-05
556.4112,-4.185033E-05
556.5112,-4.185316E-05
556.6111,-4.184656E-05
556.7111,-4.185409E-05
556.8111,-4.186163E-05
556.9111,-4.185881E-05
557.011,-4.183715E-05
557.111,-4.183903E-05
557.211,-4.184751E-05
557.311,-4.185127E-05
557.4109,-4.182113E-05
557.5109,-4.182961E-05
557.6109,-4.181643E-05
557.7109,-4.182113E-05
557.8109,-4.182302E-05
557.9108,-4.179382E-05
558.0108,-4.18249E-05
558.1108,-4.184186E-05
558.2108,-4.176652E-05
558.3107,-4.180513E-05
558.4107,-4.183244E-05
558.5107,-4.179948E-05
558.6107,-4.177123E-05
558.7106,-4.179288E-05
558.8106,-4.176934E-05
558.9106,-4.178347E-05
559.0106,-4.178535E-05
559.1105,-4.175051E-05
559.2105,-4.177499E-05
559.3105,-4.176746E-05
559.4105,-4.175333E-05
559.5104,-4.175333E-05
559.6104,-4.17232E-05
559.7104,-4.17345E-05
559.8104,-4.174015E-05
559.9103,-4.171943E-05
560.0103,-4.173262E-05
560.1103,-4.173167E-05
560.2103,-4.174015E-05
560.3102,-4.171284E-05
560.4102,-4.170342E-05
560.5102,-4.172602E-05
560.6102,-4.169306E-05
560.7101,-4.16893E-05
560.8101,-4.168647E-05
560.9101,-4.16601E-05
561.0101,-4.168458E-05
561.11,-4.169589E-05
561.21,-4.166105E-05
561.31,-4.165539E-05
561.41,-4.167517E-05
561.5099,-4.165539E-05
561.6099,-4.16601E-05
561.7099,-4.167799E-05
561.8099,-4.16441E-05
561.9099,-4.164974E-05
562.0098,-4.167235E-05
562.1098,-4.16262E-05
562.2098,-4.162244E-05
562.3098,-4.162714E-05
562.4097,-4.162244E-05
562.5097,-4.163279E-05
562.6097,-4.161867E-05
562.7097,-4.161867E-05
562.8096,-4.158853E-05
562.9096,-4.161113E-05
563.0096,-4.160736E-05
563.1096,-4.158382E-05
563.2095,-4.157252E-05
563.3095,-4.156969E-05
563.4095,-4.157817E-05
563.5095,-4.157911E-05
563.6094,-4.158006E-05
563.7094,-4.154898E-05
563.8094,-4.157629E-05
563.9094,-4.157441E-05
564.0093,-4.154521E-05
564.1093,-4.153862E-05
564.2093,-4.15584E-05
564.3093,-4.152167E-05
564.4092,-4.153485E-05
564.5092,-4.153014E-05
564.6092,-4.154332E-05
564.7092,-4.153862E-05
564.8091,-4.150095E-05
564.9091,-4.149247E-05
565.0091,-4.151602E-05
565.1091,-4.150566E-05
565.209,-4.148117E-05
565.309,-4.147175E-05
565.409,-4.149247E-05
565.509,-4.147364E-05
565.6089,-4.148212E-05
565.7089,-4.150189E-05
565.8089,-4.145386E-05
565.9089,-4.147647E-05
566.0089,-4.149718E-05
566.1088,-4.143314E-05
566.2088,-4.144539E-05
566.3088,-4.146422E-05
566.4088,-4.144162E-05
566.5087,-4.145386E-05
566.6087,-4.145574E-05
566.7087,-4.142373E-05
566.8087,-4.147835E-05
566.9086,-4.146328E-05
567.0086,-4.142373E-05
567.1086,-4.141996E-05
567.2086,-4.144444E-05
567.3085,-4.144256E-05
567.4085,-4.143974E-05
567.5085,-4.142843E-05
567.6085,-4.143032E-05
567.7084,-4.143597E-05
567.8084,-4.142184E-05
567.9084,-4.13983E-05
568.0084,-4.142467E-05
568.1083,-4.141808E-05
568.2083,-4.138605E-05
568.3083,-4.138605E-05
568.4083,-4.14049E-05
568.5082,-4.1387E-05
568.6082,-4.137287E-05
568.7082,-4.13757E-05
568.8082,-4.138982E-05
568.9081,-4.138605E-05
569.0081,-4.138794E-05
569.1081,-4.137005E-05
569.2081,-4.136911E-05
569.308,-4.136911E-05
569.408,-4.136628E-05
569.508,-4.137852E-05
569.608,-4.136911E-05
569.7079,-4.132579E-05
569.8079,-4.137287E-05
569.9079,-4.138135E-05
570.0079,-4.137193E-05
570.1078,-4.130978E-05
570.2078,-4.135122E-05
570.3078,-4.131919E-05
570.4078,-4.132956E-05
570.5078,-4.135216E-05
570.6077,-4.129942E-05
570.7077,-4.125704E-05
570.8077,-4.131825E-05
570.9077,-4.132296E-05
571.0076,-4.129283E-05
571.1076,-4.127211E-05
571.2076,-4.130318E-05
571.3076,-4.130413E-05
571.4075,-4.130884E-05
571.5075,-4.128623E-05
571.6075,-4.125987E-05
571.7075,-4.128623E-05
571.8074,-4.129565E-05
571.9074,-4.128906E-05
572.0074,-4.126457E-05
572.1074,-4.125233E-05
572.2073,-4.126269E-05
572.3073,-4.128341E-05
572.4073,-4.125893E-05
572.5073,-4.124009E-05
572.6072,-4.122973E-05
572.7072,-4.124009E-05
572.8072,-4.125139E-05
572.9072,-4.124009E-05
573.0071,-4.120902E-05
573.1071,-4.119865E-05
573.2071,-4.123538E-05
573.3071,-4.122879E-05
573.407,-4.120807E-05
573.507,-4.119959E-05
573.607,-4.119771E-05
573.707,-4.120524E-05
573.8069,-4.119865E-05
573.9069,-4.116946E-05
574.0069,-4.118264E-05
574.1069,-4.119865E-05
574.2068,-4.121749E-05
574.3068,-4.117605E-05
574.4068,-4.122031E-05
574.5068,-4.120524E-05
574.6068,-4.118829E-05
574.7067,-4.122408E-05
574.8067,-4.122597E-05
574.9067,-4.120242E-05
575.0067,-4.120148E-05
575.1066,-4.120524E-05
575.2066,-4.12043E-05
575.3066,-4.121466E-05
575.4066,-4.119206E-05
575.5065,-4.116569E-05
575.6065,-4.117699E-05
575.7065,-4.12156E-05
575.8065,-4.116569E-05
575.9064,-4.116946E-05
576.0064,-4.120995E-05
576.1064,-4.116286E-05
576.2064,-4.117888E-05
576.3063,-4.11591E-05
576.4063,-4.114027E-05
576.5063,-4.116381E-05
576.6063,-4.116098E-05
576.7062,-4.114968E-05
576.8062,-4.11365E-05
576.9062,-4.112049E-05
577.0062,-4.112426E-05
577.1061,-4.114874E-05
577.2061,-4.115533E-05
577.3061,-4.110354E-05
577.4061,-4.113085E-05
577.506,-4.114309E-05
577.606,-4.111295E-05
577.706,-4.109977E-05
577.806,-4.111295E-05
577.9059,-4.112802E-05
578.0059,-4.112049E-05
578.1059,-4.109506E-05
578.2059,-4.109883E-05
578.3058,-4.109695E-05
578.4058,-4.109129E-05
578.5058,-4.109506E-05
578.6058,-4.11026E-05
578.7057,-4.109601E-05
578.8057,-4.103291E-05
578.9057,-4.108847E-05
579.0057,-4.112049E-05
579.1057,-4.109318E-05
579.2056,-4.106587E-05
579.3056,-4.111955E-05
579.4056,-4.109601E-05
579.5056,-4.10621E-05
579.6055,-4.106304E-05
579.7055,-4.106022E-05
579.8055,-4.108188E-05
579.9055,-4.108847E-05
580.0054,-4.106304E-05
580.1054,-4.103479E-05
580.2054,-4.104515E-05
580.3054,-4.105457E-05
580.4053,-4.104421E-05
580.5053,-4.103197E-05
580.6053,-4.10508E-05
580.7053,-4.099524E-05
580.8052,-4.101972E-05
580.9052,-4.103479E-05
581.0052,-4.10056E-05
581.1052,-4.102443E-05
581.2051,-4.09943E-05
581.3051,-4.098017E-05
581.4051,-4.100183E-05
581.5051,-4.10056E-05
581.605,-4.101313E-05
581.705,-4.0983E-05
581.805,-4.098488E-05
581.905,-4.096605E-05
582.0049,-4.099524E-05
582.1049,-4.098111E-05
582.2049,-4.099335E-05
582.3049,-4.099524E-05
582.4048,-4.09651E-05
582.5048,-4.098771E-05
582.6048,-4.098017E-05
582.7048,-4.09538E-05
582.8047,-4.096793E-05
582.9047,-4.099901E-05
583.0047,-4.096228E-05
583.1047,-4.093779E-05
583.2047,-4.097735E-05
583.3046,-4.094909E-05
583.4046,-4.090671E-05
583.5046,-4.09604E-05
583.6046,-4.097075E-05
583.7045,-4.092837E-05
583.8045,-4.094627E-05
583.9045,-4.092744E-05
584.0045,-4.094533E-05
584.1044,-4.094627E-05
584.2044,-4.093779E-05
584.3044,-4.090766E-05
584.4044,-4.095286E-05
584.5043,-4.093497E-05
584.6043,-4.092367E-05
584.7043,-4.091236E-05
584.8043,-4.091614E-05
584.9042,-4.092649E-05
585.0042,-4.093214E-05
585.1042,-4.08973E-05
585.2042,-4.089824E-05
585.3041,-4.093779E-05
585.4041,-4.094062E-05
585.5041,-4.088035E-05
585.6041,-4.090671E-05
585.704,-4.093309E-05
585.804,-4.091802E-05
585.904,-4.092084E-05
586.004,-4.091143E-05
586.1039,-4.090389E-05
586.2039,-4.091708E-05
586.3039,-4.092649E-05
586.4039,-4.091048E-05
586.5038,-4.091236E-05
586.6038,-4.092837E-05
586.7038,-4.088505E-05
586.8038,-4.091331E-05
586.9037,-4.091896E-05
587.0037,-4.090954E-05
587.1037,-4.09199E-05
587.2037,-4.092932E-05
587.3036,-4.088976E-05
587.4036,-4.089259E-05
587.5036,-4.091236E-05
587.6036,-4.091614E-05
587.7036,-4.090671E-05
587.8035,-4.090389E-05
587.9035,-4.086622E-05
588.0035,-4.088883E-05
588.1035,-4.09086E-05
588.2034,-4.089918E-05
588.3034,-4.088317E-05
588.4034,-4.086999E-05
588.5034,-4.08681E-05
588.6033,-4.089824E-05
588.7033,-4.089448E-05
588.8033,-4.08521E-05
588.9033,-4.088505E-05
589.0032,-4.090013E-05
589.1032,-4.086434E-05
589.2032,-4.084079E-05
589.3032,-4.089636E-05
589.4031,-4.089165E-05
589.5031,-4.087658E-05
589.6031,-4.088223E-05
589.7031,-4.083891E-05
589.803,-4.086434E-05
589.903,-4.089165E-05
590.003,-4.086151E-05
590.103,-4.085304E-05
590.2029,-4.08681E-05
590.3029,-4.084833E-05
590.4029,-4.088035E-05
590.5029,-4.085869E-05
590.6028,-4.085963E-05
590.7028,-4.084833E-05
590.8028,-4.087376E-05
590.9028,-4.086716E-05
591.0027,-4.085869E-05
591.1027,-4.085869E-05
591.2027,-4.083232E-05
591.3027,-4.086057E-05
591.4026,-4.087846E-05
591.5026,-4.086057E-05
591.6026,-4.084645E-05
591.7026,-4.084457E-05
591.8026,-4.083985E-05
591.9025,-4.083797E-05
592.0025,-4.082761E-05
592.1025,-4.083232E-05
592.2025,-4.085586E-05
592.3024,-4.086151E-05
592.4024,-4.084927E-05
592.5024,-4.08681E-05
592.6024,-4.086622E-05
592.7023,-4.086057E-05
592.8023,-4.087093E-05
592.9023,-4.089918E-05
593.0023,-4.085869E-05
593.1022,-4.086905E-05
593.2022,-4.089165E-05
593.3022,-4.085116E-05
593.4022,-4.08747E-05
593.5021,-4.088223E-05
593.6021,-4.084645E-05
593.7021,-4.081631E-05
593.8021,-4.08521E-05
593.902,-4.087846E-05
594.002,-4.084833E-05
594.102,-4.086622E-05
594.202,-4.087187E-05
594.3019,-4.085775E-05
594.4019,-4.086434E-05
594.5019,-4.089824E-05
594.6019,-4.084927E-05
594.7018,-4.085398E-05
594.8018,-4.087658E-05
594.9018,-4.086151E-05
595.0018,-4.083232E-05
595.1017,-4.084079E-05
595.2017,-4.083514E-05
595.3017,-4.08521E-05
595.4017,-4.084645E-05
595.5016,-4.08229E-05
595.6016,-4.081254E-05
595.7016,-4.082102E-05
595.8016,-4.081537E-05
595.9016,-4.082855E-05
596.0015,-4.079936E-05
596.1015,-4.076357E-05
596.2015,-4.083514E-05
596.3015,-4.085869E-05
596.4014,-4.080972E-05
596.5014,-4.080972E-05
596.6014,-4.081442E-05
596.7014,-4.079653E-05
596.8013,-4.083703E-05
596.9013,-4.083138E-05
597.0013,-4.08003E-05
597.1013,-4.080407E-05
597.2012,-4.080313E-05
597.3012,-4.080783E-05
597.4012,-4.079088E-05
597.5012,-4.080501E-05
597.6011,-4.0789E-05
597.7011,-4.08116E-05
597.8011,-4.0789E-05
597.9011,-4.077488E-05
598.001,-4.082667E-05
598.101,-4.079653E-05
598.201,-4.078429E-05
598.301,-4.080313E-05
598.4009,-4.079182E-05
598.5009,-4.075227E-05
598.6009,-4.080972E-05
598.7009,-4.079277E-05
598.8008,-4.074097E-05
598.9008,-4.078052E-05
599.0008,-4.079842E-05
599.1008,-4.077205E-05
599.2007,-4.075039E-05
599.3007,-4.075604E-05
599.4007,-4.075698E-05
599.5007,-4.078523E-05
599.6006,-4.076075E-05
599.7006,-4.074003E-05
599.8006,-4.077582E-05
599.9006,-4.079653E-05
600.0005,-4.075604E-05
