EXPID. 0875
[电化学]: i-t : @ 0(V) X 600(sec)
起始电位 (V),0
静置时间 (秒),0
运行时间 (秒),600
记录间隔,0.1
电解液 信息:
HNO3,0.4
0.1,-0.01005814
0.2,-0.01005814
0.3,-0.01005814
0.4,-0.01005814
0.5,-0.01005814
0.6,-0.01005814
0.7,-0.01005814
0.8000001,-0.01005814
0.9000001,-0.01005814
1,-0.01005814
1.1,-0.01005814
1.2,-0.01005814
1.3,-0.01005814
1.4,-0.01005814
1.5,-0.01005814
1.6,-0.01005814
1.7,-0.01005814
1.8,-0.01005814
1.9,-0.01005814
2,-0.01005814
2.1,-0.01005814
2.2,-0.01005814
2.3,-0.01005814
2.4,-0.005401144
2.5,0.007652828
2.6,0.003902171
2.7,-0.0004054038
2.799999,-0.002872803
2.899999,-0.003692477
2.999999,-0.004007208
3.099999,-0.004327583
3.199999,-0.004706725
3.299999,-0.005035352
3.399999,-0.005241758
3.499999,-0.005345357
3.599999,-0.005370211
3.699999,-0.005334457
3.799999,-0.005284867
3.899998,-0.005224918
3.999998,-0.005149547
4.099998,-0.005081348
4.199998,-0.005012275
4.299998,-0.004939381
4.399998,-0.00487207
4.499998,-0.004812283
4.599998,-0.004746186
4.699998,-0.004680828
4.799998,-0.004623659
4.899998,-0.004561324
4.999998,-0.004504336
5.099998,-0.004450048
5.199997,-0.004391469
5.299997,-0.004338821
5.399997,-0.004288302
5.499997,-0.004231323
5.599997,-0.004179327
5.699997,-0.004131428
5.799997,-0.004079103
5.899997,-0.004028586
5.999997,-0.003981428
6.099997,-0.003928456
6.199996,-0.003879541
6.299996,-0.00383564
6.399996,-0.003783393
6.499996,-0.003734957
6.599996,-0.003692358
6.699996,-0.003643488
6.799996,-0.003600103
6.899996,-0.00355982
6.999996,-0.003514621
7.099996,-0.003473185
7.199996,-0.003434589
7.299995,-0.003392755
7.399995,-0.003355476
7.499995,-0.00331924
7.599995,-0.003281576
7.699995,-0.003248294
7.799995,-0.003216414
7.899995,-0.003182009
7.999995,-0.003153021
8.099995,-0.003122056
8.199995,-0.003093199
8.299995,-0.003066673
8.399996,-0.003040539
8.499996,-0.003013862
8.599997,-0.002989458
8.699997,-0.00296614
8.799997,-0.002942192
8.899998,-0.00291951
8.999998,-0.002898816
9.099998,-0.0028765
9.199999,-0.002855642
9.299999,-0.002836816
9.4,-0.00281598
9.5,-0.002797262
9.6,-0.002779591
9.700001,-0.00276049
9.800001,-0.002742508
9.900002,-0.002726323
10,-0.002708923
10.1,-0.002692461
10.2,-0.002676787
10.3,-0.002660227
10.4,-0.002645085
10.5,-0.002630866
10.6,-0.00261592
10.7,-0.002601087
10.8,-0.002587738
10.90001,-0.002573703
11.00001,-0.002559344
11.10001,-0.002547619
11.20001,-0.002533816
11.30001,-0.002519844
11.40001,-0.002508407
11.50001,-0.002495567
11.60001,-0.002483041
11.70001,-0.002471388
11.80001,-0.0024589
11.90001,-0.002447259
12.00001,-0.002435717
12.10001,-0.00242391
12.20001,-0.00241256
12.30001,-0.00240181
12.40001,-0.002390189
12.50001,-0.002379471
12.60001,-0.002369382
12.70001,-0.00235849
12.80001,-0.002347931
12.90001,-0.002337906
13.00001,-0.002327602
13.10001,-0.002317807
13.20001,-0.002308506
13.30001,-0.002298372
13.40001,-0.002288794
13.50002,-0.002279317
13.60002,-0.002269727
13.70002,-0.002260868
13.80002,-0.002251878
13.90002,-0.002242431
14.00002,-0.002233681
14.10002,-0.002225342
14.20002,-0.00221638
14.30002,-0.002207814
14.40002,-0.0021994
14.50002,-0.002191029
14.60002,-0.002182894
14.70002,-0.002174828
14.80002,-0.002166395
14.90002,-0.002158292
15.00002,-0.002150344
15.10002,-0.002142285
15.20002,-0.002134463
15.30002,-0.002126652
15.40002,-0.00211888
15.50002,-0.002111237
15.60002,-0.002104201
15.70002,-0.002096468
15.80002,-0.002088844
15.90002,-0.002082007
16.00002,-0.002074456
16.10003,-0.002067279
16.20003,-0.002060491
16.30003,-0.002053098
16.40003,-0.002046153
16.50003,-0.002039596
16.60003,-0.002031867
16.70003,-0.002025554
16.80003,-0.002018982
16.90003,-0.002011981
17.00003,-0.00200551
17.10003,-0.001999134
17.20003,-0.001992198
17.30003,-0.001985824
17.40003,-0.001979517
17.50003,-0.001973146
17.60003,-0.001966492
17.70003,-0.001960394
17.80003,-0.001953813
17.90003,-0.001947573
18.00003,-0.001941732
18.10003,-0.001935383
18.20003,-0.00192936
18.30003,-0.001923418
18.40003,-0.001917272
18.50003,-0.001911213
18.60003,-0.001905579
18.70004,-0.001899686
18.80004,-0.001893784
18.90004,-0.001888092
19.00004,-0.001882216
19.10004,-0.001876432
19.20004,-0.00187097
19.30004,-0.001865287
19.40004,-0.001859578
19.50004,-0.00185419
19.60004,-0.001848681
19.70004,-0.00184292
19.80004,-0.001837877
19.90004,-0.001832402
20.00004,-0.001826727
20.10004,-0.001821659
20.20004,-0.001816355
20.30004,-0.001810734
20.40004,-0.001805661
20.50004,-0.001800503
20.60004,-0.001795207
20.70004,-0.001790234
20.80004,-0.001785137
20.90004,-0.001779882
21.00004,-0.001774993
21.10004,-0.001770104
21.20004,-0.001764842
21.30005,-0.001760019
21.40005,-0.001755203
21.50005,-0.001750192
21.60005,-0.001745431
21.70005,-0.001740704
21.80005,-0.001735566
21.90005,-0.001730769
22.00005,-0.001726084
22.10005,-0.001721416
22.20005,-0.001716597
22.30005,-0.001712117
22.40005,-0.001707463
22.50005,-0.001702655
22.60005,-0.001698297
22.70005,-0.001693667
22.80005,-0.001688989
22.90005,-0.001684766
23.00005,-0.001680061
23.10005,-0.001675482
23.20005,-0.001671247
23.30005,-0.0016667
23.40005,-0.001662084
23.50005,-0.00165779
23.60005,-0.001653499
23.70005,-0.001648766
23.80005,-0.001644834
23.90005,-0.001640277
24.00006,-0.001635985
24.10006,-0.001631803
24.20006,-0.001627607
24.30006,-0.001623385
24.40006,-0.001619283
24.50006,-0.001614965
24.60006,-0.001610812
24.70006,-0.001606762
24.80006,-0.001602541
24.90006,-0.001598431
25.00006,-0.001594385
25.10006,-0.001590124
25.20006,-0.00158629
25.30006,-0.001582079
25.40006,-0.001577987
25.50006,-0.001574145
25.60006,-0.001570041
25.70006,-0.001565927
25.80006,-0.001562095
25.90006,-0.001558044
26.00006,-0.001553977
26.10006,-0.001550322
26.20006,-0.001546372
26.30006,-0.001542382
26.40006,-0.001538604
26.50006,-0.001535181
26.60007,-0.001531037
26.70007,-0.001527085
26.80007,-0.001523632
26.90007,-0.001519653
27.00007,-0.001515699
27.10007,-0.001512305
27.20007,-0.001508426
27.30007,-0.001504645
27.40007,-0.001500958
27.50007,-0.001497284
27.60007,-0.001493602
27.70007,-0.001490065
27.80007,-0.001486257
27.90007,-0.001482687
28.00007,-0.001479249
28.10007,-0.0014754
28.20007,-0.001471999
28.30007,-0.001468503
28.40007,-0.001464916
28.50007,-0.001461446
28.60007,-0.00145781
28.70007,-0.001454215
28.80007,-0.001450836
28.90007,-0.001447328
29.00007,-0.001443851
29.10007,-0.001440551
29.20008,-0.001437168
29.30008,-0.001433477
29.40008,-0.001430179
29.50008,-0.001426923
29.60008,-0.001423182
29.70008,-0.001419975
29.80008,-0.001416649
29.90008,-0.001413316
30.00008,-0.001409968
30.10008,-0.001406555
30.20008,-0.0014034
30.30008,-0.001400099
30.40008,-0.001396763
30.50008,-0.001393463
30.60008,-0.001390368
30.70008,-0.001387071
30.80008,-0.001383643
30.90008,-0.001380804
31.00008,-0.001377575
31.10008,-0.001374142
31.20008,-0.001371092
31.30008,-0.001367904
31.40008,-0.001364753
31.50008,-0.001361513
31.60008,-0.001358343
31.70008,-0.001355094
31.80009,-0.001352136
31.90009,-0.001348951
32.00008,-0.001345747
32.10008,-0.00134273
32.20008,-0.001339489
32.30008,-0.001336543
32.40008,-0.001333484
32.50008,-0.001330329
32.60007,-0.001327326
32.70007,-0.001324387
32.80007,-0.001321251
32.90007,-0.00131836
33.00007,-0.00131529
33.10007,-0.001312288
33.20007,-0.001309507
33.30006,-0.001306349
33.40006,-0.001303224
33.50006,-0.001300427
33.60006,-0.001297368
33.70006,-0.001294268
33.80006,-0.001291506
33.90005,-0.001288602
34.00005,-0.0012855
34.10005,-0.001282701
34.20005,-0.001279831
34.30005,-0.001276876
34.40005,-0.001274052
34.50005,-0.001271367
34.60004,-0.001268212
34.70004,-0.00126545
34.80004,-0.001262723
34.90004,-0.001259677
35.00004,-0.001256993
35.10004,-0.001254256
35.20004,-0.001251244
35.30003,-0.001248529
35.40003,-0.001245815
35.50003,-0.001242823
35.60003,-0.001240248
35.70003,-0.001237535
35.80003,-0.001234528
35.90002,-0.001231967
36.00002,-0.001229209
36.10002,-0.001226405
36.20002,-0.001223898
36.30002,-0.001221134
36.40002,-0.001218464
36.50002,-0.001215607
36.60001,-0.001213066
36.70001,-0.001210229
36.80001,-0.001207721
36.90001,-0.001205147
37.00001,-0.001202369
37.10001,-0.001199772
37.2,-0.001197128
37.3,-0.00119437
37.4,-0.001191851
37.5,-0.001189268
37.6,-0.001186435
37.7,-0.001184038
37.8,-0.001181582
37.89999,-0.00117881
37.99999,-0.001176292
38.09999,-0.001173741
38.19999,-0.001170954
38.29999,-0.001168567
38.39999,-0.001166066
38.49998,-0.001163378
38.59998,-0.001160992
38.69998,-0.001158439
38.79998,-0.001155735
38.89998,-0.001153527
38.99998,-0.001151052
39.09998,-0.00114838
39.19997,-0.001146099
39.29997,-0.001143608
39.39997,-0.001140933
39.49997,-0.001138586
39.59997,-0.001136193
39.69997,-0.001133549
39.79996,-0.001131262
39.89996,-0.001128921
39.99996,-0.00112638
40.09996,-0.001123986
40.19996,-0.001121641
40.29996,-0.0011191
40.39996,-0.001116816
40.49995,-0.001114436
40.59995,-0.001112014
40.69995,-0.001109582
40.79995,-0.001107246
40.89995,-0.001104829
40.99995,-0.001102501
41.09995,-0.001100066
41.19994,-0.001097692
41.29994,-0.001095427
41.39994,-0.001093092
41.49994,-0.001090636
41.59994,-0.001088454
41.69994,-0.001086198
41.79993,-0.001083743
41.89993,-0.001081626
41.99993,-0.001079313
42.09993,-0.001076861
42.19993,-0.001074653
42.29993,-0.001072464
42.39993,-0.001070128
42.49992,-0.001067951
42.59992,-0.001065829
42.69992,-0.001063432
42.79992,-0.001061228
42.89992,-0.001059043
42.99992,-0.001056732
43.09991,-0.001054504
43.19991,-0.001052381
43.29991,-0.001050132
43.39991,-0.001047918
43.49991,-0.001045786
43.59991,-0.001043517
43.69991,-0.001041283
43.7999,-0.001039125
43.8999,-0.001036923
43.9999,-0.001034769
44.0999,-0.001032499
44.1999,-0.001030373
44.2999,-0.001028253
44.39989,-0.001026098
44.49989,-0.001023808
44.59989,-0.001021928
44.69989,-0.001019702
44.79989,-0.001017415
44.89989,-0.001015385
44.99989,-0.001013298
45.09988,-0.001011105
45.19988,-0.001009027
45.29988,-0.001007031
45.39988,-0.001004853
45.49988,-0.001002696
45.59988,-0.001000798
45.69987,-0.000998622
45.79987,-0.0009965861
45.89987,-0.000994566
45.99987,-0.0009924462
46.09987,-0.000990446
46.19987,-0.0009883817
46.29987,-0.0009863222
46.39986,-0.0009842889
46.49986,-0.0009823367
46.59986,-0.0009803534
46.69986,-0.0009784427
46.79986,-0.0009763963
46.89986,-0.0009743028
46.99986,-0.0009724316
47.09985,-0.000970308
47.19985,-0.000968239
47.29985,-0.0009664469
47.39985,-0.0009644203
47.49985,-0.0009623212
47.59985,-0.0009604763
47.69984,-0.000958509
47.79984,-0.0009564608
47.89984,-0.0009544907
47.99984,-0.0009526091
48.09984,-0.0009504902
48.19984,-0.0009486161
48.29984,-0.0009466677
48.39983,-0.0009446637
48.49983,-0.0009428311
48.59983,-0.0009409288
48.69983,-0.0009389296
48.79983,-0.0009371138
48.89983,-0.0009351578
48.99982,-0.0009332349
49.09982,-0.0009314955
49.19982,-0.0009296252
49.29982,-0.0009275939
49.39982,-0.0009257952
49.49982,-0.0009239739
49.59982,-0.0009219689
49.69981,-0.0009201589
49.79981,-0.0009183875
49.89981,-0.0009165398
49.99981,-0.0009145914
50.09981,-0.0009128982
50.19981,-0.000911092
50.2998,-0.0009092942
50.3998,-0.0009073561
50.4998,-0.0009054086
50.5998,-0.0009037314
50.6998,-0.0009019138
50.7998,-0.0009000021
50.8998,-0.0008983164
50.99979,-0.0008965252
51.09979,-0.0008945909
51.19979,-0.0008928186
51.29979,-0.0008911499
51.39979,-0.0008892457
51.49979,-0.0008874676
51.59978,-0.0008857857
51.69978,-0.0008839004
51.79978,-0.0008821365
51.89978,-0.0008804452
51.99978,-0.0008786625
52.09978,-0.0008768402
52.19978,-0.0008751309
52.29977,-0.0008734519
52.39977,-0.0008716917
52.49977,-0.0008698968
52.59977,-0.0008681659
52.69977,-0.0008663993
52.79977,-0.0008647182
52.89977,-0.0008629469
52.99976,-0.0008611651
53.09976,-0.0008594982
53.19976,-0.0008577975
53.29976,-0.0008560873
53.39976,-0.0008544147
53.49976,-0.0008527667
53.59975,-0.0008511404
53.69975,-0.0008494434
53.79975,-0.0008476654
53.89975,-0.000846119
53.99975,-0.00084444
54.09975,-0.0008428174
54.19975,-0.0008411976
54.29974,-0.0008394592
54.39974,-0.0008378488
54.49974,-0.0008363081
54.59974,-0.000834725
54.69974,-0.0008329829
54.79974,-0.0008313782
54.89973,-0.0008297763
54.99973,-0.0008279682
55.09973,-0.0008263728
55.19973,-0.0008248397
55.29973,-0.0008232407
55.39973,-0.0008216255
55.49973,-0.0008200171
55.59972,-0.0008184237
55.69972,-0.0008168161
55.79972,-0.0008151822
55.89972,-0.0008135982
55.99972,-0.0008120218
56.09972,-0.0008104369
56.19971,-0.0008087926
56.29971,-0.0008072519
56.39971,-0.0008056895
56.49971,-0.0008040557
56.59971,-0.0008025432
56.69971,-0.0008009819
56.79971,-0.0007993659
56.8997,-0.0007977894
56.9997,-0.0007962788
57.0997,-0.0007945725
57.1997,-0.0007930468
57.2997,-0.000791541
57.3997,-0.0007899241
57.49969,-0.0007884606
57.59969,-0.0007869321
57.69969,-0.0007853755
57.79969,-0.0007838735
57.89969,-0.000782378
57.99969,-0.0007807977
58.09969,-0.00077929
58.19968,-0.000777867
58.29968,-0.0007763283
58.39968,-0.0007749393
58.49968,-0.0007734146
58.59968,-0.0007718842
58.69968,-0.0007704124
58.79967,-0.0007689168
58.89967,-0.0007674252
58.99967,-0.0007659937
59.09967,-0.0007644935
59.19967,-0.0007629557
59.29967,-0.0007616081
59.39967,-0.0007602096
59.49966,-0.0007586143
59.59966,-0.0007572384
59.69966,-0.0007557957
59.79966,-0.0007543482
59.89966,-0.0007529536
59.99966,-0.0007515372
60.09966,-0.0007500493
60.19965,-0.0007487196
60.29965,-0.0007473314
60.39965,-0.0007457757
60.49965,-0.0007443979
60.59965,-0.0007431643
60.69965,-0.0007416858
60.79964,-0.0007401941
60.89964,-0.0007388653
60.99964,-0.0007374046
61.09964,-0.0007360383
61.19964,-0.0007345776
61.29964,-0.0007332337
61.39964,-0.0007318409
61.49963,-0.000730432
61.59963,-0.0007289856
61.69963,-0.0007276822
61.79963,-0.000726281
61.89963,-0.0007248438
61.99963,-0.0007235206
62.09962,-0.0007221439
62.19962,-0.0007207163
62.29962,-0.0007193319
62.39962,-0.0007179899
62.49962,-0.0007164793
62.59962,-0.0007151901
62.69962,-0.0007138491
62.79961,-0.0007124356
62.89961,-0.0007110945
62.99961,-0.0007097752
63.09961,-0.0007084002
63.19961,-0.0007071092
63.29961,-0.0007057521
63.3996,-0.0007043649
63.4996,-0.0007030983
63.5996,-0.0007018034
63.6996,-0.0007003956
63.7996,-0.0006990508
63.8996,-0.0006978077
63.9996,-0.000696446
64.09959,-0.0006951445
64.19959,-0.0006939108
64.29959,-0.0006924906
64.39959,-0.0006912579
64.49959,-0.0006899989
64.59959,-0.0006886945
64.69958,-0.0006873902
64.79958,-0.0006860888
64.89958,-0.0006847308
64.99958,-0.0006834811
65.09958,-0.0006822305
65.19958,-0.0006809253
65.29958,-0.0006795956
65.39957,-0.0006783515
65.49957,-0.000677052
65.59957,-0.0006757844
65.69957,-0.0006746392
65.79957,-0.000673252
65.89957,-0.000672009
65.99957,-0.0006707932
66.09956,-0.0006694907
66.19956,-0.0006682589
66.29956,-0.0006671091
66.39956,-0.000665787
66.49956,-0.0006645533
66.59956,-0.0006633582
66.69955,-0.0006620407
66.79955,-0.000660905
66.89955,-0.0006597136
66.99955,-0.000658416
67.09955,-0.0006571842
67.19955,-0.0006560683
67.29955,-0.0006547574
67.39954,-0.0006535708
67.49954,-0.0006523814
67.59954,-0.0006511562
67.69954,-0.000650012
67.79954,-0.0006487868
67.89954,-0.0006475013
67.99953,-0.0006463844
68.09953,-0.0006452383
68.19953,-0.0006439717
68.29953,-0.0006428294
68.39953,-0.0006416757
68.49953,-0.0006404317
68.59953,-0.0006392536
68.69952,-0.0006380623
68.79952,-0.0006367722
68.89952,-0.000635611
68.99952,-0.0006345233
69.09952,-0.0006333179
69.19952,-0.0006321483
69.29951,-0.000631004
69.39951,-0.0006298071
69.49951,-0.0006286856
69.59951,-0.0006275404
69.69951,-0.0006263971
69.79951,-0.0006251898
69.89951,-0.0006240767
69.9995,-0.0006229683
70.0995,-0.0006217751
70.1995,-0.000620677
70.2995,-0.0006195668
70.3995,-0.0006184319
70.4995,-0.000617348
70.59949,-0.0006162546
70.69949,-0.0006151114
70.79949,-0.0006139445
70.89949,-0.0006128993
70.99949,-0.0006117183
71.09949,-0.0006106062
71.19949,-0.0006096135
71.29948,-0.0006084195
71.39948,-0.0006072987
71.49948,-0.0006062564
71.59948,-0.0006051441
71.69948,-0.0006040819
71.79948,-0.0006030101
71.89948,-0.0006018895
71.99947,-0.0006008103
72.09947,-0.000599779
72.19947,-0.0005986603
72.29947,-0.0005976046
72.39947,-0.000596564
72.49947,-0.0005954659
72.59946,-0.000594351
72.69946,-0.0005933
72.79946,-0.0005922528
72.89946,-0.0005911735
72.99946,-0.0005901763
73.09946,-0.0005891544
73.19946,-0.0005880254
73.29945,-0.0005869631
73.39945,-0.0005859215
73.49945,-0.0005848922
73.59945,-0.00058391
73.69945,-0.0005828298
73.79945,-0.000581727
73.89944,-0.0005807034
73.99944,-0.0005797362
74.09944,-0.0005787098
74.19944,-0.0005775994
74.29944,-0.0005766793
74.39944,-0.0005756387
74.49944,-0.0005746076
74.59943,-0.0005735462
74.69943,-0.0005725084
74.79943,-0.0005715007
74.89943,-0.0005705402
74.99943,-0.0005694826
75.09943,-0.0005684618
75.19942,-0.0005674419
75.29942,-0.0005665341
75.39942,-0.0005656403
75.49942,-0.0005645922
75.59942,-0.0005635828
75.69942,-0.0005625666
75.79942,-0.0005615213
75.89941,-0.0005605315
75.99941,-0.0005595276
76.09941,-0.0005585162
76.19941,-0.0005575499
76.29941,-0.0005565837
76.39941,-0.000555595
76.4994,-0.0005546014
76.5994,-0.000553655
76.6994,-0.000552653
76.7994,-0.0005516227
76.8994,-0.0005507225
76.9994,-0.000549727
77.0994,-0.0005487024
77.19939,-0.0005477936
77.29939,-0.0005468302
77.39939,-0.0005458179
77.49939,-0.0005448987
77.59939,-0.0005439259
77.69939,-0.0005429023
77.79939,-0.0005420434
77.89938,-0.0005411497
77.99938,-0.0005401289
78.09938,-0.0005392559
78.19938,-0.0005383207
78.29938,-0.0005373621
78.39938,-0.0005363629
78.49937,-0.0005354541
78.59937,-0.0005346075
78.69937,-0.0005336271
78.79937,-0.0005326205
78.89937,-0.0005316392
78.99937,-0.0005307775
79.09937,-0.0005298254
79.19936,-0.0005288855
79.29936,-0.0005280107
79.39936,-0.0005270482
79.49936,-0.0005261094
79.59936,-0.0005252335
79.69936,-0.000524384
79.79935,-0.0005234244
79.89935,-0.0005224884
79.99935,-0.0005215579
80.09935,-0.0005206652
80.19935,-0.0005197677
80.29935,-0.0005189512
80.39935,-0.0005179672
80.49934,-0.0005170593
80.59934,-0.0005162438
80.69934,-0.0005152606
80.79934,-0.000514413
80.89934,-0.0005135325
80.99934,-0.0005125955
81.09933,-0.0005117573
81.19933,-0.0005108844
81.29933,-0.0005099228
81.39933,-0.0005090697
81.49933,-0.0005082014
81.59933,-0.0005072983
81.69933,-0.0005064874
81.79932,-0.0005055965
81.89932,-0.0005046737
81.99932,-0.0005038355
82.09932,-0.0005029681
82.19932,-0.0005020829
82.29932,-0.0005012467
82.39931,-0.0005003888
82.49931,-0.0004995393
82.59931,-0.0004986682
82.69931,-0.0004978593
82.79931,-0.0004969562
82.89931,-0.0004960897
82.99931,-0.0004952883
83.0993,-0.000494373
83.1993,-0.0004935706
83.2993,-0.0004927287
83.3993,-0.000491867
83.4993,-0.0004910204
83.5993,-0.000490251
83.6993,-0.000489362
83.79929,-0.0004885766
83.89929,-0.0004877856
83.99929,-0.0004868881
84.09929,-0.0004860688
84.19929,-0.0004852862
84.29929,-0.0004843963
84.39928,-0.0004835092
84.49928,-0.0004827445
84.59928,-0.000481911
84.69928,-0.0004810258
84.79928,-0.000480231
84.89928,-0.0004793919
84.99928,-0.0004785679
85.09927,-0.0004777976
85.19927,-0.0004769839
85.29927,-0.000476174
85.39927,-0.0004753613
85.49927,-0.0004745759
85.59927,-0.0004737783
85.69926,-0.0004729542
85.79926,-0.000472165
85.89926,-0.0004713665
85.99926,-0.0004705858
86.09926,-0.0004698061
86.19926,-0.0004689359
86.29926,-0.000468175
86.39925,-0.0004673688
86.49925,-0.0004666371
86.59925,-0.0004658432
86.69925,-0.0004650522
86.79925,-0.0004642037
86.89925,-0.0004634465
86.99924,-0.0004626809
87.09924,-0.0004619407
87.19924,-0.000461175
87.29924,-0.0004604141
87.39924,-0.0004596259
87.49924,-0.0004588208
87.59924,-0.0004580805
87.69923,-0.000457313
87.79923,-0.0004565502
87.89923,-0.0004557488
87.99923,-0.0004550717
88.09923,-0.0004542995
88.19923,-0.0004535932
88.29922,-0.0004527974
88.39922,-0.000452109
88.49922,-0.0004513217
88.59922,-0.000450557
88.69922,-0.0004498131
88.79922,-0.0004490879
88.89922,-0.0004483392
88.99921,-0.0004475991
89.09921,-0.0004469022
89.19921,-0.0004460781
89.29921,-0.0004453304
89.39921,-0.0004447004
89.49921,-0.0004438933
89.59921,-0.0004430957
89.6992,-0.0004424581
89.7992,-0.0004417923
89.8992,-0.0004411416
89.9992,-0.0004405248
90.0992,-0.0004397092
90.1992,-0.0004389285
90.29919,-0.0004382458
90.39919,-0.000437515
90.49919,-0.0004367503
90.59919,-0.0004360873
90.69919,-0.00043535
90.79919,-0.0004346183
90.89919,-0.0004339477
90.99918,-0.000433216
91.09918,-0.0004324758
91.19918,-0.0004318345
91.29918,-0.000431147
91.39918,-0.0004303927
91.49918,-0.0004297062
91.59917,-0.000428997
91.69917,-0.0004282775
91.79917,-0.0004276127
91.89917,-0.000426913
91.99917,-0.0004262303
92.09917,-0.0004255786
92.19917,-0.0004248063
92.29916,-0.0004241076
92.39916,-0.0004235444
92.49916,-0.0004228051
92.59916,-0.0004220461
92.69916,-0.0004214396
92.79916,-0.0004207465
92.89915,-0.0004200449
92.99915,-0.000419382
93.09915,-0.0004187614
93.19915,-0.0004180532
93.29915,-0.0004173949
93.39915,-0.0004167621
93.49915,-0.0004160369
93.59914,-0.0004153335
93.69914,-0.0004146997
93.79914,-0.0004139783
93.89914,-0.0004133765
93.99914,-0.0004127183
94.09914,-0.0004119941
94.19913,-0.0004113819
94.29913,-0.0004107491
94.39913,-0.0004100231
94.49913,-0.0004094034
94.59913,-0.0004087545
94.69913,-0.0004079936
94.79913,-0.0004073824
94.89912,-0.0004068042
94.99912,-0.0004060631
95.09912,-0.0004053671
95.19912,-0.0004047286
95.29912,-0.0004040769
95.39912,-0.0004034149
95.49911,-0.0004027868
95.59911,-0.0004020974
95.69911,-0.000401425
95.79911,-0.0004007912
95.89911,-0.0004001339
95.99911,-0.0003994897
96.09911,-0.0003988918
96.1991,-0.0003982815
96.2991,-0.0003976054
96.3991,-0.0003969914
96.4991,-0.0003963086
96.5991,-0.0003957096
96.6991,-0.0003951041
96.7991,-0.0003944666
96.89909,-0.0003938582
96.99909,-0.0003932263
97.09909,-0.0003925398
97.19909,-0.0003919437
97.29909,-0.0003913429
97.39909,-0.0003907429
97.49908,-0.0003901073
97.59908,-0.0003895752
97.69908,-0.0003888981
97.79908,-0.0003882982
97.89908,-0.0003877247
97.99908,-0.0003871116
98.09908,-0.0003864439
98.19907,-0.0003858158
98.29907,-0.000385296
98.39907,-0.0003846613
98.49907,-0.0003840454
98.59907,-0.0003834672
98.69907,-0.0003828645
98.79906,-0.0003822825
98.89906,-0.0003816967
98.99906,-0.0003810808
99.09906,-0.000380447
99.19906,-0.0003799319
99.29906,-0.0003793791
99.39906,-0.0003787848
99.49905,-0.0003781972
99.59905,-0.0003775135
99.69905,-0.000376956
99.79905,-0.0003763495
99.89905,-0.0003757487
99.99905,-0.0003751733
100.099,-0.000374596
100.199,-0.0003739707
100.299,-0.0003734019
100.399,-0.0003728708
100.499,-0.0003722718
100.599,-0.0003716626
100.699,-0.0003711192
100.799,-0.0003705626
100.899,-0.0003699496
100.999,-0.0003693609
101.099,-0.0003687988
101.199,-0.0003681932
101.299,-0.000367646
101.399,-0.0003670631
101.499,-0.0003664237
101.599,-0.0003659321
101.699,-0.0003653934
101.799,-0.0003647851
101.899,-0.0003641852
101.999,-0.0003636701
102.099,-0.0003630476
102.199,-0.0003625278
102.299,-0.0003619476
102.399,-0.0003613628
102.499,-0.0003607959
102.599,-0.00036026
102.699,-0.0003597129
102.799,-0.0003591714
102.899,-0.0003586026
102.999,-0.0003580658
103.099,-0.0003575196
103.199,-0.0003569706
103.299,-0.0003564122
103.399,-0.0003558697
103.499,-0.0003553452
103.599,-0.0003547783
103.699,-0.0003542132
103.799,-0.0003536849
103.899,-0.0003531472
103.999,-0.0003526009
104.099,-0.0003520463
104.199,-0.0003514888
104.299,-0.000351017
104.399,-0.0003504538
104.499,-0.0003498681
104.599,-0.000349352
104.699,-0.0003488171
104.799,-0.0003482822
104.899,-0.0003477604
104.999,-0.0003472388
105.099,-0.0003466615
105.199,-0.0003461463
105.299,-0.0003456463
105.399,-0.0003451161
105.499,-0.0003445887
105.599,-0.0003440538
105.699,-0.0003435453
105.799,-0.0003430292
105.899,-0.0003425291
105.999,-0.0003419961
106.099,-0.0003414481
106.199,-0.0003409357
106.299,-0.0003404187
106.3989,-0.0003399253
106.4989,-0.0003394035
106.5989,-0.0003388724
106.6989,-0.0003384129
106.7989,-0.0003379024
106.8989,-0.0003373468
106.9989,-0.0003368609
107.0989,-0.0003364314
107.1989,-0.0003358984
107.2989,-0.0003353663
107.3989,-0.0003348305
107.4989,-0.0003343756
107.5989,-0.0003338982
107.6989,-0.0003334348
107.7989,-0.0003329141
107.8989,-0.0003323717
107.9989,-0.0003319234
108.0989,-0.0003314346
108.1989,-0.0003309101
108.2989,-0.0003304072
108.3989,-0.0003299165
108.4989,-0.0003294711
108.5989,-0.0003289823
108.6989,-0.0003284644
108.7989,-0.0003280095
108.8989,-0.0003275377
108.9989,-0.0003270245
109.0989,-0.0003265009
109.1989,-0.0003260121
109.2989,-0.0003255055
109.3989,-0.0003250346
109.4989,-0.0003245534
109.5989,-0.0003240948
109.6989,-0.0003235825
109.7989,-0.0003230598
109.8989,-0.0003225616
109.9989,-0.000322102
110.0989,-0.0003216349
110.1989,-0.0003211556
110.2989,-0.0003206282
110.3989,-0.0003201348
110.4989,-0.0003196827
110.5989,-0.0003192119
110.6989,-0.0003187307
110.7989,-0.000318256
110.8989,-0.0003177767
110.9989,-0.0003172983
111.0989,-0.0003168302
111.1989,-0.0003163547
111.2989,-0.0003158659
111.3989,-0.0003154092
111.4989,-0.0003149609
111.5989,-0.0003144948
111.6989,-0.0003140041
111.7989,-0.000313569
111.8989,-0.0003130614
111.9989,-0.0003126377
112.0989,-0.000312228
112.1989,-0.000311759
112.2989,-0.000311225
112.3989,-0.0003107438
112.4989,-0.0003102927
112.5989,-0.0003098708
112.6989,-0.0003094329
112.7989,-0.0003089602
112.8988,-0.0003085242
112.9988,-0.000308106
113.0988,-0.0003076305
113.1988,-0.0003071916
113.2988,-0.0003067302
113.3988,-0.000306247
113.4988,-0.0003058261
113.5988,-0.0003054155
113.6988,-0.0003049626
113.7988,-0.0003045199
113.8988,-0.000304115
113.9988,-0.0003037326
114.0988,-0.0003033098
114.1988,-0.0003028031
114.2988,-0.000302369
114.3988,-0.0003019481
114.4988,-0.0003015413
114.5988,-0.0003010779
114.6988,-0.000300608
114.7988,-0.000300187
114.8988,-0.0002997369
114.9988,-0.0002993027
115.0988,-0.0002988874
115.1988,-0.0002984476
115.2988,-0.0002980559
115.3988,-0.0002976039
115.4988,-0.0002971085
115.5988,-0.0002967101
115.6988,-0.0002963174
115.7988,-0.0002958607
115.8988,-0.0002954614
115.9988,-0.0002950179
116.0988,-0.00029458
116.1988,-0.0002941468
116.2988,-0.0002937607
116.3988,-0.0002933086
116.4988,-0.0002928764
116.5988,-0.0002924856
116.6988,-0.0002920382
116.7988,-0.0002916032
116.8988,-0.0002911982
116.9988,-0.0002908102
117.0988,-0.0002903751
117.1988,-0.000289956
117.2988,-0.000289521
117.3988,-0.0002892027
117.4988,-0.0002888495
117.5988,-0.0002883843
117.6988,-0.0002879493
117.7988,-0.0002875556
117.8988,-0.000287096
117.9988,-0.0002867042
118.0988,-0.0002862946
118.1988,-0.0002858925
118.2988,-0.0002854828
118.3988,-0.0002851118
118.4988,-0.0002847059
118.5988,-0.0002843565
118.6988,-0.0002839864
118.7988,-0.0002835476
118.8988,-0.0002831699
118.9988,-0.0002828046
119.0988,-0.0002823902
119.1988,-0.0002820126
119.2988,-0.0002815803
119.3988,-0.0002812064
119.4987,-0.0002808062
119.5987,-0.0002804079
119.6987,-0.0002799963
119.7987,-0.0002796309
119.8987,-0.0002792212
119.9987,-0.0002788003
120.0987,-0.0002784198
120.1987,-0.0002779951
120.2987,-0.0002776137
120.3987,-0.000277238
120.4987,-0.0002768491
120.5987,-0.0002764629
120.6987,-0.0002760712
120.7987,-0.0002756898
120.8987,-0.0002752829
120.9987,-0.0002748865
121.0987,-0.0002745126
121.1987,-0.0002741538
121.2987,-0.0002737734
121.3987,-0.0002733609
121.4987,-0.0002729795
121.5987,-0.000272615
121.6987,-0.0002722741
121.7987,-0.0002719059
121.8987,-0.0002715028
121.9987,-0.0002711063
122.0987,-0.0002707202
122.1987,-0.0002703586
122.2987,-0.0002699838
122.3987,-0.0002695911
122.4987,-0.0002693444
122.5987,-0.0002690129
122.6987,-0.0002686268
122.7987,-0.0002682529
122.8987,-0.0002679553
122.9987,-0.0002675608
123.0987,-0.0002671756
123.1987,-0.000266798
123.2987,-0.0002664401
123.3987,-0.0002660653
123.4987,-0.0002657291
123.5987,-0.0002653684
123.6987,-0.000265068
123.7987,-0.0002647261
123.8987,-0.0002643372
123.9987,-0.0002639906
124.0987,-0.0002636733
124.1987,-0.000263306
124.2987,-0.0002629548
124.3987,-0.000262627
124.4987,-0.0002622918
124.5987,-0.000261915
124.6987,-0.0002615374
124.7987,-0.0002612012
124.8987,-0.0002608584
124.9987,-0.0002604808
125.0987,-0.000260122
125.1987,-0.0002597416
125.2987,-0.0002593762
125.3987,-0.0002590381
125.4987,-0.0002586529
125.5987,-0.0002582988
125.6987,-0.0002579315
125.7987,-0.0002575746
125.8987,-0.0002572215
125.9986,-0.0002568787
126.0986,-0.0002564813
126.1986,-0.0002561055
126.2986,-0.0002557976
126.3986,-0.0002554595
126.4986,-0.0002550809
126.5986,-0.0002547617
126.6986,-0.0002543916
126.7986,-0.0002540026
126.8986,-0.0002536938
126.9986,-0.0002533378
127.0986,-0.0002529667
127.1986,-0.0002526682
127.2986,-0.0002523443
127.3986,-0.0002519666
127.4986,-0.000251637
127.5986,-0.0002513243
127.6986,-0.0002509354
127.7986,-0.0002506454
127.8986,-0.0002502847
127.9986,-0.0002499033
128.0986,-0.0002495981
128.1986,-0.0002492573
128.2986,-0.0002488777
128.3986,-0.0002485679
128.4986,-0.0002482176
128.5986,-0.0002478465
128.6987,-0.0002475518
128.7987,-0.0002472504
128.8987,-0.0002468841
128.9987,-0.0002465573
129.0987,-0.000246207
129.1987,-0.000245836
129.2987,-0.000245544
129.3987,-0.0002452153
129.4987,-0.0002448217
129.5987,-0.0002445354
129.6987,-0.0002441936
129.7987,-0.0002438922
129.8987,-0.0002436153
129.9987,-0.0002432678
130.0987,-0.0002429401
130.1987,-0.0002426162
130.2988,-0.0002422724
130.3988,-0.0002419617
130.4988,-0.0002416142
130.5988,-0.0002412789
130.6988,-0.0002409248
130.7988,-0.0002406272
130.8988,-0.0002403334
130.9988,-0.000240016
131.0988,-0.0002397316
131.1988,-0.0002393804
131.2988,-0.0002390366
131.3988,-0.0002387551
131.4988,-0.0002384085
131.5988,-0.0002380525
131.6988,-0.0002378039
131.7988,-0.0002374762
131.8988,-0.0002370976
131.9989,-0.0002368471
132.0989,-0.0002365957
132.1989,-0.0002362717
132.2989,-0.0002359496
132.3989,-0.0002356219
132.4989,-0.0002353272
132.5989,-0.0002350569
132.6989,-0.0002347329
132.7989,-0.0002344071
132.8989,-0.0002341114
132.9989,-0.0002337648
133.0989,-0.000233438
133.1989,-0.0002331744
133.2989,-0.0002329493
133.3989,-0.0002326677
133.4989,-0.0002323023
133.599,-0.0002319614
133.699,-0.0002316591
133.799,-0.0002313785
133.899,-0.0002310724
133.999,-0.0002307409
134.099,-0.0002304358
134.199,-0.0002301213
134.299,-0.0002298576
134.399,-0.00022956
134.499,-0.0002292172
134.599,-0.0002289008
134.699,-0.0002286569
134.799,-0.0002283527
134.899,-0.0002280598
134.999,-0.0002277566
135.099,-0.0002274505
135.1991,-0.0002271492
135.2991,-0.000226894
135.3991,-0.0002265803
135.4991,-0.000226247
135.5991,-0.0002259852
135.6991,-0.0002256979
135.7991,-0.0002254126
135.8991,-0.0002251555
135.9991,-0.0002248438
136.0991,-0.0002245519
136.1991,-0.0002243305
136.2991,-0.0002240461
136.3991,-0.0002237034
136.4991,-0.0002234124
136.5991,-0.0002231553
136.6991,-0.0002228615
136.7991,-0.0002225789
136.8992,-0.0002222748
136.9992,-0.0002219951
137.0992,-0.0002217869
137.1992,-0.0002214809
137.2992,-0.0002211588
137.3992,-0.0002209384
137.4992,-0.0002206465
137.5992,-0.0002203536
137.6992,-0.0002200711
137.7992,-0.0002198112
137.8992,-0.0002195117
137.9992,-0.0002192217
138.0992,-0.0002189278
138.1992,-0.0002186152
138.2992,-0.0002184448
138.3992,-0.0002182008
138.4993,-0.0002178948
138.5993,-0.0002176433
138.6993,-0.0002174314
138.7993,-0.0002171282
138.8993,-0.0002168325
138.9993,-0.0002165255
139.0993,-0.0002162373
139.1993,-0.0002159407
139.2993,-0.0002157194
139.3993,-0.0002154491
139.4993,-0.0002151901
139.5993,-0.0002149368
139.6993,-0.0002146675
139.7993,-0.0002144509
139.8993,-0.0002142211
139.9993,-0.000213899
140.0993,-0.000213625
140.1994,-0.000213366
140.2994,-0.0002130957
140.3994,-0.0002128386
140.4994,-0.0002125891
140.5994,-0.0002123131
140.6994,-0.0002120909
140.7994,-0.00021183
140.8994,-0.0002115051
140.9994,-0.0002112942
141.0994,-0.0002110465
141.1994,-0.0002107932
141.2994,-0.0002105276
141.3994,-0.0002102592
141.4994,-0.0002099626
141.5994,-0.0002097168
141.6994,-0.0002094465
141.7995,-0.0002091659
141.8995,-0.0002088975
141.9995,-0.0002086507
142.0995,-0.0002083626
142.1995,-0.0002081149
142.2995,-0.0002078794
142.3995,-0.0002076139
142.4995,-0.0002073191
142.5995,-0.0002070601
142.6995,-0.0002068049
142.7995,-0.0002066091
142.8995,-0.0002063199
142.9995,-0.000206044
143.0995,-0.0002057737
143.1995,-0.0002055157
143.2995,-0.000205269
143.3996,-0.0002050128
143.4996,-0.0002047407
143.5996,-0.0002044892
143.6996,-0.0002042481
143.7996,-0.0002040052
143.8996,-0.0002037528
143.9996,-0.0002034853
144.0996,-0.0002032254
144.1996,-0.0002029872
144.2996,-0.0002027517
144.3996,-0.0002025022
144.4996,-0.000202247
144.5996,-0.0002019814
144.6996,-0.0002017337
144.7996,-0.0002015124
144.8996,-0.0002012949
144.9996,-0.0002010227
145.0997,-0.000200792
145.1997,-0.000200549
145.2997,-0.0002003051
145.3997,-0.000200064
145.4997,-0.0001998003
145.5997,-0.0001995291
145.6997,-0.0001992852
145.7997,-0.0001990761
145.8997,-0.0001988304
145.9997,-0.0001986232
146.0997,-0.000198383
146.1997,-0.0001981099
146.2997,-0.0001979075
146.3997,-0.0001976626
146.4997,-0.0001973989
146.5997,-0.0001971852
146.6998,-0.0001969488
146.7998,-0.0001966559
146.8998,-0.0001964327
146.9998,-0.000196218
147.0998,-0.000195976
147.1998,-0.0001957556
147.2998,-0.0001954881
147.3998,-0.0001952329
147.4998,-0.0001949937
147.5998,-0.0001947687
147.6998,-0.0001945163
147.7998,-0.0001942686
147.8998,-0.0001940219
147.9998,-0.0001937977
148.0998,-0.0001935764
148.1998,-0.0001933561
148.2999,-0.0001930764
148.3999,-0.0001928683
148.4999,-0.0001926648
148.5999,-0.0001924125
148.6999,-0.0001921883
148.7999,-0.0001920254
148.8999,-0.0001918258
148.9999,-0.0001916214
149.0999,-0.0001913483
149.1999,-0.0001911581
149.2999,-0.0001909339
149.3999,-0.0001906693
149.4999,-0.0001904358
149.5999,-0.0001902154
149.6999,-0.0001899819
149.7999,-0.0001897756
149.8999,-0.0001895326
150,-0.0001892897
150.1,-0.0001890853
150.2,-0.0001888659
150.3,-0.0001886691
150.4,-0.0001884054
150.5,-0.000188233
150.6,-0.0001880099
150.7,-0.0001877537
150.8,-0.000187555
150.9,-0.0001873601
151,-0.0001871246
151.1,-0.0001868817
151.2,-0.0001866707
151.3,-0.0001864513
151.4,-0.0001862714
151.5,-0.0001860737
151.6001,-0.000185809
151.7001,-0.000185583
151.8001,-0.0001853598
151.9001,-0.0001851395
152.0001,-0.0001849549
152.1001,-0.0001847326
152.2001,-0.0001844831
152.3001,-0.0001842542
152.4001,-0.0001840631
152.5001,-0.0001838276
152.6001,-0.0001836346
152.7001,-0.0001834076
152.8001,-0.0001831873
152.9001,-0.0001829678
153.0001,-0.0001827852
153.1001,-0.0001825761
153.2001,-0.0001823745
153.3002,-0.0001821504
153.4002,-0.0001819197
153.5002,-0.0001817351
153.6002,-0.0001815486
153.7002,-0.0001813085
153.8002,-0.000181122
153.9002,-0.0001809281
154.0002,-0.0001806935
154.1002,-0.000180493
154.2002,-0.0001803008
154.3002,-0.0001800692
154.4002,-0.0001798677
154.5002,-0.0001796661
154.6002,-0.0001794703
154.7002,-0.000179248
154.8002,-0.000179038
154.9003,-0.0001789005
155.0003,-0.0001787159
155.1003,-0.0001784918
155.2003,-0.0001782385
155.3003,-0.0001780181
155.4003,-0.0001778542
155.5003,-0.0001776235
155.6003,-0.0001774069
155.7003,-0.0001772176
155.8003,-0.0001769907
155.9003,-0.0001768325
156.0003,-0.0001766403
156.1003,-0.00017642
156.2003,-0.0001762363
156.3003,-0.0001760235
156.4003,-0.0001757975
156.5004,-0.0001756082
156.6004,-0.0001754368
156.7004,-0.000175208
156.8004,-0.0001750036
156.9004,-0.0001747682
157.0004,-0.0001745808
157.1004,-0.0001744047
157.2004,-0.0001742144
157.3004,-0.000173996
157.4004,-0.0001737869
157.5004,-0.0001735957
157.6004,-0.0001733933
157.7004,-0.0001732426
157.8004,-0.0001730184
157.9004,-0.0001728207
158.0004,-0.0001726078
158.1004,-0.0001724515
158.2005,-0.0001722566
158.3005,-0.0001720541
158.4005,-0.0001718874
158.5005,-0.0001716944
158.6005,-0.0001715079
158.7005,-0.0001713167
158.8005,-0.0001711143
158.9005,-0.0001709344
159.0005,-0.0001707479
159.1005,-0.0001705436
159.2005,-0.000170359
159.3005,-0.0001701367
159.4005,-0.0001699343
159.5005,-0.0001697629
159.6005,-0.0001695943
159.7005,-0.0001693843
159.8006,-0.0001692233
159.9006,-0.0001690594
160.0006,-0.0001688381
160.1006,-0.0001687053
160.2006,-0.0001685198
160.3006,-0.0001683107
160.4006,-0.0001681506
160.5006,-0.0001679293
160.6006,-0.0001677297
160.7006,-0.0001675894
160.8006,-0.0001674227
160.9006,-0.000167175
161.0006,-0.0001669744
161.1006,-0.0001668303
161.2006,-0.0001665713
161.3006,-0.0001663962
161.4007,-0.0001662333
161.5007,-0.0001660063
161.6007,-0.0001658161
161.7007,-0.00016564
161.8007,-0.0001654667
161.9007,-0.0001652812
162.0007,-0.0001650796
162.1007,-0.0001649205
162.2007,-0.0001647585
162.3007,-0.0001645881
162.4007,-0.0001644044
162.5007,-0.0001642745
162.6007,-0.0001640843
162.7007,-0.0001638733
162.8007,-0.0001637283
162.9007,-0.0001636124
163.0007,-0.000163393
163.1008,-0.0001632329
163.2008,-0.0001630276
163.3008,-0.0001628035
163.4008,-0.0001626594
163.5008,-0.0001624776
163.6008,-0.000162261
163.7008,-0.0001620821
163.8008,-0.0001619154
163.9008,-0.0001617779
164.0008,-0.0001615981
164.1008,-0.000161406
164.2008,-0.0001612185
164.3008,-0.0001611008
164.4008,-0.000160953
164.5008,-0.0001607486
164.6008,-0.0001605565
164.7009,-0.0001603475
164.8009,-0.0001601798
164.9009,-0.0001600122
165.0009,-0.0001598248
165.1009,-0.0001596402
165.2009,-0.0001595065
165.3009,-0.0001593417
165.4009,-0.0001591684
165.5009,-0.0001590234
165.6009,-0.0001588266
165.7009,-0.0001586429
165.8009,-0.0001584772
165.9009,-0.0001582935
166.0009,-0.0001581212
166.1009,-0.0001579536
166.2009,-0.0001577822
166.3009,-0.0001576061
166.401,-0.0001574648
166.501,-0.000157284
166.601,-0.0001571117
166.701,-0.0001570147
166.801,-0.0001568047
166.901,-0.0001566135
167.001,-0.0001564816
167.101,-0.000156298
167.201,-0.0001561304
167.301,-0.0001559684
167.401,-0.000155813
167.501,-0.0001556077
167.601,-0.0001554241
167.701,-0.0001552517
167.801,-0.0001550719
167.901,-0.0001549344
168.0011,-0.000154779
168.1011,-0.0001545925
168.2011,-0.0001544419
168.3011,-0.0001543053
168.4011,-0.0001541254
168.5011,-0.0001539861
168.6011,-0.0001538533
168.7011,-0.0001536565
168.8011,-0.0001535029
168.9011,-0.0001533428
169.0011,-0.0001531366
169.1011,-0.0001529944
169.2011,-0.0001528447
169.3011,-0.0001526827
169.4011,-0.0001525471
169.5011,-0.0001523691
169.6012,-0.0001522024
169.7012,-0.000152064
169.8012,-0.0001519039
169.9012,-0.0001517146
170.0012,-0.0001515705
170.1012,-0.0001514161
170.2012,-0.0001512428
170.3012,-0.0001511081
170.4012,-0.0001509301
170.5012,-0.0001507503
170.6012,-0.0001505779
170.7012,-0.0001504273
170.8012,-0.0001502502
170.9012,-0.000150124
171.0012,-0.0001499583
171.1012,-0.0001497963
171.2012,-0.0001496842
171.3013,-0.0001495156
171.4013,-0.000149349
171.5013,-0.0001492143
171.6013,-0.0001490542
171.7013,-0.0001488772
171.8013,-0.000148735
171.9013,-0.0001485871
172.0013,-0.0001484223
172.1013,-0.0001482886
172.2013,-0.0001481087
172.3013,-0.0001479656
172.4013,-0.000147861
172.5013,-0.0001477066
172.6013,-0.0001475192
172.7013,-0.0001474033
172.8013,-0.000147263
172.9014,-0.0001470643
173.0014,-0.00014694
173.1014,-0.0001468233
173.2014,-0.0001466321
173.3014,-0.0001464418
173.4014,-0.0001463138
173.5014,-0.0001461508
173.6014,-0.0001459945
173.7014,-0.0001458485
173.8014,-0.000145679
173.9014,-0.0001455481
174.0014,-0.0001453975
174.1014,-0.0001452308
174.2014,-0.0001450961
174.3014,-0.0001449492
174.4014,-0.0001447976
174.5014,-0.000144662
174.6015,-0.0001444953
174.7015,-0.0001443503
174.8015,-0.0001442382
174.9015,-0.0001440809
175.0015,-0.0001439011
175.1015,-0.0001437485
175.2015,-0.0001436289
175.3015,-0.0001434829
175.4015,-0.0001433464
175.5015,-0.0001431759
175.6015,-0.0001430262
175.7015,-0.0001428651
175.8015,-0.0001427503
175.9015,-0.0001425779
176.0015,-0.0001424574
176.1015,-0.0001422945
176.2016,-0.0001421296
176.3016,-0.0001420308
176.4016,-0.000141897
176.5016,-0.0001417257
176.6016,-0.0001415948
176.7016,-0.0001414601
176.8016,-0.0001412962
176.9016,-0.0001411757
177.0016,-0.0001410203
177.1016,-0.0001408743
177.2016,-0.0001407293
177.3016,-0.0001405796
177.4016,-0.0001404496
177.5016,-0.0001402933
177.6016,-0.0001402085
177.7016,-0.0001400475
177.8017,-0.0001399401
177.9017,-0.0001397753
178.0017,-0.0001396133
178.1017,-0.0001395672
178.2017,-0.0001394787
178.3017,-0.0001393026
178.4017,-0.0001392131
178.5017,-0.0001391528
178.6017,-0.0001390163
178.7017,-0.0001388684
178.8017,-0.0001387479
178.9017,-0.0001386678
179.0017,-0.0001385972
179.1017,-0.0001384776
179.2017,-0.0001383543
179.3017,-0.000138261
179.4017,-0.000138132
179.5018,-0.000137971
179.6018,-0.0001379088
179.7018,-0.0001377901
179.8018,-0.0001376225
179.9018,-0.0001374879
180.0018,-0.0001373965
180.1018,-0.000137275
180.2018,-0.0001371262
180.3018,-0.0001369718
180.4018,-0.0001368343
180.5018,-0.0001367156
180.6018,-0.0001365678
180.7018,-0.0001364171
180.8018,-0.0001363116
180.9018,-0.0001361393
181.0018,-0.000136031
181.1019,-0.0001358888
181.2019,-0.0001357334
181.3019,-0.0001355771
181.4019,-0.0001354584
181.5019,-0.0001353209
181.6019,-0.00013519
181.7019,-0.000135029
181.8019,-0.0001348849
181.9019,-0.000134722
182.0019,-0.0001346024
182.1019,-0.0001344555
182.2019,-0.0001343208
182.3019,-0.0001341758
182.4019,-0.0001340289
182.5019,-0.0001338763
182.6019,-0.0001337605
182.702,-0.0001336343
182.802,-0.0001334987
182.902,-0.000133365
183.002,-0.0001331832
183.102,-0.0001330692
183.202,-0.0001329525
183.302,-0.0001328254
183.402,-0.0001327048
183.502,-0.0001325457
183.602,-0.000132395
183.702,-0.0001323036
183.802,-0.0001321878
183.902,-0.0001320173
184.002,-0.0001318808
184.102,-0.0001317386
184.202,-0.0001316228
184.302,-0.000131506
184.4021,-0.0001313628
184.5021,-0.0001312018
184.6021,-0.0001310662
184.7021,-0.0001309796
184.8021,-0.0001308402
184.9021,-0.0001307272
185.0021,-0.0001305756
185.1021,-0.0001304249
185.2021,-0.0001303345
185.3021,-0.0001302205
185.4021,-0.0001300614
185.5021,-0.0001299399
185.6021,-0.0001297864
185.7021,-0.0001297242
185.8021,-0.0001296188
185.9021,-0.000129469
186.0022,-0.0001293127
186.1022,-0.0001292016
186.2022,-0.0001290754
186.3022,-0.0001289464
186.4022,-0.0001287985
186.5022,-0.0001286902
186.6022,-0.0001285602
186.7022,-0.0001284501
186.8022,-0.0001283116
186.9022,-0.00012816
187.0022,-0.0001280847
187.1022,-0.0001279472
187.2022,-0.0001278464
187.3022,-0.0001277456
187.4022,-0.0001276486
187.5022,-0.0001275253
187.6022,-0.0001274179
187.7023,-0.0001273247
187.8023,-0.0001271806
187.9023,-0.0001270978
188.0023,-0.0001269744
188.1023,-0.0001268472
188.2023,-0.0001267192
188.3023,-0.0001265958
188.4023,-0.0001264941
188.5023,-0.0001263575
188.6023,-0.0001262351
188.7023,-0.0001261089
188.8023,-0.000126027
188.9023,-0.0001258942
189.0023,-0.0001257981
189.1023,-0.0001256522
189.2023,-0.0001255251
189.3024,-0.0001254328
189.4024,-0.000125331
189.5024,-0.0001252086
189.6024,-0.0001250777
189.7024,-0.0001249421
189.8024,-0.0001248517
189.9024,-0.0001247161
190.0024,-0.0001245965
190.1024,-0.0001244609
190.2024,-0.0001243535
190.3024,-0.000124249
190.4024,-0.0001241303
190.5024,-0.0001239929
190.6024,-0.0001239071
190.7024,-0.0001238083
190.8024,-0.000123683
190.9025,-0.0001235399
191.0025,-0.0001234335
191.1025,-0.0001233007
191.2025,-0.0001231952
191.3025,-0.0001230634
191.4025,-0.000122988
191.5025,-0.0001228807
191.6025,-0.0001227281
191.7025,-0.0001226509
191.8025,-0.0001225661
191.9025,-0.000122407
192.0025,-0.0001223335
192.1025,-0.000122245
192.2025,-0.0001221028
192.3025,-0.0001219719
192.4025,-0.0001218721
192.5025,-0.0001217628
192.6026,-0.0001216451
192.7026,-0.0001215265
192.8026,-0.0001214332
192.9026,-0.0001213325
193.0026,-0.0001212402
193.1026,-0.0001211385
193.2026,-0.0001210132
193.3026,-0.0001209087
193.4026,-0.0001208004
193.5026,-0.0001207128
193.6026,-0.0001205951
193.7026,-0.0001204934
193.8026,-0.0001203719
193.9026,-0.0001202683
194.0026,-0.0001201779
194.1026,-0.0001200658
194.2027,-0.0001199547
194.3027,-0.0001198257
194.4027,-0.0001197193
194.5027,-0.0001196515
194.6027,-0.0001195206
194.7027,-0.0001194085
194.8027,-0.0001192861
194.9027,-0.0001191806
195.0027,-0.0001191024
195.1027,-0.000118964
195.2027,-0.0001188482
195.3027,-0.0001187333
195.4027,-0.0001186514
195.5027,-0.0001185412
195.6027,-0.00011843
195.7027,-0.0001183133
195.8027,-0.0001181965
195.9028,-0.0001180995
196.0028,-0.0001179799
196.1028,-0.0001178612
196.2028,-0.0001177934
196.3028,-0.0001176889
196.4028,-0.0001175636
196.5028,-0.0001174742
196.6028,-0.0001173546
196.7028,-0.0001172802
196.8028,-0.0001172124
196.9028,-0.0001170947
197.0028,-0.0001169487
197.1028,-0.0001168771
197.2028,-0.0001167735
197.3028,-0.000116621
197.4028,-0.0001165372
197.5029,-0.0001164439
197.6029,-0.0001163083
197.7029,-0.0001162405
197.8029,-0.0001161219
197.9029,-0.000116022
198.0029,-0.0001159523
198.1029,-0.0001158384
198.2029,-0.0001157113
198.3029,-0.0001156519
198.4029,-0.0001155549
198.5029,-0.0001154099
198.6029,-0.0001153139
198.7029,-0.0001152564
198.8029,-0.0001151265
198.9029,-0.000115005
199.0029,-0.0001149202
199.103,-0.0001147968
199.203,-0.0001147055
199.303,-0.0001146368
199.403,-0.0001145087
199.503,-0.0001143938
199.603,-0.0001142958
199.703,-0.0001142167
199.803,-0.0001141141
199.903,-0.000114034
200.003,-0.0001139135
200.103,-0.0001138071
200.203,-0.0001137204
200.303,-0.0001135999
200.403,-0.0001135189
200.503,-0.0001134304
200.603,-0.0001133136
200.703,-0.0001132129
200.8031,-0.0001131064
200.9031,-0.0001130113
201.0031,-0.000112919
201.1031,-0.0001128154
201.2031,-0.0001127006
201.3031,-0.0001125998
201.4031,-0.0001125367
201.5031,-0.0001124227
201.6031,-0.0001123342
201.7031,-0.0001122645
201.8031,-0.0001121195
201.9031,-0.0001120131
202.0031,-0.0001119462
202.1031,-0.0001118483
202.2031,-0.0001117353
202.3031,-0.0001116411
202.4032,-0.0001115045
202.5032,-0.0001114226
202.6032,-0.0001113463
202.7032,-0.0001112399
202.8032,-0.0001111269
202.9032,-0.000111029
203.0032,-0.0001109508
203.1032,-0.0001108576
203.2032,-0.00011077
203.3032,-0.00011064
203.4032,-0.0001105619
203.5032,-0.0001104507
203.6032,-0.0001103425
203.7032,-0.0001102963
203.8032,-0.0001102059
203.9032,-0.0001100703
204.0033,-0.000109995
204.1033,-0.0001099064
204.2033,-0.0001098198
204.3033,-0.0001097454
204.4033,-0.0001096164
204.5033,-0.0001095175
204.6033,-0.0001094582
204.7033,-0.0001093668
204.8033,-0.000109235
204.9033,-0.0001091954
205.0033,-0.0001091276
205.1033,-0.000108993
205.2033,-0.0001088978
205.3033,-0.000108815
205.4033,-0.0001087208
205.5033,-0.0001086455
205.6033,-0.0001085174
205.7034,-0.0001083997
205.8034,-0.0001083394
205.9034,-0.0001082641
206.0034,-0.0001081473
206.1034,-0.0001080719
206.2034,-0.0001079561
206.3034,-0.0001078497
206.4034,-0.0001077885
206.5034,-0.0001077047
206.6034,-0.0001075898
206.7034,-0.0001075003
206.8034,-0.0001074363
206.9034,-0.000107328
207.0034,-0.0001072451
207.1034,-0.0001071519
207.2034,-0.0001070549
207.3035,-0.0001069748
207.4035,-0.0001069146
207.5035,-0.0001067987
207.6035,-0.0001067234
207.7035,-0.0001066104
207.8035,-0.0001065143
207.9035,-0.0001064559
208.0035,-0.0001063542
208.1035,-0.0001062469
208.2035,-0.0001061565
208.3035,-0.0001060896
208.4035,-0.0001060039
208.5035,-0.0001058777
208.6035,-0.0001058052
208.7035,-0.0001057129
208.8035,-0.0001056545
208.9035,-0.0001055377
209.0036,-0.0001054323
209.1036,-0.0001053598
209.2036,-0.0001052722
209.3036,-0.0001051808
209.4036,-0.0001051074
209.5036,-0.0001050226
209.6036,-0.0001049049
209.7036,-0.0001048484
209.8036,-0.0001047467
209.9036,-0.0001046591
210.0036,-0.0001045838
210.1036,-0.000104499
210.2036,-0.0001044161
210.3036,-0.0001043446
210.4036,-0.000104257
210.5036,-0.0001041421
210.6037,-0.0001040771
210.7037,-0.0001040074
210.8037,-0.0001038831
210.9037,-0.0001038087
211.0037,-0.0001037315
211.1037,-0.0001036147
211.2037,-0.0001035705
211.3037,-0.0001034829
211.4037,-0.0001033821
211.5037,-0.0001033002
211.6037,-0.0001032107
211.7037,-0.0001031269
211.8037,-0.0001030412
211.9037,-0.0001029386
212.0037,-0.0001028529
212.1037,-0.0001027719
212.2038,-0.0001026984
212.3038,-0.000102608
212.4038,-0.0001025242
212.5038,-0.0001024093
212.6038,-0.0001023584
212.7038,-0.0001023198
212.8038,-0.0001022313
212.9038,-0.0001021334
213.0038,-0.0001020354
213.1038,-0.0001019601
213.2038,-0.0001018593
213.3038,-0.0001017981
213.4038,-0.0001016964
213.5038,-0.000101606
213.6038,-0.0001015373
213.7038,-0.0001014591
213.8038,-0.0001013885
213.9039,-0.0001012802
214.0039,-0.0001012058
214.1039,-0.000101137
214.2039,-0.0001010504
214.3039,-0.0001009421
214.4039,-0.0001008677
214.5039,-0.0001007971
214.6039,-0.0001007133
214.7039,-0.0001006398
214.8039,-0.0001005588
214.9039,-0.0001004562
215.0039,-0.0001003714
215.1039,-0.0001003102
215.2039,-0.0001002452
215.3039,-0.0001001652
215.4039,-0.0001000663
215.504,-9.999095E-05
215.604,-9.991467E-05
215.704,-9.984968E-05
215.804,-9.976116E-05
215.904,-9.965851E-05
216.004,-9.959447E-05
216.104,-9.950312E-05
216.204,-9.943344E-05
216.304,-9.937882E-05
216.404,-9.926298E-05
216.504,-9.916975E-05
216.604,-9.910194E-05
216.704,-9.902191E-05
216.804,-9.894562E-05
216.904,-9.887593E-05
217.004,-9.878741E-05
217.104,-9.869512E-05
217.2041,-9.862355E-05
217.3041,-9.855951E-05
217.4041,-9.847664E-05
217.5041,-9.841919E-05
217.6041,-9.829959E-05
217.7041,-9.826663E-05
217.8041,-9.818094E-05
217.9041,-9.809429E-05
218.0041,-9.803497E-05
218.1041,-9.796434E-05
218.2041,-9.78438E-05
218.3041,-9.778352E-05
218.4041,-9.770724E-05
218.5041,-9.759801E-05
218.6041,-9.756129E-05
218.7041,-9.74897E-05
218.8042,-9.739742E-05
218.9042,-9.73362E-05
219.0042,-9.724109E-05
219.1042,-9.71488E-05
219.2042,-9.709135E-05
219.3042,-9.70292E-05
219.4042,-9.69774E-05
219.5042,-9.690677E-05
219.6042,-9.685497E-05
219.7042,-9.675139E-05
219.8042,-9.669771E-05
219.9042,-9.670619E-05
220.0042,-9.661861E-05
220.1042,-9.651313E-05
220.2042,-9.650276E-05
220.3042,-9.644627E-05
220.4043,-9.634267E-05
220.5043,-9.626921E-05
220.6043,-9.624191E-05
220.7043,-9.61628E-05
220.8043,-9.612043E-05
220.9043,-9.606204E-05
221.0043,-9.604886E-05
221.1043,-9.599895E-05
221.2043,-9.593114E-05
221.3043,-9.587275E-05
221.4043,-9.586239E-05
221.5043,-9.579176E-05
221.6043,-9.568441E-05
221.7043,-9.565804E-05
221.8043,-9.557704E-05
221.9043,-9.549041E-05
222.0043,-9.541413E-05
222.1044,-9.534915E-05
222.2044,-9.528888E-05
222.3044,-9.521166E-05
222.4044,-9.512784E-05
222.5044,-9.505815E-05
222.6044,-9.497906E-05
222.7044,-9.491971E-05
222.8044,-9.482649E-05
222.9044,-9.476433E-05
223.0044,-9.46598E-05
223.1044,-9.459765E-05
223.2044,-9.455433E-05
223.3044,-9.447617E-05
223.4044,-9.435185E-05
223.5044,-9.427463E-05
223.6044,-9.42219E-05
223.7045,-9.41588E-05
223.8045,-9.406557E-05
223.9045,-9.398834E-05
224.0045,-9.387722E-05
224.1045,-9.383108E-05
224.2045,-9.374538E-05
224.3045,-9.366251E-05
224.4045,-9.357116E-05
224.5045,-9.350712E-05
224.6045,-9.343178E-05
224.7045,-9.335551E-05
224.8045,-9.329712E-05
224.9045,-9.317658E-05
225.0045,-9.315208E-05
225.1045,-9.307016E-05
225.2045,-9.294962E-05
225.3046,-9.289593E-05
225.4046,-9.283755E-05
225.5046,-9.27754E-05
225.6046,-9.268876E-05
225.7046,-9.260212E-05
225.8046,-9.252113E-05
225.9046,-9.245333E-05
226.0046,-9.239399E-05
226.1046,-9.230735E-05
226.2046,-9.222166E-05
226.3046,-9.213973E-05
226.4046,-9.205309E-05
226.5046,-9.201636E-05
226.6046,-9.193914E-05
226.7046,-9.184403E-05
226.8046,-9.178376E-05
226.9046,-9.170182E-05
227.0047,-9.161048E-05
227.1047,-9.154361E-05
227.2047,-9.148617E-05
227.3047,-9.14306E-05
227.4047,-9.135715E-05
227.5047,-9.125356E-05
227.6047,-9.119141E-05
227.7047,-9.113961E-05
227.8047,-9.107464E-05
227.9047,-9.102943E-05
228.0047,-9.095126E-05
228.1047,-9.085897E-05
228.2047,-9.081942E-05
228.3047,-9.077328E-05
228.4047,-9.067816E-05
228.5047,-9.062543E-05
228.6048,-9.054539E-05
228.7048,-9.048982E-05
228.8048,-9.042954E-05
228.9048,-9.03655E-05
229.0048,-9.028169E-05
229.1048,-9.021954E-05
229.2048,-9.01376E-05
229.3048,-9.005567E-05
229.4048,-9.001236E-05
229.5048,-8.99502E-05
229.6048,-8.986262E-05
229.7048,-8.983719E-05
229.8048,-8.976751E-05
229.9048,-8.965826E-05
230.0048,-8.957728E-05
230.1048,-8.95236E-05
230.2048,-8.94379E-05
230.3049,-8.939647E-05
230.4049,-8.931736E-05
230.5049,-8.91921E-05
230.6049,-8.917422E-05
230.7049,-8.91243E-05
230.8049,-8.903672E-05
230.9049,-8.900188E-05
231.0049,-8.893595E-05
231.1049,-8.883237E-05
231.2049,-8.876456E-05
231.3049,-8.869865E-05
231.4049,-8.861389E-05
231.5049,-8.854984E-05
231.6049,-8.8499E-05
231.7049,-8.842554E-05
231.8049,-8.837751E-05
231.905,-8.827486E-05
232.005,-8.820894E-05
232.105,-8.81449E-05
232.205,-8.809028E-05
232.305,-8.800741E-05
232.405,-8.799046E-05
232.505,-8.78991E-05
232.605,-8.781342E-05
232.705,-8.779269E-05
232.805,-8.773808E-05
232.905,-8.766274E-05
233.005,-8.75808E-05
233.105,-8.754314E-05
233.205,-8.74678E-05
233.305,-8.7416E-05
233.405,-8.734726E-05
233.5051,-8.724837E-05
233.6051,-8.72173E-05
233.7051,-8.714855E-05
233.8051,-8.703649E-05
233.9051,-8.700729E-05
234.0051,-8.694608E-05
234.1051,-8.690182E-05
234.2051,-8.685191E-05
234.3051,-8.677091E-05
234.4051,-8.671723E-05
234.5051,-8.667392E-05
234.6051,-8.659576E-05
234.7051,-8.651194E-05
234.8051,-8.647615E-05
234.9051,-8.641023E-05
235.0051,-8.632077E-05
235.1051,-8.629345E-05
235.2052,-8.623413E-05
235.3052,-8.615879E-05
235.4052,-8.610982E-05
235.5052,-8.603637E-05
235.6052,-8.595538E-05
235.7052,-8.592524E-05
235.8052,-8.584802E-05
235.9052,-8.580658E-05
236.0052,-8.575855E-05
236.1052,-8.56512E-05
236.2052,-8.5622E-05
236.3052,-8.561353E-05
236.4052,-8.555043E-05
236.5052,-8.546474E-05
236.6052,-8.540635E-05
236.7052,-8.535926E-05
236.8053,-8.529617E-05
236.9053,-8.526791E-05
237.0053,-8.518222E-05
237.1053,-8.5121E-05
237.2053,-8.50758E-05
237.3053,-8.500705E-05
237.4053,-8.495997E-05
237.5053,-8.490253E-05
237.6053,-8.483283E-05
237.7053,-8.481117E-05
237.8053,-8.47575E-05
237.9053,-8.471417E-05
238.0053,-8.461247E-05
238.1053,-8.459834E-05
238.2053,-8.452489E-05
238.3053,-8.442507E-05
238.4053,-8.436103E-05
238.5054,-8.43083E-05
238.6054,-8.423107E-05
238.7054,-8.420658E-05
238.8054,-8.413595E-05
238.9054,-8.405496E-05
239.0054,-8.399846E-05
239.1054,-8.39542E-05
239.2054,-8.389205E-05
239.3054,-8.383178E-05
239.4054,-8.375549E-05
239.5054,-8.369805E-05
239.6054,-8.366321E-05
239.7054,-8.358975E-05
239.8054,-8.35097E-05
239.9054,-8.347863E-05
240.0054,-8.342118E-05
240.1055,-8.337409E-05
240.2055,-8.330723E-05
240.3055,-8.324696E-05
240.4055,-8.316597E-05
240.5055,-8.310947E-05
240.6055,-8.307745E-05
240.7055,-8.302377E-05
240.8055,-8.296539E-05
240.9055,-8.291077E-05
241.0055,-8.287121E-05
241.1055,-8.283354E-05
241.2055,-8.273843E-05
241.3055,-8.269039E-05
241.4055,-8.265273E-05
241.5055,-8.257551E-05
241.6055,-8.254725E-05
241.7056,-8.250675E-05
241.8056,-8.242388E-05
241.9056,-8.235702E-05
242.0056,-8.22911E-05
242.1056,-8.22393E-05
242.2056,-8.218563E-05
242.3056,-8.214702E-05
242.4056,-8.207921E-05
242.5056,-8.201141E-05
242.6056,-8.197279E-05
242.7056,-8.191911E-05
242.8056,-8.185885E-05
242.9056,-8.180516E-05
243.0056,-8.174301E-05
243.1056,-8.167898E-05
243.2056,-8.163754E-05
243.3056,-8.158386E-05
243.4057,-8.152265E-05
243.5057,-8.146332E-05
243.6057,-8.139928E-05
243.7057,-8.135974E-05
243.8057,-8.128628E-05
243.9057,-8.121752E-05
244.0057,-8.115631E-05
244.1057,-8.112524E-05
244.2057,-8.108474E-05
244.3057,-8.101506E-05
244.4057,-8.096137E-05
244.5057,-8.090299E-05
244.6057,-8.08333E-05
244.7057,-8.082671E-05
244.8057,-8.075043E-05
244.9057,-8.06798E-05
245.0058,-8.063836E-05
245.1058,-8.061765E-05
245.2058,-8.051783E-05
245.3058,-8.044625E-05
245.4058,-8.043307E-05
245.5058,-8.038221E-05
245.6058,-8.028804E-05
245.7058,-8.023153E-05
245.8058,-8.01788E-05
245.9058,-8.014866E-05
246.0058,-8.008556E-05
246.1058,-8.002624E-05
246.2058,-7.999422E-05
246.3058,-7.992642E-05
246.4058,-7.988121E-05
246.5058,-7.984071E-05
246.6059,-7.977385E-05
246.7059,-7.969945E-05
246.8059,-7.967214E-05
246.9059,-7.961187E-05
247.0059,-7.955631E-05
247.1059,-7.9513E-05
247.2059,-7.946025E-05
247.3059,-7.939904E-05
247.4059,-7.934725E-05
247.5059,-7.928415E-05
247.6059,-7.92446E-05
247.7059,-7.918903E-05
247.8059,-7.912406E-05
247.9059,-7.906567E-05
248.0059,-7.901859E-05
248.1059,-7.89828E-05
248.2059,-7.890934E-05
248.306,-7.883966E-05
248.406,-7.87841E-05
248.506,-7.874171E-05
248.606,-7.872759E-05
248.706,-7.867391E-05
248.806,-7.857314E-05
248.906,-7.851476E-05
249.006,-7.846484E-05
249.106,-7.842153E-05
249.206,-7.840081E-05
249.306,-7.833113E-05
249.406,-7.826237E-05
249.506,-7.821905E-05
249.606,-7.814371E-05
249.706,-7.811734E-05
249.806,-7.807309E-05
249.9061,-7.804672E-05
250.0061,-7.793371E-05
250.1061,-7.789039E-05
250.2061,-7.787249E-05
250.3061,-7.778303E-05
250.4061,-7.776325E-05
250.5061,-7.767379E-05
250.6061,-7.7622E-05
250.7061,-7.759468E-05
250.8061,-7.754384E-05
250.9061,-7.74685E-05
251.0061,-7.74346E-05
251.1061,-7.736866E-05
251.2061,-7.729899E-05
251.3061,-7.726979E-05
251.4061,-7.722929E-05
251.5061,-7.716808E-05
251.6062,-7.711346E-05
251.7062,-7.705602E-05
251.8062,-7.699669E-05
251.9062,-7.697314E-05
252.0062,-7.690911E-05
252.1062,-7.683471E-05
252.2062,-7.682435E-05
252.3062,-7.678386E-05
252.4062,-7.673112E-05
252.5062,-7.665483E-05
252.6062,-7.661435E-05
252.7062,-7.654748E-05
252.8062,-7.653618E-05
252.9062,-7.646273E-05
253.0062,-7.638833E-05
253.1062,-7.634972E-05
253.2063,-7.630075E-05
253.3063,-7.625931E-05
253.4063,-7.620563E-05
253.5063,-7.617927E-05
253.6063,-7.612088E-05
253.7063,-7.606626E-05
253.8063,-7.602859E-05
253.9063,-7.595702E-05
254.0063,-7.590804E-05
254.1063,-7.587885E-05
254.2063,-7.580916E-05
254.3063,-7.57875E-05
254.4063,-7.572911E-05
254.5063,-7.56566E-05
254.6063,-7.563965E-05
254.7063,-7.55662E-05
254.8064,-7.551817E-05
254.9064,-7.549462E-05
255.0064,-7.542682E-05
255.1064,-7.535808E-05
255.2064,-7.533736E-05
255.3064,-7.530252E-05
255.4064,-7.521776E-05
255.5064,-7.520645E-05
255.6064,-7.513771E-05
255.7064,-7.508592E-05
255.8064,-7.504637E-05
255.9064,-7.500681E-05
256.0064,-7.493241E-05
256.1064,-7.490228E-05
256.2064,-7.48712E-05
256.3064,-7.481092E-05
256.4064,-7.474689E-05
256.5064,-7.46951E-05
256.6064,-7.465555E-05
256.7065,-7.464142E-05
256.8065,-7.454913E-05
256.9065,-7.450676E-05
257.0065,-7.451428E-05
257.1065,-7.450676E-05
257.2065,-7.4422E-05
257.3065,-7.435795E-05
257.4065,-7.432594E-05
257.5065,-7.428545E-05
257.6065,-7.423271E-05
257.7065,-7.416396E-05
257.8065,-7.411122E-05
257.9065,-7.410275E-05
258.0065,-7.404907E-05
258.1065,-7.397278E-05
258.2065,-7.394076E-05
258.3065,-7.391346E-05
258.4066,-7.383813E-05
258.5066,-7.382305E-05
258.6066,-7.376372E-05
258.7066,-7.372794E-05
258.8066,-7.366578E-05
258.9066,-7.364036E-05
259.0066,-7.35443E-05
259.1066,-7.351417E-05
259.2066,-7.349534E-05
259.3066,-7.342093E-05
259.4066,-7.33908E-05
259.5066,-7.334277E-05
259.6066,-7.331075E-05
259.7066,-7.327874E-05
259.8066,-7.323918E-05
259.9066,-7.316196E-05
260.0067,-7.311487E-05
260.1067,-7.310546E-05
260.2067,-7.304518E-05
260.3067,-7.299339E-05
260.4067,-7.292276E-05
260.5067,-7.287756E-05
260.6067,-7.285496E-05
260.7067,-7.281351E-05
260.8067,-7.275701E-05
260.9067,-7.273441E-05
261.0067,-7.269298E-05
261.1067,-7.264588E-05
261.2067,-7.262517E-05
261.3067,-7.25423E-05
261.4067,-7.248956E-05
261.5067,-7.243683E-05
261.6068,-7.239727E-05
261.7068,-7.237184E-05
261.8068,-7.23323E-05
261.9068,-7.229086E-05
262.0068,-7.222588E-05
262.1068,-7.219103E-05
262.2068,-7.215619E-05
262.3068,-7.213829E-05
262.4068,-7.210251E-05
262.5068,-7.204789E-05
262.6068,-7.198668E-05
262.7068,-7.195749E-05
262.8068,-7.192453E-05
262.9068,-7.187649E-05
263.0068,-7.181906E-05
263.1068,-7.177667E-05
263.2068,-7.173618E-05
263.3069,-7.171357E-05
263.4069,-7.167685E-05
263.5069,-7.160339E-05
263.6069,-7.158644E-05
263.7069,-7.152994E-05
263.8069,-7.148662E-05
263.9069,-7.145837E-05
264.0069,-7.140092E-05
264.1069,-7.135289E-05
264.2069,-7.1335E-05
264.3069,-7.128414E-05
264.4069,-7.124365E-05
264.5069,-7.12333E-05
264.6069,-7.114383E-05
264.7069,-7.108262E-05
264.8069,-7.107414E-05
264.907,-7.102706E-05
265.007,-7.099033E-05
265.107,-7.093194E-05
265.207,-7.090839E-05
265.307,-7.084153E-05
265.407,-7.078879E-05
265.507,-7.074547E-05
265.607,-7.071062E-05
265.707,-7.071628E-05
265.807,-7.066072E-05
265.907,-7.060139E-05
266.007,-7.054488E-05
266.107,-7.054112E-05
266.207,-7.051947E-05
266.307,-7.044318E-05
266.407,-7.037349E-05
266.507,-7.031887E-05
266.6071,-7.02859E-05
266.7071,-7.025577E-05
266.8071,-7.019362E-05
266.9071,-7.012865E-05
267.0071,-7.008061E-05
267.1071,-7.003635E-05
267.2071,-7.006648E-05
267.3071,-6.99855E-05
267.4071,-6.99224E-05
267.5071,-6.992522E-05
267.6071,-6.987061E-05
267.7071,-6.98141E-05
267.8071,-6.97689E-05
267.9071,-6.973783E-05
268.0071,-6.968979E-05
268.1071,-6.969168E-05
268.2072,-6.962387E-05
268.3072,-6.95476E-05
268.4072,-6.951934E-05
268.5072,-6.950428E-05
268.6072,-6.945248E-05
268.7072,-6.942893E-05
268.8072,-6.937808E-05
268.9072,-6.930369E-05
269.0072,-6.928579E-05
269.1072,-6.923683E-05
269.2072,-6.92001E-05
269.3072,-6.91822E-05
269.4072,-6.912852E-05
269.5072,-6.908709E-05
269.6072,-6.905412E-05
269.7072,-6.901364E-05
269.8073,-6.897031E-05
269.9073,-6.895148E-05
270.0073,-6.891286E-05
270.1073,-6.885353E-05
270.2073,-6.883281E-05
270.3073,-6.877726E-05
270.4073,-6.870004E-05
270.5073,-6.871321E-05
270.6073,-6.866237E-05
270.7073,-6.861057E-05
270.8073,-6.858797E-05
270.9073,-6.853806E-05
271.0073,-6.847873E-05
271.1073,-6.845989E-05
271.2073,-6.84241E-05
271.3073,-6.83563E-05
271.4073,-6.833277E-05
271.5074,-6.829602E-05
271.6074,-6.82367E-05
271.7074,-6.823105E-05
271.8074,-6.820091E-05
271.9074,-6.812746E-05
272.0074,-6.811616E-05
272.1074,-6.804553E-05
272.2074,-6.799938E-05
272.3074,-6.798431E-05
272.4074,-6.795606E-05
272.5074,-6.788073E-05
272.6074,-6.785342E-05
272.7074,-6.780821E-05
272.8074,-6.778749E-05
272.9074,-6.772063E-05
273.0074,-6.768297E-05
273.1075,-6.76387E-05
273.2075,-6.761045E-05
273.3075,-6.759632E-05
273.4075,-6.75257E-05
273.5075,-6.748803E-05
273.6075,-6.745883E-05
273.7075,-6.742399E-05
273.8075,-6.737785E-05
273.9075,-6.731192E-05
274.0075,-6.726389E-05
274.1075,-6.724506E-05
274.2075,-6.721586E-05
274.3075,-6.715747E-05
274.4075,-6.712734E-05
274.5075,-6.709815E-05
274.6075,-6.706896E-05
274.7076,-6.703788E-05
274.8076,-6.697572E-05
274.9076,-6.692676E-05
275.0076,-6.689851E-05
275.1076,-6.688155E-05
275.2076,-6.679491E-05
275.3076,-6.677514E-05
275.4076,-6.673182E-05
275.5076,-6.669697E-05
275.6076,-6.667908E-05
275.7076,-6.66546E-05
275.8076,-6.660091E-05
275.9076,-6.657925E-05
276.0076,-6.653876E-05
276.1076,-6.648132E-05
276.2076,-6.646718E-05
276.3076,-6.643705E-05
276.4077,-6.636736E-05
276.5077,-6.632687E-05
276.6077,-6.63005E-05
276.7077,-6.627884E-05
276.8077,-6.625248E-05
276.9077,-6.622329E-05
277.0077,-6.616301E-05
277.1077,-6.614606E-05
277.2077,-6.610462E-05
277.3077,-6.604906E-05
277.4077,-6.603588E-05
277.5077,-6.599443E-05
277.6077,-6.593604E-05
277.7077,-6.592569E-05
277.8077,-6.588049E-05
277.9077,-6.583906E-05
278.0078,-6.58221E-05
278.1078,-6.577973E-05
278.2078,-6.57138E-05
278.3078,-6.570156E-05
278.4078,-6.565164E-05
278.5078,-6.561116E-05
278.6078,-6.560173E-05
278.7078,-6.556312E-05
278.8078,-6.550003E-05
278.9078,-6.548214E-05
279.0078,-6.546801E-05
279.1078,-6.534652E-05
279.2078,-6.535972E-05
279.3078,-6.533335E-05
279.4078,-6.527967E-05
279.5078,-6.52533E-05
279.6078,-6.521375E-05
279.7079,-6.51497E-05
279.8079,-6.514029E-05
279.9079,-6.51158E-05
280.0079,-6.504518E-05
280.1079,-6.500939E-05
280.2079,-6.497266E-05
280.3079,-6.4935E-05
280.4079,-6.489355E-05
280.5079,-6.487189E-05
280.6079,-6.482104E-05
280.7079,-6.479091E-05
280.8079,-6.475324E-05
280.9079,-6.47005E-05
281.0079,-6.468167E-05
281.1079,-6.463646E-05
281.2079,-6.461198E-05
281.308,-6.459974E-05
281.408,-6.45357E-05
281.508,-6.447354E-05
281.608,-6.445282E-05
281.708,-6.441893E-05
281.808,-6.436807E-05
281.908,-6.436995E-05
282.008,-6.430873E-05
282.108,-6.425412E-05
282.208,-6.424187E-05
282.308,-6.418349E-05
282.408,-6.416749E-05
282.508,-6.414959E-05
282.608,-6.409497E-05
282.708,-6.404506E-05
282.808,-6.402904E-05
282.9081,-6.399797E-05
283.0081,-6.393487E-05
283.1081,-6.392546E-05
283.2081,-6.388025E-05
283.3081,-6.383599E-05
283.4081,-6.380774E-05
283.5081,-6.377007E-05
283.6081,-6.375313E-05
283.7081,-6.374653E-05
283.8081,-6.367685E-05
283.9081,-6.365141E-05
284.0081,-6.36062E-05
284.1081,-6.35789E-05
284.2081,-6.353275E-05
284.3081,-6.353558E-05
284.4081,-6.347154E-05
284.5081,-6.344236E-05
284.6082,-6.340562E-05
284.7082,-6.334724E-05
284.8082,-6.335194E-05
284.9082,-6.332369E-05
285.0082,-6.329638E-05
285.1082,-6.323987E-05
285.2082,-6.320786E-05
285.3082,-6.31749E-05
285.4082,-6.312592E-05
285.5082,-6.311934E-05
285.6082,-6.308166E-05
285.7082,-6.305059E-05
285.8082,-6.30035E-05
285.9082,-6.294512E-05
286.0082,-6.29244E-05
286.1082,-6.289803E-05
286.2083,-6.288485E-05
286.3083,-6.285094E-05
286.4083,-6.281327E-05
286.5083,-6.277937E-05
286.6083,-6.26852E-05
286.7083,-6.270497E-05
286.8083,-6.266731E-05
286.9083,-6.260798E-05
287.0083,-6.254488E-05
287.1083,-6.251945E-05
287.2083,-6.250061E-05
287.3083,-6.246578E-05
287.4083,-6.244976E-05
287.5083,-6.237442E-05
287.6083,-6.237254E-05
287.7083,-6.232639E-05
287.8083,-6.230379E-05
287.9084,-6.22633E-05
288.0084,-6.222563E-05
288.1084,-6.219078E-05
288.2084,-6.217761E-05
288.3084,-6.21324E-05
288.4084,-6.207589E-05
288.5084,-6.205141E-05
288.6084,-6.202881E-05
288.7084,-6.200338E-05
288.8084,-6.196195E-05
288.9084,-6.190073E-05
289.0084,-6.18706E-05
289.1084,-6.185364E-05
289.2084,-6.184705E-05
289.3084,-6.179808E-05
289.4084,-6.176512E-05
289.5085,-6.172557E-05
289.6085,-6.169261E-05
289.7085,-6.168507E-05
289.8085,-6.163328E-05
289.9085,-6.162104E-05
290.0085,-6.157113E-05
290.1085,-6.152122E-05
290.2085,-6.15052E-05
290.3085,-6.147884E-05
290.4085,-6.142799E-05
290.5085,-6.141951E-05
290.6085,-6.137525E-05
290.7085,-6.132627E-05
290.8085,-6.131215E-05
290.9085,-6.129614E-05
291.0085,-6.122175E-05
291.1086,-6.11935E-05
291.2086,-6.11869E-05
291.3086,-6.115959E-05
291.4086,-6.114452E-05
291.5086,-6.110685E-05
291.6086,-6.103434E-05
291.7086,-6.104188E-05
291.8086,-6.102492E-05
291.9086,-6.096088E-05
292.0086,-6.092039E-05
292.1086,-6.089591E-05
292.2086,-6.087236E-05
292.3086,-6.087707E-05
292.4086,-6.080267E-05
292.5086,-6.075371E-05
292.6086,-6.075653E-05
292.7086,-6.072263E-05
292.8087,-6.067178E-05
292.9087,-6.065105E-05
293.0087,-6.061527E-05
293.1087,-6.057195E-05
293.2087,-6.053052E-05
293.3087,-6.050132E-05
293.4087,-6.049002E-05
293.5087,-6.044293E-05
293.6087,-6.043258E-05
293.7087,-6.038078E-05
293.8087,-6.035441E-05
293.9087,-6.032145E-05
294.0087,-6.026683E-05
294.1087,-6.027719E-05
294.2087,-6.026495E-05
294.3087,-6.016606E-05
294.4088,-6.017642E-05
294.5088,-6.017171E-05
294.6088,-6.017078E-05
294.7088,-6.011521E-05
294.8088,-6.006342E-05
294.9088,-6.003611E-05
295.0088,-6.004552E-05
295.1088,-6.00022E-05
295.2088,-5.990426E-05
295.3088,-5.992875E-05
295.4088,-5.991086E-05
295.5088,-5.984117E-05
295.6088,-5.980067E-05
295.7088,-5.975924E-05
295.8088,-5.976018E-05
295.9088,-5.973287E-05
296.0089,-5.969802E-05
296.1089,-5.967448E-05
296.2089,-5.967071E-05
296.3089,-5.961327E-05
296.4089,-5.960197E-05
296.5089,-5.958031E-05
296.6089,-5.956524E-05
296.7089,-5.949367E-05
296.8089,-5.9456E-05
296.9089,-5.942492E-05
297.0089,-5.941833E-05
297.1089,-5.937689E-05
297.2089,-5.932698E-05
297.3089,-5.928555E-05
297.4089,-5.928084E-05
297.5089,-5.925636E-05
297.6089,-5.92168E-05
297.709,-5.918855E-05
297.809,-5.915935E-05
297.909,-5.910756E-05
298.009,-5.910285E-05
298.109,-5.909626E-05
298.209,-5.903881E-05
298.309,-5.901339E-05
298.409,-5.899361E-05
298.509,-5.894935E-05
298.609,-5.893616E-05
298.709,-5.891921E-05
298.809,-5.886836E-05
298.909,-5.883163E-05
299.009,-5.880055E-05
299.109,-5.877983E-05
299.209,-5.875252E-05
299.3091,-5.871109E-05
299.4091,-5.871297E-05
299.5091,-5.867248E-05
299.6091,-5.863292E-05
299.7091,-5.861315E-05
299.8091,-5.857266E-05
299.9091,-5.856041E-05
300.0091,-5.852933E-05
300.1091,-5.851333E-05
300.2091,-5.846812E-05
300.3091,-5.844364E-05
300.4091,-5.843516E-05
300.5091,-5.841444E-05
300.6091,-5.835229E-05
300.7091,-5.829578E-05
300.8091,-5.831086E-05
300.9091,-5.827789E-05
301.0092,-5.823363E-05
301.1092,-5.821574E-05
301.2092,-5.814323E-05
301.3092,-5.812627E-05
301.4092,-5.811968E-05
301.5092,-5.808578E-05
301.6092,-5.807166E-05
301.7092,-5.804058E-05
301.8092,-5.798407E-05
301.9092,-5.796806E-05
302.0092,-5.796053E-05
302.1092,-5.793039E-05
302.2092,-5.78786E-05
302.3092,-5.787672E-05
302.4092,-5.783998E-05
302.5092,-5.780891E-05
302.6093,-5.777312E-05
302.7093,-5.776559E-05
302.8093,-5.772227E-05
302.9093,-5.76912E-05
303.0093,-5.764222E-05
303.1093,-5.76394E-05
303.2093,-5.762151E-05
303.3093,-5.757913E-05
303.4093,-5.75829E-05
303.5093,-5.752828E-05
303.6093,-5.746518E-05
303.7093,-5.745859E-05
303.8093,-5.744352E-05
303.9093,-5.740679E-05
304.0093,-5.738042E-05
304.1093,-5.736724E-05
304.2094,-5.734464E-05
304.3094,-5.730885E-05
304.4094,-5.729472E-05
304.5094,-5.725611E-05
304.6094,-5.724387E-05
304.7094,-5.724952E-05
304.8094,-5.718831E-05
304.9094,-5.715158E-05
305.0094,-5.716571E-05
305.1094,-5.712145E-05
305.2094,-5.705553E-05
305.3094,-5.704988E-05
305.4094,-5.704046E-05
305.5094,-5.698772E-05
305.6094,-5.694722E-05
305.7094,-5.691521E-05
305.8094,-5.691426E-05
305.9095,-5.692463E-05
306.0095,-5.686436E-05
306.1095,-5.680597E-05
306.2095,-5.680597E-05
306.3095,-5.676076E-05
306.4095,-5.674193E-05
306.5095,-5.673628E-05
306.6095,-5.667318E-05
306.7095,-5.664022E-05
306.8095,-5.662798E-05
306.9095,-5.661197E-05
307.0095,-5.659125E-05
307.1095,-5.653286E-05
307.2095,-5.650838E-05
307.3095,-5.644811E-05
307.4095,-5.646412E-05
307.5096,-5.643399E-05
307.6096,-5.641892E-05
307.7096,-5.637748E-05
307.8096,-5.634358E-05
307.9096,-5.633887E-05
308.0096,-5.628331E-05
308.1096,-5.626071E-05
308.2096,-5.624281E-05
308.3096,-5.620797E-05
308.4096,-5.61816E-05
308.5096,-5.613263E-05
308.6096,-5.611191E-05
308.7096,-5.606859E-05
308.8096,-5.60507E-05
308.9096,-5.603092E-05
309.0096,-5.600361E-05
309.1096,-5.597442E-05
309.2097,-5.597442E-05
309.3097,-5.59471E-05
309.4097,-5.590473E-05
309.5097,-5.589061E-05
309.6097,-5.587553E-05
309.7097,-5.583692E-05
309.8097,-5.580585E-05
309.9097,-5.577383E-05
310.0097,-5.576629E-05
310.1097,-5.575688E-05
310.2097,-5.57258E-05
310.3097,-5.567777E-05
310.4097,-5.566459E-05
310.5097,-5.56288E-05
310.6097,-5.561091E-05
310.7097,-5.559961E-05
310.8098,-5.554781E-05
310.9098,-5.552521E-05
311.0098,-5.55092E-05
311.1098,-5.546494E-05
311.2098,-5.543763E-05
311.3098,-5.541786E-05
311.4098,-5.540844E-05
311.5098,-5.539149E-05
311.6098,-5.536983E-05
311.7098,-5.531615E-05
311.8098,-5.529449E-05
311.9098,-5.531615E-05
312.0098,-5.527942E-05
312.1098,-5.521256E-05
312.2098,-5.527565E-05
312.3098,-5.528978E-05
312.4099,-5.522763E-05
312.5099,-5.517206E-05
312.6099,-5.518901E-05
312.7099,-5.515511E-05
312.8099,-5.510708E-05
312.9099,-5.508825E-05
313.0099,-5.506282E-05
313.1099,-5.503551E-05
313.2099,-5.495264E-05
313.3099,-5.496111E-05
313.4099,-5.49969E-05
313.5099,-5.492156E-05
313.6099,-5.488295E-05
313.7099,-5.485753E-05
313.8099,-5.484811E-05
313.9099,-5.480573E-05
314.0099,-5.480761E-05
314.11,-5.4769E-05
314.21,-5.475299E-05
314.31,-5.472945E-05
314.41,-5.469084E-05
314.51,-5.466353E-05
314.61,-5.463434E-05
314.71,-5.461456E-05
314.81,-5.45929E-05
314.91,-5.457595E-05
315.01,-5.454016E-05
315.11,-5.449778E-05
315.21,-5.449967E-05
315.31,-5.447707E-05
315.41,-5.444504E-05
315.51,-5.440926E-05
315.61,-5.436029E-05
315.7101,-5.437065E-05
315.8101,-5.435558E-05
315.9101,-5.431603E-05
316.0101,-5.42906E-05
316.1101,-5.428119E-05
316.2101,-5.421903E-05
316.3101,-5.421056E-05
316.4101,-5.421244E-05
316.5101,-5.415122E-05
316.6101,-5.412957E-05
316.7101,-5.41145E-05
316.8101,-5.407965E-05
316.9101,-5.40627E-05
317.0101,-5.404764E-05
317.1101,-5.402315E-05
317.2101,-5.398642E-05
317.3102,-5.399207E-05
317.4102,-5.393933E-05
317.5102,-5.392333E-05
317.6102,-5.39092E-05
317.7102,-5.385834E-05
317.8102,-5.384705E-05
317.9102,-5.381408E-05
318.0102,-5.379525E-05
318.1102,-5.380278E-05
318.2102,-5.376324E-05
318.3102,-5.37152E-05
318.4102,-5.37039E-05
318.5102,-5.368978E-05
318.6102,-5.363798E-05
318.7102,-5.36361E-05
318.8102,-5.361821E-05
318.9102,-5.356547E-05
319.0103,-5.356547E-05
319.1103,-5.353251E-05
319.2103,-5.349295E-05
319.3103,-5.349013E-05
319.4103,-5.346659E-05
319.5103,-5.341385E-05
319.6103,-5.340538E-05
319.7103,-5.336959E-05
319.8103,-5.3379E-05
319.9103,-5.334699E-05
320.0103,-5.330555E-05
320.1103,-5.327353E-05
320.2103,-5.327353E-05
320.3103,-5.324528E-05
320.4103,-5.320949E-05
320.5103,-5.319442E-05
320.6104,-5.315488E-05
320.7104,-5.313792E-05
320.8104,-5.314358E-05
320.9104,-5.311532E-05
321.0104,-5.304658E-05
321.1104,-5.302868E-05
321.2104,-5.302209E-05
321.3104,-5.29816E-05
321.4104,-5.299855E-05
321.5104,-5.294016E-05
321.6104,-5.290343E-05
321.7104,-5.290061E-05
321.8104,-5.287047E-05
321.9104,-5.282621E-05
322.0104,-5.282715E-05
322.1104,-5.281114E-05
322.2104,-5.275652E-05
322.3105,-5.275652E-05
322.4105,-5.271791E-05
322.5105,-5.268777E-05
322.6105,-5.264728E-05
322.7105,-5.263881E-05
322.8105,-5.260867E-05
322.9105,-5.258513E-05
323.0105,-5.256629E-05
323.1105,-5.25079E-05
323.2105,-5.25371E-05
323.3105,-5.251073E-05
323.4105,-5.245517E-05
323.5105,-5.242409E-05
323.6105,-5.241185E-05
323.7105,-5.237795E-05
323.8105,-5.238548E-05
323.9106,-5.235817E-05
324.0106,-5.230355E-05
324.1106,-5.228471E-05
324.2106,-5.227718E-05
324.3106,-5.225269E-05
324.4106,-5.222727E-05
324.5106,-5.218772E-05
324.6106,-5.215476E-05
324.7106,-5.216135E-05
324.8106,-5.214817E-05
324.9106,-5.209637E-05
325.0106,-5.208507E-05
325.1106,-5.206058E-05
325.2106,-5.204646E-05
325.3106,-5.202574E-05
325.4106,-5.199749E-05
325.5107,-5.195981E-05
325.6107,-5.195699E-05
325.7107,-5.195981E-05
325.8107,-5.191085E-05
325.9107,-5.186376E-05
326.0107,-5.186941E-05
326.1107,-5.182138E-05
326.2107,-5.18308E-05
326.3107,-5.177712E-05
326.4107,-5.176865E-05
326.5107,-5.172815E-05
326.6107,-5.171779E-05
326.7107,-5.17112E-05
326.8107,-5.167353E-05
326.9107,-5.164622E-05
327.0107,-5.161138E-05
327.1107,-5.16142E-05
327.2108,-5.159537E-05
327.3108,-5.156335E-05
327.4108,-5.153698E-05
327.5108,-5.150213E-05
327.6108,-5.150213E-05
327.7108,-5.15059E-05
327.8108,-5.145976E-05
327.9108,-5.141927E-05
328.0108,-5.140984E-05
328.1108,-5.138348E-05
328.2108,-5.136088E-05
328.3108,-5.132697E-05
328.4108,-5.127518E-05
328.5108,-5.130532E-05
328.6108,-5.129496E-05
328.7108,-5.124222E-05
328.8109,-5.118477E-05
328.9109,-5.119607E-05
329.0109,-5.118289E-05
329.1109,-5.115275E-05
329.2109,-5.112168E-05
329.3109,-5.109343E-05
329.4109,-5.108307E-05
329.5109,-5.107553E-05
329.6109,-5.102185E-05
329.7109,-5.098607E-05
329.8109,-5.097571E-05
329.9109,-5.097382E-05
330.0109,-5.09079E-05
330.1109,-5.090414E-05
330.2109,-5.085234E-05
330.3109,-5.084293E-05
330.4109,-5.085234E-05
330.511,-5.080902E-05
330.611,-5.075063E-05
330.711,-5.076382E-05
330.811,-5.071862E-05
330.911,-5.071768E-05
331.011,-5.069696E-05
331.111,-5.066117E-05
331.211,-5.06235E-05
331.311,-5.062915E-05
331.411,-5.060655E-05
331.511,-5.058112E-05
331.611,-5.056323E-05
331.711,-5.053216E-05
331.811,-5.053969E-05
331.911,-5.051708E-05
332.011,-5.045587E-05
332.1111,-5.04587E-05
332.2111,-5.045022E-05
332.3111,-5.043421E-05
332.4111,-5.040785E-05
332.5111,-5.039372E-05
332.6111,-5.036829E-05
332.7111,-5.033156E-05
332.8111,-5.033251E-05
332.9111,-5.02826E-05
333.0111,-5.026094E-05
333.1111,-5.026094E-05
333.2111,-5.021102E-05
333.3111,-5.018089E-05
333.4111,-5.021667E-05
333.5111,-5.021291E-05
333.6111,-5.015923E-05
333.7112,-5.013474E-05
333.8112,-5.012815E-05
333.9112,-5.006882E-05
334.0112,-5.009048E-05
334.1112,-5.005752E-05
334.2112,-5.003304E-05
334.3112,-4.998972E-05
334.4112,-4.997747E-05
334.5112,-4.995487E-05
334.6112,-4.994545E-05
334.7112,-4.991909E-05
334.8112,-4.990778E-05
334.9112,-4.989272E-05
335.0112,-4.983998E-05
335.1112,-4.982586E-05
335.2112,-4.983716E-05
335.3112,-4.978818E-05
335.4113,-4.974204E-05
335.5113,-4.976652E-05
335.6113,-4.976747E-05
335.7113,-4.971285E-05
335.8113,-4.970343E-05
335.9113,-4.97072E-05
336.0113,-4.963563E-05
336.1113,-4.961868E-05
336.2113,-4.963374E-05
336.3113,-4.9581E-05
336.4113,-4.956594E-05
336.5113,-4.955181E-05
336.6113,-4.954239E-05
336.7113,-4.949907E-05
336.8113,-4.946517E-05
336.9113,-4.948306E-05
337.0114,-4.947647E-05
337.1114,-4.940019E-05
337.2114,-4.936723E-05
337.3114,-4.936912E-05
337.4114,-4.935593E-05
337.5114,-4.93258E-05
337.6114,-4.933992E-05
337.7114,-4.925234E-05
337.8114,-4.925234E-05
337.9114,-4.928812E-05
338.0114,-4.92514E-05
338.1114,-4.919584E-05
338.2114,-4.917982E-05
338.3114,-4.91836E-05
338.4114,-4.91657E-05
338.5114,-4.914027E-05
338.6115,-4.911673E-05
338.7115,-4.906211E-05
338.8115,-4.907906E-05
338.9115,-4.905834E-05
339.0115,-4.90574E-05
339.1115,-4.904422E-05
339.2115,-4.899901E-05
339.3115,-4.896229E-05
339.4115,-4.897547E-05
339.5115,-4.895098E-05
339.6115,-4.891237E-05
339.7115,-4.891144E-05
339.8115,-4.887471E-05
339.9115,-4.884551E-05
340.0115,-4.885022E-05
340.1115,-4.883044E-05
340.2115,-4.879466E-05
340.3116,-4.880784E-05
340.4116,-4.876452E-05
340.5116,-4.875228E-05
340.6116,-4.873251E-05
340.7116,-4.870519E-05
340.8116,-4.869672E-05
340.9116,-4.869201E-05
341.0116,-4.864963E-05
341.1116,-4.860066E-05
341.2116,-4.863079E-05
341.3116,-4.860725E-05
341.4116,-4.858936E-05
341.5116,-4.856393E-05
341.6116,-4.854133E-05
341.7116,-4.852344E-05
341.8116,-4.853945E-05
341.9117,-4.849048E-05
342.0117,-4.847447E-05
342.1117,-4.846317E-05
342.2117,-4.843021E-05
342.3117,-4.843021E-05
342.4117,-4.840667E-05
342.5117,-4.837088E-05
342.6117,-4.835393E-05
342.7117,-4.83464E-05
342.8117,-4.830872E-05
342.9117,-4.830778E-05
343.0117,-4.827294E-05
343.1117,-4.823998E-05
343.2117,-4.824375E-05
343.3117,-4.824186E-05
343.4117,-4.819854E-05
343.5117,-4.814957E-05
343.6118,-4.814863E-05
343.7118,-4.81411E-05
343.8118,-4.812038E-05
343.9118,-4.809872E-05
344.0118,-4.804599E-05
344.1118,-4.807706E-05
344.2118,-4.806482E-05
344.3118,-4.80102E-05
344.4118,-4.798195E-05
344.5118,-4.798571E-05
344.6118,-4.796217E-05
344.7118,-4.794333E-05
344.8118,-4.793297E-05
344.9118,-4.791038E-05
345.0118,-4.787364E-05
345.1118,-4.786611E-05
345.2119,-4.786328E-05
345.3119,-4.783409E-05
345.4119,-4.781243E-05
345.5119,-4.778324E-05
345.6119,-4.777099E-05
345.7119,-4.775593E-05
345.8119,-4.77192E-05
345.9119,-4.772768E-05
346.0119,-4.770884E-05
346.1119,-4.765422E-05
346.2119,-4.764857E-05
346.3119,-4.76175E-05
346.4119,-4.758924E-05
346.5119,-4.760054E-05
346.6119,-4.757512E-05
346.7119,-4.754027E-05
346.812,-4.751956E-05
346.912,-4.750919E-05
347.012,-4.747247E-05
347.112,-4.749036E-05
347.212,-4.746587E-05
347.312,-4.741973E-05
347.412,-4.741408E-05
347.512,-4.740372E-05
347.612,-4.737359E-05
347.712,-4.736041E-05
347.812,-4.735475E-05
347.912,-4.73152E-05
348.012,-4.732744E-05
348.112,-4.7286E-05
348.212,-4.724928E-05
348.312,-4.726058E-05
348.412,-4.72295E-05
348.5121,-4.720408E-05
348.6121,-4.719748E-05
348.7121,-4.715322E-05
348.8121,-4.713439E-05
348.9121,-4.712309E-05
349.0121,-4.714192E-05
349.1121,-4.710708E-05
349.2121,-4.70873E-05
349.3121,-4.704869E-05
349.4121,-4.702891E-05
349.5121,-4.703833E-05
349.6121,-4.701667E-05
349.7121,-4.698653E-05
349.8121,-4.697429E-05
349.9121,-4.695263E-05
350.0121,-4.696111E-05
350.1122,-4.694886E-05
350.2122,-4.692815E-05
350.3122,-4.688012E-05
350.4122,-4.686222E-05
350.5122,-4.685752E-05
350.6122,-4.681608E-05
350.7122,-4.680855E-05
350.8122,-4.678124E-05
350.9122,-4.677935E-05
351.0122,-4.68029E-05
351.1122,-4.674828E-05
351.2122,-4.671061E-05
351.3122,-4.669554E-05
351.4122,-4.667953E-05
351.5122,-4.665504E-05
351.6122,-4.66607E-05
351.7122,-4.660137E-05
351.8123,-4.655805E-05
351.9123,-4.656558E-05
352.0123,-4.656652E-05
352.1123,-4.65345E-05
352.2123,-4.654298E-05
352.3123,-4.650437E-05
352.4123,-4.64328E-05
352.5123,-4.644033E-05
352.6123,-4.644787E-05
352.7123,-4.641867E-05
352.8123,-4.639795E-05
352.9123,-4.635087E-05
353.0123,-4.637347E-05
353.1123,-4.638948E-05
353.2123,-4.637158E-05
353.3123,-4.632544E-05
353.4124,-4.632732E-05
353.5124,-4.629342E-05
353.6124,-4.62388E-05
353.7124,-4.626705E-05
353.8124,-4.624257E-05
353.9124,-4.617947E-05
354.0124,-4.619925E-05
354.1124,-4.617664E-05
354.2124,-4.616064E-05
354.3124,-4.615499E-05
354.4124,-4.613144E-05
354.5124,-4.607023E-05
354.6124,-4.607964E-05
354.7124,-4.608907E-05
354.8124,-4.604198E-05
354.9124,-4.604198E-05
355.0125,-4.600807E-05
355.1125,-4.59883E-05
355.2125,-4.5977E-05
355.3125,-4.597135E-05
355.4125,-4.59544E-05
355.5125,-4.59318E-05
355.6125,-4.590166E-05
355.7125,-4.586964E-05
355.8125,-4.589978E-05
355.9125,-4.586964E-05
356.0125,-4.583197E-05
356.1125,-4.581973E-05
356.2125,-4.577735E-05
356.3125,-4.577923E-05
356.4125,-4.578394E-05
356.5125,-4.574816E-05
356.6125,-4.572744E-05
356.7126,-4.570296E-05
356.8126,-4.56973E-05
356.9126,-4.56813E-05
357.0126,-4.567093E-05
357.1126,-4.563892E-05
357.2126,-4.564268E-05
357.3126,-4.561349E-05
357.4126,-4.557488E-05
357.5126,-4.556358E-05
357.6126,-4.556075E-05
357.7126,-4.552779E-05
357.8126,-4.552685E-05
357.9126,-4.549766E-05
358.0126,-4.546941E-05
358.1126,-4.544963E-05
358.2126,-4.54534E-05
358.3127,-4.542515E-05
358.4127,-4.54129E-05
358.5127,-4.538747E-05
358.6127,-4.53564E-05
358.7127,-4.53498E-05
358.8127,-4.532438E-05
358.9127,-4.531779E-05
359.0127,-4.527729E-05
359.1127,-4.527729E-05
359.2127,-4.522644E-05
359.3127,-4.523585E-05
359.4127,-4.521984E-05
359.5127,-4.521043E-05
359.6127,-4.516805E-05
359.7127,-4.515015E-05
359.8127,-4.515863E-05
359.9128,-4.51445E-05
360.0128,-4.51285E-05
360.1128,-4.507764E-05
360.2128,-4.507293E-05
360.3128,-4.504751E-05
360.4128,-4.502773E-05
360.5128,-4.504751E-05
360.6128,-4.502868E-05
360.7128,-4.499195E-05
360.8128,-4.497876E-05
360.9128,-4.496276E-05
361.0128,-4.494581E-05
361.1128,-4.496558E-05
361.2128,-4.492885E-05
361.3128,-4.487329E-05
361.4128,-4.488365E-05
361.5128,-4.486764E-05
361.6129,-4.484221E-05
361.7129,-4.482808E-05
361.8129,-4.48149E-05
361.9129,-4.479607E-05
362.0129,-4.480171E-05
362.1129,-4.480831E-05
362.2129,-4.475369E-05
362.3129,-4.474333E-05
362.4129,-4.471885E-05
362.5129,-4.469154E-05
362.6129,-4.470095E-05
362.7129,-4.47066E-05
362.8129,-4.46501E-05
362.9129,-4.463315E-05
363.0129,-4.461243E-05
363.1129,-4.461149E-05
363.213,-4.463691E-05
363.313,-4.458418E-05
363.413,-4.454557E-05
363.513,-4.451826E-05
363.613,-4.452956E-05
363.713,-4.451826E-05
363.813,-4.452296E-05
363.913,-4.449188E-05
364.013,-4.445893E-05
364.113,-4.445987E-05
364.213,-4.446269E-05
364.313,-4.445516E-05
364.413,-4.44448E-05
364.513,-4.439772E-05
364.613,-4.43883E-05
364.713,-4.438924E-05
364.813,-4.436852E-05
364.9131,-4.433085E-05
365.0131,-4.434309E-05
365.1131,-4.43252E-05
365.2131,-4.426587E-05
365.3131,-4.425928E-05
365.4131,-4.426116E-05
365.5131,-4.424798E-05
365.6131,-4.425175E-05
365.7131,-4.421219E-05
365.8131,-4.417735E-05
365.9131,-4.419524E-05
366.0131,-4.418582E-05
366.1131,-4.414439E-05
366.2131,-4.412744E-05
366.3131,-4.410484E-05
366.4131,-4.408789E-05
366.5132,-4.410012E-05
366.6132,-4.408883E-05
366.7132,-4.40408E-05
366.8132,-4.402949E-05
366.9132,-4.401632E-05
367.0132,-4.402102E-05
367.1132,-4.399748E-05
367.2132,-4.395698E-05
367.3132,-4.393156E-05
367.4132,-4.395039E-05
367.5132,-4.392967E-05
367.6132,-4.391649E-05
367.7132,-4.390801E-05
367.8132,-4.387223E-05
367.9132,-4.384021E-05
368.0132,-4.385434E-05
368.1133,-4.384869E-05
368.2133,-4.382326E-05
368.3133,-4.380725E-05
368.4133,-4.378277E-05
368.5133,-4.377335E-05
368.6133,-4.375734E-05
368.7133,-4.374415E-05
368.8133,-4.374415E-05
368.9133,-4.371402E-05
369.0133,-4.36867E-05
369.1133,-4.366599E-05
369.2133,-4.365187E-05
369.3133,-4.363115E-05
369.4133,-4.363962E-05
369.5133,-4.362362E-05
369.6133,-4.358406E-05
369.7133,-4.356711E-05
369.8134,-4.357653E-05
369.9134,-4.35624E-05
370.0134,-4.354451E-05
370.1134,-4.35285E-05
370.2134,-4.347953E-05
370.3134,-4.348424E-05
370.4134,-4.348329E-05
370.5134,-4.343244E-05
370.6134,-4.343056E-05
370.7134,-4.343338E-05
370.8134,-4.3391E-05
370.9134,-4.337688E-05
371.0134,-4.336557E-05
371.1134,-4.332791E-05
371.2134,-4.334015E-05
371.3134,-4.333827E-05
371.4135,-4.328836E-05
371.5135,-4.32714E-05
371.6135,-4.325257E-05
371.7135,-4.325069E-05
371.8135,-4.32714E-05
371.9135,-4.323844E-05
372.0135,-4.320077E-05
372.1135,-4.319701E-05
372.2135,-4.316687E-05
372.3135,-4.317441E-05
372.4135,-4.316875E-05
372.5135,-4.31405E-05
372.6135,-4.312638E-05
372.7135,-4.311507E-05
372.8135,-4.307741E-05
372.9135,-4.307835E-05
373.0135,-4.305858E-05
373.1136,-4.307081E-05
373.2136,-4.303691E-05
373.3136,-4.303503E-05
373.4136,-4.300207E-05
373.5136,-4.296534E-05
373.6136,-4.296911E-05
373.7136,-4.294651E-05
373.8136,-4.293238E-05
373.9136,-4.290507E-05
374.0136,-4.288718E-05
374.1136,-4.287964E-05
374.2136,-4.287117E-05
374.3136,-4.287023E-05
374.4136,-4.283632E-05
374.5136,-4.280807E-05
374.6136,-4.280431E-05
374.7137,-4.276946E-05
374.8137,-4.276946E-05
374.9137,-4.274968E-05
375.0137,-4.275157E-05
375.1137,-4.27073E-05
375.2137,-4.269224E-05
375.3137,-4.268565E-05
375.4137,-4.268659E-05
375.5137,-4.266587E-05
375.6137,-4.264421E-05
375.7137,-4.262349E-05
375.8137,-4.259712E-05
375.9137,-4.259901E-05
376.0137,-4.259995E-05
376.1137,-4.25604E-05
376.2137,-4.253121E-05
376.3138,-4.253026E-05
376.4138,-4.253779E-05
376.5138,-4.250295E-05
376.6138,-4.249071E-05
376.7138,-4.244927E-05
376.8138,-4.246622E-05
376.9138,-4.24634E-05
377.0138,-4.243985E-05
377.1138,-4.24229E-05
377.2138,-4.239183E-05
377.3138,-4.237394E-05
377.4138,-4.239371E-05
377.5138,-4.23664E-05
377.6138,-4.232308E-05
377.7138,-4.231837E-05
377.8138,-4.232214E-05
377.9138,-4.229765E-05
378.0139,-4.228918E-05
378.1139,-4.227223E-05
378.2139,-4.224774E-05
378.3139,-4.225998E-05
378.4139,-4.224774E-05
378.5139,-4.220537E-05
378.6139,-4.221666E-05
378.7139,-4.220442E-05
378.8139,-4.216393E-05
378.9139,-4.218841E-05
379.0139,-4.216487E-05
379.1139,-4.212061E-05
379.2139,-4.212908E-05
379.3139,-4.210931E-05
379.4139,-4.2082E-05
379.5139,-4.205375E-05
379.614,-4.205845E-05
379.714,-4.203397E-05
379.814,-4.202832E-05
379.914,-4.202738E-05
380.014,-4.19784E-05
380.114,-4.197181E-05
380.214,-4.196616E-05
380.314,-4.196146E-05
380.414,-4.193414E-05
380.514,-4.192755E-05
380.614,-4.191814E-05
380.714,-4.190213E-05
380.814,-4.192943E-05
380.914,-4.190024E-05
381.014,-4.186257E-05
381.114,-4.187576E-05
381.2141,-4.187482E-05
381.3141,-4.179948E-05
381.4141,-4.180325E-05
381.5141,-4.179854E-05
381.6141,-4.176934E-05
381.7141,-4.175993E-05
381.8141,-4.173356E-05
381.9141,-4.176087E-05
382.0141,-4.171095E-05
382.1141,-4.166575E-05
382.2141,-4.165539E-05
382.3141,-4.16601E-05
382.4141,-4.164503E-05
382.5141,-4.162055E-05
382.6141,-4.160642E-05
382.7141,-4.157158E-05
382.8141,-4.1581E-05
382.9142,-4.158947E-05
383.0142,-4.155745E-05
383.1142,-4.152732E-05
383.2142,-4.153485E-05
383.3142,-4.150566E-05
383.4142,-4.14953E-05
383.5142,-4.147929E-05
383.6142,-4.147175E-05
383.7142,-4.144727E-05
383.8142,-4.145292E-05
383.9142,-4.143032E-05
384.0142,-4.143126E-05
384.1142,-4.141996E-05
384.2142,-4.139077E-05
384.3142,-4.136911E-05
384.4142,-4.13578E-05
384.5143,-4.136063E-05
384.6143,-4.134556E-05
384.7143,-4.134744E-05
384.8143,-4.132391E-05
384.9143,-4.129471E-05
385.0143,-4.128529E-05
385.1143,-4.127305E-05
385.2143,-4.12674E-05
385.3143,-4.125139E-05
385.4143,-4.121937E-05
385.5143,-4.120054E-05
385.6143,-4.119677E-05
385.7143,-4.11704E-05
385.8143,-4.117699E-05
385.9143,-4.116569E-05
386.0143,-4.114215E-05
386.1143,-4.112143E-05
386.2144,-4.114215E-05
386.3144,-4.111107E-05
386.4144,-4.11139E-05
386.5144,-4.106775E-05
386.6144,-4.107529E-05
386.7144,-4.109601E-05
386.8144,-4.107435E-05
386.9144,-4.102161E-05
387.0144,-4.10056E-05
387.1144,-4.098771E-05
387.2144,-4.096887E-05
387.3144,-4.09943E-05
387.4144,-4.097358E-05
387.5144,-4.094439E-05
387.6144,-4.091331E-05
387.7144,-4.091519E-05
387.8145,-4.0886E-05
387.9145,-4.091048E-05
388.0145,-4.090578E-05
388.1145,-4.084645E-05
388.2145,-4.08342E-05
388.3145,-4.085398E-05
388.4145,-4.082667E-05
388.5145,-4.082667E-05
388.6145,-4.077864E-05
388.7145,-4.076263E-05
388.8145,-4.076734E-05
388.9145,-4.074756E-05
389.0145,-4.07325E-05
389.1145,-4.073626E-05
389.2145,-4.071178E-05
389.3145,-4.068918E-05
389.4146,-4.070519E-05
389.5146,-4.066846E-05
389.6146,-4.062985E-05
389.7146,-4.065527E-05
389.8146,-4.065621E-05
389.9146,-4.062232E-05
390.0146,-4.062702E-05
390.1146,-4.060348E-05
390.2146,-4.058841E-05
390.3146,-4.058088E-05
390.4146,-4.056016E-05
390.5146,-4.053944E-05
390.6146,-4.053567E-05
390.7146,-4.054886E-05
390.8146,-4.050931E-05
390.9146,-4.050366E-05
391.0146,-4.05159E-05
391.1147,-4.04933E-05
391.2147,-4.049894E-05
391.3147,-4.046222E-05
391.4147,-4.04349E-05
391.5147,-4.043397E-05
391.6147,-4.042267E-05
391.7147,-4.042361E-05
391.8147,-4.039065E-05
391.9147,-4.036522E-05
392.0147,-4.033414E-05
392.1147,-4.035015E-05
392.2147,-4.036051E-05
392.3147,-4.033414E-05
392.4147,-4.030118E-05
392.5147,-4.029648E-05
392.6147,-4.027482E-05
392.7148,-4.027199E-05
392.8148,-4.028423E-05
392.9148,-4.025316E-05
393.0148,-4.023526E-05
393.1148,-4.021925E-05
393.2148,-4.019194E-05
393.3148,-4.022113E-05
393.4148,-4.018347E-05
393.5148,-4.01571E-05
393.6148,-4.017782E-05
393.7148,-4.020136E-05
393.8148,-4.012602E-05
393.9148,-4.012696E-05
394.0148,-4.011566E-05
394.1148,-4.007799E-05
394.2148,-4.012037E-05
394.3148,-4.008835E-05
394.4149,-4.004503E-05
394.5149,-4.006857E-05
394.6149,-4.003656E-05
394.7149,-4.00262E-05
394.8149,-4.003279E-05
394.9149,-4.000642E-05
395.0149,-3.996404E-05
395.1149,-3.997629E-05
395.2149,-3.995463E-05
395.3149,-3.99518E-05
395.4149,-3.99292E-05
395.5149,-3.991225E-05
395.6149,-3.989247E-05
395.7149,-3.990377E-05
395.8149,-3.985857E-05
395.9149,-3.983314E-05
396.015,-3.986422E-05
396.115,-3.984821E-05
396.215,-3.982655E-05
396.315,-3.979453E-05
396.415,-3.979548E-05
396.515,-3.977381E-05
396.615,-3.975498E-05
396.715,-3.974462E-05
396.815,-3.973803E-05
396.915,-3.972296E-05
397.015,-3.970978E-05
397.115,-3.966269E-05
397.215,-3.968341E-05
397.315,-3.967305E-05
397.415,-3.967116E-05
397.515,-3.963255E-05
397.6151,-3.960712E-05
397.7151,-3.96109E-05
397.8151,-3.962502E-05
397.9151,-3.956286E-05
398.0151,-3.959583E-05
398.1151,-3.9593E-05
398.2151,-3.954403E-05
398.3151,-3.950918E-05
398.4151,-3.954498E-05
398.5151,-3.951013E-05
398.6151,-3.947529E-05
398.7151,-3.949507E-05
398.8151,-3.950636E-05
398.9151,-3.945928E-05
399.0151,-3.945174E-05
399.1151,-3.943291E-05
399.2151,-3.940371E-05
399.3152,-3.944044E-05
399.4152,-3.940748E-05
399.5152,-3.938394E-05
399.6152,-3.939053E-05
399.7152,-3.936981E-05
399.8152,-3.933685E-05
399.9152,-3.93604E-05
400.0152,-3.931048E-05
400.1152,-3.929824E-05
400.2152,-3.929824E-05
400.3152,-3.929447E-05
400.4152,-3.92747E-05
400.5152,-3.926057E-05
400.6152,-3.921631E-05
400.7152,-3.921348E-05
400.8152,-3.92295E-05
400.9153,-3.920784E-05
401.0153,-3.920972E-05
401.1153,-3.918712E-05
401.2153,-3.915981E-05
401.3153,-3.915039E-05
401.4153,-3.915604E-05
401.5153,-3.912778E-05
401.6153,-3.914662E-05
401.7153,-3.91146E-05
401.8153,-3.909388E-05
401.9153,-3.908823E-05
402.0153,-3.908918E-05
402.1153,-3.905999E-05
402.2153,-3.907693E-05
402.3153,-3.903456E-05
402.4153,-3.900065E-05
402.5154,-3.903926E-05
402.6154,-3.90063E-05
402.7154,-3.898276E-05
402.8154,-3.8979E-05
402.9154,-3.898653E-05
403.0154,-3.895074E-05
403.1154,-3.893756E-05
403.2154,-3.893567E-05
403.3154,-3.893379E-05
403.4154,-3.891778E-05
403.5154,-3.891778E-05
403.6154,-3.888199E-05
403.7154,-3.88754E-05
403.8154,-3.885751E-05
403.9154,-3.884809E-05
404.0154,-3.887163E-05
404.1154,-3.883114E-05
404.2155,-3.87963E-05
404.3155,-3.87963E-05
404.4155,-3.878594E-05
404.5155,-3.876333E-05
404.6155,-3.876051E-05
404.7155,-3.872567E-05
404.8155,-3.870872E-05
404.9155,-3.871813E-05
405.0155,-3.870212E-05
405.1155,-3.868329E-05
405.2155,-3.869082E-05
405.3155,-3.866445E-05
405.4155,-3.862584E-05
405.5155,-3.862679E-05
405.6155,-3.863714E-05
405.7155,-3.860889E-05
405.8156,-3.862302E-05
405.9156,-3.85684E-05
406.0156,-3.85618E-05
406.1156,-3.859006E-05
406.2156,-3.857593E-05
406.3156,-3.852696E-05
406.4156,-3.852602E-05
406.5156,-3.853732E-05
406.6156,-3.851472E-05
406.7156,-3.852131E-05
406.8156,-3.849306E-05
406.9156,-3.845351E-05
407.0156,-3.847423E-05
407.1156,-3.846575E-05
407.2156,-3.84488E-05
407.3156,-3.843844E-05
407.4156,-3.84083E-05
407.5157,-3.839606E-05
407.6157,-3.842903E-05
407.7157,-3.839418E-05
407.8157,-3.835839E-05
407.9157,-3.835745E-05
408.0157,-3.835839E-05
408.1157,-3.833956E-05
408.2157,-3.833296E-05
408.3157,-3.830095E-05
408.4157,-3.831978E-05
408.5157,-3.83113E-05
408.6157,-3.824821E-05
408.7157,-3.825198E-05
408.8157,-3.825574E-05
408.9157,-3.825104E-05
409.0157,-3.824915E-05
409.1158,-3.821902E-05
409.2158,-3.820866E-05
409.3158,-3.8203E-05
409.4158,-3.819171E-05
409.5158,-3.81691E-05
409.6158,-3.816628E-05
409.7158,-3.816439E-05
409.8158,-3.813615E-05
409.9158,-3.812767E-05
410.0158,-3.812107E-05
410.1158,-3.809847E-05
410.2158,-3.809847E-05
410.3158,-3.809094E-05
410.4158,-3.808246E-05
410.5158,-3.80561E-05
410.6158,-3.806363E-05
410.7159,-3.804762E-05
410.8159,-3.803067E-05
410.9159,-3.804385E-05
411.0159,-3.80156E-05
411.1159,-3.799865E-05
411.2159,-3.798358E-05
411.3159,-3.797134E-05
411.4159,-3.795533E-05
411.5159,-3.794685E-05
411.6159,-3.793649E-05
411.7159,-3.792237E-05
411.8159,-3.791766E-05
411.9159,-3.79026E-05
412.0159,-3.788188E-05
412.1159,-3.789412E-05
412.2159,-3.784797E-05
412.3159,-3.784515E-05
412.416,-3.786492E-05
412.516,-3.783479E-05
412.616,-3.782161E-05
412.716,-3.780748E-05
412.816,-3.779241E-05
412.916,-3.778582E-05
413.016,-3.778582E-05
413.116,-3.775568E-05
413.216,-3.775003E-05
413.316,-3.774721E-05
413.416,-3.77086E-05
413.516,-3.773402E-05
413.616,-3.770389E-05
413.716,-3.766999E-05
413.816,-3.769824E-05
413.916,-3.769541E-05
414.0161,-3.766904E-05
414.1161,-3.765963E-05
414.2161,-3.76229E-05
414.3161,-3.763891E-05
414.4161,-3.762855E-05
414.5161,-3.761631E-05
414.6161,-3.760312E-05
414.7161,-3.758429E-05
414.8161,-3.761254E-05
414.9161,-3.756639E-05
415.0161,-3.756828E-05
415.1161,-3.756546E-05
415.2161,-3.753249E-05
415.3161,-3.757016E-05
415.4161,-3.75372E-05
415.5161,-3.751837E-05
415.6161,-3.749953E-05
415.7162,-3.752496E-05
415.8162,-3.74807E-05
415.9162,-3.746845E-05
416.0162,-3.745715E-05
416.1162,-3.745904E-05
416.2162,-3.748446E-05
416.3162,-3.74515E-05
416.4162,-3.739783E-05
416.5162,-3.741101E-05
416.6162,-3.743455E-05
416.7162,-3.739876E-05
416.8162,-3.739218E-05
416.9162,-3.736392E-05
417.0162,-3.733567E-05
417.1162,-3.735357E-05
417.2162,-3.734038E-05
417.3163,-3.732437E-05
417.4163,-3.731495E-05
417.5163,-3.729141E-05
417.6163,-3.728011E-05
417.7163,-3.728199E-05
417.8163,-3.729141E-05
417.9163,-3.724432E-05
418.0163,-3.727069E-05
418.1163,-3.724056E-05
418.2163,-3.72076E-05
418.3163,-3.723208E-05
418.4163,-3.72189E-05
418.5163,-3.718688E-05
418.6163,-3.720383E-05
418.7163,-3.716616E-05
418.8163,-3.715674E-05
418.9164,-3.714356E-05
419.0164,-3.716333E-05
419.1164,-3.713979E-05
419.2164,-3.713508E-05
419.3164,-3.710212E-05
419.4164,-3.707293E-05
419.5164,-3.707858E-05
419.6164,-3.706822E-05
419.7164,-3.707575E-05
419.8164,-3.705598E-05
419.9164,-3.703903E-05
420.0164,-3.701266E-05
420.1164,-3.701642E-05
420.2164,-3.698629E-05
420.3164,-3.700795E-05
420.4164,-3.699665E-05
420.5164,-3.696745E-05
420.6165,-3.697216E-05
420.7165,-3.694862E-05
420.8165,-3.693543E-05
420.9165,-3.693073E-05
421.0165,-3.692225E-05
421.1165,-3.690624E-05
421.2165,-3.689117E-05
421.3165,-3.691001E-05
421.4165,-3.687328E-05
421.5165,-3.687893E-05
421.6165,-3.688176E-05
421.7165,-3.683467E-05
421.8165,-3.685633E-05
421.9165,-3.683185E-05
422.0165,-3.684409E-05
422.1165,-3.681584E-05
422.2166,-3.678381E-05
422.3166,-3.675933E-05
422.4166,-3.678665E-05
422.5166,-3.679888E-05
422.6166,-3.676592E-05
422.7166,-3.673767E-05
422.8166,-3.674709E-05
422.9166,-3.673956E-05
423.0166,-3.672166E-05
423.1166,-3.672637E-05
423.2166,-3.670848E-05
423.3166,-3.667928E-05
423.4166,-3.670283E-05
423.5166,-3.665668E-05
423.6166,-3.665574E-05
423.7166,-3.666045E-05
423.8167,-3.66322E-05
423.9167,-3.665292E-05
424.0167,-3.66435E-05
424.1167,-3.661807E-05
424.2167,-3.659076E-05
424.3167,-3.659453E-05
424.4167,-3.658134E-05
424.5167,-3.657758E-05
424.6167,-3.659453E-05
424.7167,-3.657852E-05
424.8167,-3.654838E-05
424.9167,-3.653803E-05
425.0167,-3.652672E-05
425.1167,-3.653332E-05
425.2167,-3.651825E-05
425.3167,-3.646457E-05
425.4167,-3.646834E-05
425.5168,-3.650883E-05
425.6168,-3.645892E-05
425.7168,-3.644008E-05
425.8168,-3.641277E-05
425.9168,-3.643349E-05
426.0168,-3.640995E-05
426.1168,-3.64156E-05
426.2168,-3.636004E-05
426.3168,-3.63638E-05
426.4168,-3.639111E-05
426.5168,-3.634873E-05
426.6168,-3.637228E-05
426.7168,-3.635062E-05
426.8168,-3.632425E-05
426.9168,-3.629882E-05
427.0168,-3.631107E-05
427.1169,-3.631295E-05
427.2169,-3.628564E-05
427.3169,-3.629223E-05
427.4169,-3.626775E-05
427.5169,-3.626492E-05
427.6169,-3.625457E-05
427.7169,-3.624609E-05
427.8169,-3.624797E-05
427.9169,-3.621877E-05
428.0169,-3.621501E-05
428.1169,-3.620183E-05
428.2169,-3.619618E-05
428.3169,-3.618958E-05
428.4169,-3.619429E-05
428.5169,-3.616793E-05
428.6169,-3.617452E-05
428.7169,-3.616604E-05
428.817,-3.613967E-05
428.917,-3.611519E-05
429.017,-3.613496E-05
429.117,-3.611519E-05
429.217,-3.607187E-05
429.317,-3.611801E-05
429.417,-3.611236E-05
429.517,-3.607563E-05
429.617,-3.604173E-05
429.717,-3.606716E-05
429.817,-3.603985E-05
429.917,-3.603514E-05
430.017,-3.604926E-05
430.117,-3.601065E-05
430.217,-3.600595E-05
430.317,-3.600783E-05
430.4171,-3.596827E-05
430.5171,-3.596922E-05
430.6171,-3.597958E-05
430.7171,-3.596074E-05
430.8171,-3.595509E-05
430.9171,-3.595321E-05
431.0171,-3.594096E-05
431.1171,-3.589388E-05
431.2171,-3.592873E-05
431.3171,-3.590801E-05
431.4171,-3.590142E-05
431.5171,-3.588446E-05
431.6171,-3.587411E-05
431.7171,-3.586469E-05
431.8171,-3.587693E-05
431.9171,-3.585998E-05
432.0172,-3.58289E-05
432.1172,-3.583738E-05
432.2172,-3.581007E-05
432.3172,-3.581666E-05
432.4172,-3.582607E-05
432.5172,-3.577616E-05
432.6172,-3.578652E-05
432.7172,-3.579312E-05
432.8172,-3.575638E-05
432.9172,-3.574038E-05
433.0172,-3.571777E-05
433.1172,-3.570554E-05
433.2172,-3.570647E-05
433.3172,-3.571683E-05
433.4172,-3.569329E-05
433.5172,-3.565468E-05
433.6172,-3.567446E-05
433.7173,-3.565374E-05
433.8173,-3.565374E-05
433.9173,-3.563961E-05
434.0173,-3.561983E-05
434.1173,-3.562831E-05
434.2173,-3.56349E-05
434.3173,-3.560006E-05
434.4173,-3.557557E-05
434.5173,-3.558028E-05
434.6173,-3.555486E-05
434.7173,-3.555862E-05
434.8173,-3.555862E-05
434.9173,-3.552849E-05
435.0173,-3.552001E-05
435.1173,-3.551719E-05
435.2173,-3.5504E-05
435.3174,-3.549459E-05
435.4174,-3.550683E-05
435.5174,-3.54654E-05
435.6174,-3.54814E-05
435.7174,-3.54814E-05
435.8174,-3.544656E-05
435.9174,-3.544279E-05
436.0174,-3.54475E-05
436.1174,-3.542584E-05
436.2174,-3.543149E-05
436.3174,-3.542207E-05
436.4174,-3.540889E-05
436.5174,-3.536463E-05
436.6174,-3.540324E-05
436.7174,-3.539665E-05
436.8174,-3.536839E-05
436.9174,-3.53618E-05
437.0175,-3.534485E-05
437.1175,-3.535427E-05
437.2175,-3.535144E-05
437.3175,-3.532508E-05
437.4175,-3.527516E-05
437.5175,-3.529682E-05
437.6175,-3.531942E-05
437.7175,-3.527987E-05
437.8175,-3.527893E-05
437.9175,-3.526009E-05
438.0175,-3.523373E-05
438.1175,-3.52422E-05
438.2175,-3.523938E-05
438.3175,-3.522148E-05
438.4175,-3.521583E-05
438.5175,-3.518664E-05
438.6176,-3.520265E-05
438.7176,-3.519888E-05
438.8176,-3.516404E-05
438.9176,-3.512449E-05
439.0176,-3.517063E-05
439.1176,-3.515368E-05
439.2176,-3.51226E-05
439.3176,-3.51565E-05
439.4176,-3.511413E-05
439.5176,-3.51292E-05
439.6176,-3.512354E-05
439.7176,-3.507363E-05
439.8176,-3.510283E-05
439.9176,-3.510565E-05
440.0176,-3.507551E-05
440.1176,-3.50435E-05
440.2177,-3.505574E-05
440.3177,-3.503879E-05
440.4177,-3.502937E-05
440.5177,-3.50322E-05
440.6177,-3.500206E-05
440.7177,-3.499359E-05
440.8177,-3.499453E-05
440.9177,-3.497758E-05
441.0177,-3.494744E-05
441.1177,-3.495968E-05
441.2177,-3.495403E-05
441.3177,-3.492484E-05
441.4177,-3.492107E-05
441.5177,-3.491919E-05
441.6177,-3.492202E-05
441.7177,-3.490789E-05
441.8177,-3.486174E-05
441.9178,-3.487022E-05
442.0178,-3.485233E-05
442.1178,-3.487116E-05
442.2178,-3.486927E-05
442.3178,-3.483255E-05
442.4178,-3.481936E-05
442.5178,-3.479676E-05
442.6178,-3.481936E-05
442.7178,-3.478452E-05
442.8178,-3.479959E-05
442.9178,-3.478735E-05
443.0178,-3.473555E-05
443.1178,-3.475439E-05
443.2178,-3.476851E-05
443.3178,-3.475156E-05
443.4178,-3.474779E-05
443.5179,-3.473555E-05
443.6179,-3.469412E-05
443.7179,-3.469882E-05
443.8179,-3.471483E-05
443.9179,-3.467999E-05
444.0179,-3.467057E-05
444.1179,-3.46894E-05
444.2179,-3.467057E-05
444.3179,-3.466586E-05
444.4179,-3.465174E-05
444.5179,-3.462631E-05
444.6179,-3.463384E-05
444.7179,-3.461783E-05
444.8179,-3.460842E-05
444.9179,-3.459806E-05
445.0179,-3.458393E-05
445.118,-3.456416E-05
445.218,-3.456793E-05
445.318,-3.457828E-05
445.418,-3.454532E-05
445.518,-3.453308E-05
445.618,-3.451707E-05
445.718,-3.450577E-05
445.818,-3.45133E-05
445.918,-3.451989E-05
446.018,-3.445962E-05
446.118,-3.449917E-05
446.218,-3.448694E-05
446.318,-3.445774E-05
446.418,-3.442949E-05
446.518,-3.444738E-05
446.618,-3.446716E-05
446.718,-3.44455E-05
446.8181,-3.442949E-05
446.9181,-3.439936E-05
447.0181,-3.439276E-05
447.1181,-3.439936E-05
447.2181,-3.43711E-05
447.3181,-3.435132E-05
447.4181,-3.433155E-05
447.5181,-3.434474E-05
447.6181,-3.435886E-05
447.7181,-3.433814E-05
447.8181,-3.430801E-05
447.9181,-3.430801E-05
448.0181,-3.432307E-05
448.1181,-3.42967E-05
448.2181,-3.430706E-05
448.3181,-3.426563E-05
448.4182,-3.428163E-05
448.5182,-3.428446E-05
448.6182,-3.427881E-05
448.7182,-3.424114E-05
448.8182,-3.423173E-05
448.9182,-3.422419E-05
449.0182,-3.419123E-05
449.1182,-3.422984E-05
449.2182,-3.420065E-05
449.3182,-3.417428E-05
449.4182,-3.419217E-05
449.5182,-3.418087E-05
449.6182,-3.419594E-05
449.7182,-3.419029E-05
449.8182,-3.41432E-05
449.9182,-3.413002E-05
450.0182,-3.411212E-05
450.1183,-3.412813E-05
450.2183,-3.410177E-05
450.3183,-3.410459E-05
450.4183,-3.408576E-05
450.5183,-3.405656E-05
450.6183,-3.406598E-05
450.7183,-3.406598E-05
450.8183,-3.407163E-05
450.9183,-3.404903E-05
451.0183,-3.402925E-05
451.1183,-3.401324E-05
451.2183,-3.400665E-05
451.3183,-3.401136E-05
451.4183,-3.399158E-05
451.5183,-3.399347E-05
451.6183,-3.39671E-05
451.7184,-3.396616E-05
451.8184,-3.398122E-05
451.9184,-3.395109E-05
452.0184,-3.39445E-05
452.1184,-3.393225E-05
452.2184,-3.392378E-05
452.3184,-3.391342E-05
452.4184,-3.392943E-05
452.5184,-3.388705E-05
452.6184,-3.388988E-05
452.7184,-3.389176E-05
452.8184,-3.38701E-05
452.9184,-3.387386E-05
453.0184,-3.387198E-05
453.1184,-3.387104E-05
453.2184,-3.386162E-05
453.3185,-3.383902E-05
453.4185,-3.383337E-05
453.5185,-3.381077E-05
453.6185,-3.383431E-05
453.7185,-3.381642E-05
453.8185,-3.379947E-05
453.9185,-3.379476E-05
454.0185,-3.377687E-05
454.1185,-3.376933E-05
454.2185,-3.377122E-05
454.3185,-3.375144E-05
454.4185,-3.374579E-05
454.5185,-3.375333E-05
454.6185,-3.374956E-05
454.7185,-3.374861E-05
454.8185,-3.372601E-05
454.9185,-3.369305E-05
455.0186,-3.367704E-05
455.1186,-3.369682E-05
455.2186,-3.367704E-05
455.3186,-3.366292E-05
455.4186,-3.368364E-05
455.5186,-3.367987E-05
455.6186,-3.362525E-05
455.7186,-3.365539E-05
455.8186,-3.366857E-05
455.9186,-3.365539E-05
456.0186,-3.363184E-05
456.1186,-3.363466E-05
456.2186,-3.361018E-05
456.3186,-3.361771E-05
456.4186,-3.361206E-05
456.5186,-3.359511E-05
456.6187,-3.358005E-05
456.7187,-3.356498E-05
456.8187,-3.355274E-05
456.9187,-3.355462E-05
457.0187,-3.355179E-05
457.1187,-3.353108E-05
457.2187,-3.354143E-05
457.3187,-3.351977E-05
457.4187,-3.350942E-05
457.5187,-3.352166E-05
457.6187,-3.348682E-05
457.7187,-3.349058E-05
457.8187,-3.349811E-05
457.9187,-3.350565E-05
458.0187,-3.346045E-05
458.1187,-3.345479E-05
458.2188,-3.344067E-05
458.3188,-3.34322E-05
458.4188,-3.34482E-05
458.5188,-3.345479E-05
458.6188,-3.340677E-05
458.7188,-3.340017E-05
458.8188,-3.338887E-05
458.9188,-3.339641E-05
459.0188,-3.340489E-05
459.1188,-3.33578E-05
459.2188,-3.333708E-05
459.3188,-3.338794E-05
459.4188,-3.337381E-05
459.5188,-3.334367E-05
459.6188,-3.335309E-05
459.7188,-3.335497E-05
459.8188,-3.334367E-05
459.9189,-3.332484E-05
460.0189,-3.331259E-05
460.1189,-3.328152E-05
460.2189,-3.329188E-05
460.3189,-3.32721E-05
460.4189,-3.327869E-05
460.5189,-3.325797E-05
460.6189,-3.325515E-05
460.7189,-3.325232E-05
460.8189,-3.324479E-05
460.9189,-3.323443E-05
461.0189,-3.321466E-05
461.1189,-3.319394E-05
461.2189,-3.320524E-05
461.3189,-3.320995E-05
461.4189,-3.318546E-05
461.519,-3.315721E-05
461.619,-3.316192E-05
461.719,-3.317981E-05
461.819,-3.315438E-05
461.919,-3.314685E-05
462.019,-3.311671E-05
462.119,-3.311012E-05
462.219,-3.312425E-05
462.319,-3.312049E-05
462.419,-3.30847E-05
462.519,-3.311389E-05
462.619,-3.308658E-05
462.719,-3.306115E-05
462.819,-3.305833E-05
462.919,-3.304985E-05
463.019,-3.303761E-05
463.119,-3.304797E-05
463.2191,-3.304232E-05
463.3191,-3.30103E-05
463.4191,-3.302537E-05
463.5191,-3.300936E-05
463.6191,-3.299146E-05
463.7191,-3.299335E-05
463.8191,-3.298017E-05
463.9191,-3.294532E-05
464.0191,-3.296321E-05
464.1191,-3.298487E-05
464.2191,-3.294438E-05
464.3191,-3.296509E-05
464.4191,-3.294344E-05
464.5191,-3.292272E-05
464.6191,-3.292743E-05
464.7191,-3.293213E-05
464.8192,-3.291425E-05
464.9192,-3.291425E-05
465.0192,-3.287375E-05
465.1192,-3.287563E-05
465.2192,-3.288505E-05
465.3192,-3.287657E-05
465.4192,-3.287752E-05
465.5192,-3.286621E-05
465.6192,-3.283419E-05
465.7192,-3.28615E-05
465.8192,-3.288128E-05
465.9192,-3.28568E-05
466.0192,-3.282949E-05
466.1192,-3.283325E-05
466.2192,-3.286244E-05
466.3192,-3.281065E-05
466.4193,-3.282195E-05
466.5193,-3.279935E-05
466.6193,-3.278428E-05
466.7193,-3.27711E-05
466.8193,-3.277204E-05
466.9193,-3.275509E-05
467.0193,-3.27711E-05
467.1193,-3.276262E-05
467.2193,-3.27372E-05
467.3193,-3.273814E-05
467.4193,-3.272213E-05
467.5193,-3.270801E-05
467.6193,-3.271648E-05
467.7193,-3.270236E-05
467.8193,-3.267787E-05
467.9193,-3.267787E-05
468.0193,-3.266845E-05
468.1194,-3.266374E-05
468.2194,-3.268446E-05
468.3194,-3.265244E-05
468.4194,-3.26176E-05
468.5194,-3.262701E-05
468.6194,-3.264397E-05
468.7194,-3.263267E-05
468.8194,-3.261948E-05
468.9194,-3.259499E-05
469.0194,-3.262513E-05
469.1194,-3.264491E-05
469.2194,-3.260535E-05
469.3194,-3.258181E-05
469.4194,-3.258746E-05
469.5194,-3.259876E-05
469.6194,-3.259594E-05
469.7195,-3.256015E-05
469.8195,-3.25658E-05
469.9195,-3.251966E-05
470.0195,-3.255827E-05
470.1195,-3.25545E-05
470.2195,-3.252436E-05
470.3195,-3.251401E-05
470.4195,-3.249611E-05
470.5195,-3.249894E-05
470.6195,-3.252248E-05
470.7195,-3.251589E-05
470.8195,-3.248387E-05
470.9195,-3.248858E-05
471.0195,-3.24754E-05
471.1195,-3.243867E-05
471.2195,-3.244903E-05
471.3195,-3.246127E-05
471.4196,-3.244997E-05
471.5196,-3.244337E-05
471.6196,-3.243113E-05
471.7196,-3.24123E-05
471.8196,-3.242266E-05
471.9196,-3.240665E-05
472.0196,-3.23831E-05
472.1196,-3.236616E-05
472.2196,-3.236616E-05
472.3196,-3.236804E-05
472.4196,-3.239912E-05
472.5196,-3.235862E-05
472.6196,-3.234355E-05
472.7196,-3.233696E-05
472.8196,-3.233508E-05
472.9196,-3.233508E-05
473.0197,-3.235485E-05
473.1197,-3.230306E-05
473.2197,-3.228234E-05
473.3197,-3.230589E-05
473.4197,-3.229459E-05
473.5197,-3.226445E-05
473.6197,-3.22701E-05
473.7197,-3.227763E-05
473.8197,-3.228234E-05
473.9197,-3.227104E-05
474.0197,-3.224467E-05
474.1197,-3.222207E-05
474.2197,-3.225126E-05
474.3197,-3.223525E-05
474.4197,-3.222772E-05
474.5197,-3.222301E-05
474.6198,-3.220324E-05
474.7198,-3.218346E-05
474.8198,-3.220229E-05
474.9198,-3.220606E-05
475.0198,-3.216556E-05
475.1198,-3.218158E-05
475.2198,-3.217122E-05
475.3198,-3.214391E-05
475.4198,-3.215803E-05
475.5198,-3.214956E-05
475.6198,-3.212319E-05
475.7198,-3.213072E-05
475.8198,-3.211848E-05
475.9198,-3.210624E-05
476.0198,-3.211095E-05
476.1198,-3.209023E-05
476.2198,-3.206951E-05
476.3199,-3.207987E-05
476.4199,-3.209117E-05
476.5199,-3.205538E-05
476.6199,-3.20648E-05
476.7199,-3.207234E-05
476.8199,-3.203655E-05
476.9199,-3.204597E-05
477.0199,-3.204032E-05
477.1199,-3.200359E-05
477.2199,-3.201959E-05
477.3199,-3.200265E-05
477.4199,-3.200641E-05
477.5199,-3.199605E-05
477.6199,-3.199983E-05
477.7199,-3.198476E-05
477.8199,-3.198852E-05
477.92,-3.196121E-05
478.02,-3.195085E-05
478.12,-3.195367E-05
478.22,-3.197628E-05
478.32,-3.193578E-05
478.42,-3.193767E-05
478.52,-3.189811E-05
478.62,-3.191224E-05
478.72,-3.195179E-05
478.82,-3.191977E-05
478.92,-3.186986E-05
479.02,-3.187457E-05
479.12,-3.189435E-05
479.22,-3.187175E-05
479.32,-3.188116E-05
479.42,-3.186609E-05
479.5201,-3.182466E-05
479.6201,-3.185385E-05
479.7201,-3.183125E-05
479.8201,-3.181901E-05
479.9201,-3.182748E-05
480.0201,-3.180206E-05
480.1201,-3.177946E-05
480.2201,-3.177852E-05
480.3201,-3.178605E-05
480.4201,-3.177757E-05
480.5201,-3.178793E-05
480.6201,-3.175686E-05
480.7201,-3.173708E-05
480.8201,-3.176721E-05
480.9201,-3.173802E-05
481.0201,-3.171918E-05
481.1201,-3.171918E-05
481.2202,-3.17286E-05
481.3202,-3.172483E-05
481.4202,-3.172578E-05
481.5202,-3.171636E-05
481.6202,-3.169282E-05
481.7202,-3.171353E-05
481.8202,-3.169847E-05
481.9202,-3.169093E-05
482.0202,-3.165985E-05
482.1202,-3.167116E-05
482.2202,-3.167492E-05
482.3202,-3.166363E-05
482.4202,-3.166268E-05
482.5202,-3.164291E-05
482.6202,-3.164855E-05
482.7202,-3.164008E-05
482.8203,-3.161277E-05
482.9203,-3.160335E-05
483.0203,-3.1609E-05
483.1203,-3.160241E-05
483.2203,-3.161277E-05
483.3203,-3.157793E-05
483.4203,-3.154779E-05
483.5203,-3.157228E-05
483.6203,-3.156945E-05
483.7203,-3.153649E-05
483.8203,-3.153743E-05
483.9203,-3.156568E-05
484.0203,-3.154025E-05
484.1203,-3.154402E-05
484.2203,-3.153178E-05
484.3203,-3.150164E-05
484.4203,-3.150541E-05
484.5204,-3.151012E-05
484.6204,-3.149411E-05
484.7204,-3.146963E-05
484.8204,-3.14668E-05
484.9204,-3.144985E-05
485.0204,-3.146209E-05
485.1204,-3.146774E-05
485.2204,-3.145079E-05
485.3204,-3.143761E-05
485.4204,-3.144232E-05
485.5204,-3.142348E-05
485.6204,-3.142348E-05
485.7204,-3.141689E-05
485.8204,-3.140182E-05
485.9204,-3.13924E-05
486.0204,-3.141312E-05
486.1205,-3.136698E-05
486.2205,-3.137734E-05
486.3205,-3.140088E-05
486.4205,-3.135191E-05
486.5205,-3.136604E-05
486.6205,-3.134532E-05
486.7205,-3.133119E-05
486.8205,-3.133967E-05
486.9205,-3.134626E-05
487.0205,-3.132742E-05
487.1205,-3.130765E-05
487.2205,-3.133967E-05
487.3205,-3.132931E-05
487.4205,-3.133967E-05
487.5205,-3.130482E-05
487.6205,-3.126621E-05
487.7206,-3.128033E-05
487.8206,-3.130388E-05
487.9206,-3.126433E-05
488.0206,-3.125962E-05
488.1206,-3.128882E-05
488.2206,-3.125397E-05
488.3206,-3.124926E-05
488.4206,-3.123325E-05
488.5206,-3.123514E-05
488.6206,-3.124079E-05
488.7206,-3.123231E-05
488.8206,-3.122478E-05
488.9206,-3.121348E-05
489.0206,-3.122383E-05
489.1206,-3.118522E-05
489.2206,-3.118993E-05
489.3206,-3.118993E-05
489.4207,-3.116451E-05
489.5207,-3.116733E-05
489.6207,-3.11598E-05
489.7207,-3.113908E-05
489.8207,-3.115226E-05
489.9207,-3.115132E-05
490.0207,-3.112401E-05
490.1207,-3.11306E-05
490.2207,-3.114567E-05
490.3207,-3.111648E-05
490.4207,-3.113343E-05
490.5207,-3.110235E-05
490.6207,-3.107504E-05
490.7207,-3.108822E-05
490.8207,-3.109953E-05
490.9207,-3.109294E-05
491.0208,-3.108352E-05
491.1208,-3.106751E-05
491.2208,-3.103549E-05
491.3208,-3.105244E-05
491.4208,-3.105432E-05
491.5208,-3.102795E-05
491.6208,-3.104679E-05
491.7208,-3.104679E-05
491.8208,-3.101383E-05
491.9208,-3.104679E-05
492.0208,-3.1011E-05
492.1208,-3.09997E-05
492.2208,-3.100347E-05
492.3208,-3.100253E-05
492.4208,-3.098557E-05
492.5208,-3.099405E-05
492.6208,-3.098746E-05
492.7209,-3.095732E-05
492.8209,-3.099499E-05
492.9209,-3.094885E-05
493.0209,-3.09432E-05
493.1209,-3.096298E-05
493.2209,-3.096957E-05
493.3209,-3.09093E-05
493.4209,-3.092248E-05
493.5209,-3.092719E-05
493.6209,-3.089234E-05
493.7209,-3.09093E-05
493.8209,-3.091401E-05
493.9209,-3.089799E-05
494.0209,-3.088764E-05
494.1209,-3.088858E-05
494.2209,-3.086127E-05
494.321,-3.087445E-05
494.421,-3.087916E-05
494.521,-3.084997E-05
494.621,-3.08575E-05
494.721,-3.08575E-05
494.821,-3.083302E-05
494.921,-3.082548E-05
495.021,-3.083584E-05
495.121,-3.084055E-05
495.221,-3.082548E-05
495.321,-3.082831E-05
495.421,-3.081889E-05
495.521,-3.082077E-05
495.621,-3.080947E-05
495.721,-3.077745E-05
495.821,-3.079064E-05
495.9211,-3.080288E-05
496.0211,-3.07605E-05
496.1211,-3.075391E-05
496.2211,-3.077463E-05
496.3211,-3.075862E-05
496.4211,-3.075956E-05
496.5211,-3.074637E-05
496.6211,-3.072378E-05
496.7211,-3.073225E-05
496.8211,-3.073507E-05
496.9211,-3.071153E-05
497.0211,-3.072754E-05
497.1211,-3.070023E-05
497.2211,-3.067198E-05
497.3211,-3.067669E-05
497.4211,-3.067763E-05
497.5211,-3.068234E-05
497.6212,-3.06814E-05
497.7212,-3.06588E-05
497.8212,-3.063243E-05
497.9212,-3.064184E-05
498.0212,-3.065314E-05
498.1212,-3.064467E-05
498.2212,-3.065032E-05
498.3212,-3.061265E-05
498.4212,-3.059852E-05
498.5212,-3.062207E-05
498.6212,-3.061924E-05
498.7212,-3.059287E-05
498.8212,-3.060229E-05
498.9212,-3.058063E-05
499.0212,-3.057592E-05
499.1212,-3.056745E-05
499.2213,-3.056745E-05
499.3213,-3.056745E-05
499.4213,-3.055709E-05
499.5213,-3.056368E-05
499.6213,-3.054485E-05
499.7213,-3.053543E-05
499.8213,-3.052884E-05
499.9213,-3.053449E-05
500.0213,-3.053543E-05
500.1213,-3.048552E-05
500.2213,-3.048175E-05
500.3213,-3.051753E-05
500.4213,-3.051942E-05
500.5213,-3.048552E-05
500.6213,-3.049964E-05
500.7213,-3.048175E-05
500.8214,-3.046951E-05
500.9214,-3.045915E-05
501.0214,-3.046386E-05
501.1214,-3.045067E-05
501.2214,-3.046291E-05
501.3214,-3.042054E-05
501.4214,-3.041489E-05
501.5214,-3.044031E-05
501.6214,-3.043655E-05
501.7214,-3.042148E-05
501.8214,-3.041489E-05
501.9214,-3.041583E-05
502.0214,-3.038569E-05
502.1214,-3.038193E-05
502.2214,-3.037533E-05
502.3214,-3.036968E-05
502.4214,-3.038664E-05
502.5215,-3.034332E-05
502.6215,-3.034802E-05
502.7215,-3.034143E-05
502.8215,-3.034049E-05
502.9215,-3.034237E-05
503.0215,-3.033767E-05
503.1215,-3.029999E-05
503.2215,-3.030941E-05
503.3215,-3.031318E-05
503.4215,-3.031695E-05
503.5215,-3.028775E-05
503.6215,-3.029434E-05
503.7215,-3.028681E-05
503.8215,-3.026798E-05
503.9215,-3.029434E-05
504.0215,-3.027457E-05
504.1216,-3.025008E-05
504.2216,-3.025856E-05
504.3216,-3.024161E-05
504.4216,-3.025573E-05
504.5216,-3.025856E-05
504.6216,-3.023125E-05
504.7216,-3.022089E-05
504.8216,-3.021995E-05
504.9216,-3.021712E-05
505.0216,-3.019829E-05
505.1216,-3.021336E-05
505.2216,-3.017192E-05
505.3216,-3.017946E-05
505.4216,-3.022842E-05
505.5216,-3.01964E-05
505.6216,-3.017004E-05
505.7216,-3.016062E-05
505.8217,-3.017192E-05
505.9217,-3.015685E-05
506.0217,-3.017663E-05
506.1217,-3.014838E-05
506.2217,-3.014273E-05
506.3217,-3.015026E-05
506.4217,-3.013896E-05
506.5217,-3.012766E-05
506.6217,-3.013331E-05
506.7217,-3.012766E-05
506.8217,-3.012295E-05
506.9217,-3.010035E-05
507.0217,-3.008622E-05
507.1217,-3.006174E-05
507.2217,-3.008717E-05
507.3217,-3.009564E-05
507.4218,-3.003819E-05
507.5218,-3.00721E-05
507.6218,-3.007021E-05
507.7218,-3.005609E-05
507.8218,-3.003631E-05
507.9218,-3.005232E-05
508.0218,-3.00655E-05
508.1218,-3.004855E-05
508.2218,-3.001559E-05
508.3218,-3.00203E-05
508.4218,-3.003443E-05
508.5218,-3.00316E-05
508.6218,-2.999299E-05
508.7218,-2.998452E-05
508.8218,-2.998922E-05
508.9218,-2.999393E-05
509.0219,-2.999676E-05
509.1219,-2.998263E-05
509.2219,-2.994214E-05
509.3219,-2.995909E-05
509.4219,-2.996286E-05
509.5219,-2.993084E-05
509.6219,-2.99412E-05
509.7219,-2.99299E-05
509.8219,-2.992895E-05
509.9219,-2.993837E-05
510.0219,-2.992519E-05
510.1219,-2.990918E-05
510.2219,-2.989317E-05
510.3219,-2.988469E-05
510.4219,-2.989128E-05
510.5219,-2.988469E-05
510.6219,-2.987433E-05
510.722,-2.987057E-05
510.822,-2.985738E-05
510.922,-2.987528E-05
511.022,-2.986021E-05
511.122,-2.985079E-05
511.222,-2.986303E-05
511.322,-2.981783E-05
511.422,-2.982348E-05
511.522,-2.983666E-05
511.622,-2.981218E-05
511.722,-2.979052E-05
511.822,-2.979146E-05
511.922,-2.980841E-05
512.022,-2.98103E-05
512.122,-2.980465E-05
512.222,-2.977545E-05
512.322,-2.976038E-05
512.4219,-2.977357E-05
512.5219,-2.976792E-05
512.6219,-2.977828E-05
512.7219,-2.977357E-05
512.8218,-2.973872E-05
512.9218,-2.974437E-05
513.0218,-2.973967E-05
513.1218,-2.972742E-05
513.2217,-2.973402E-05
513.3217,-2.972836E-05
513.4217,-2.972648E-05
513.5217,-2.969164E-05
513.6216,-2.970576E-05
513.7216,-2.96954E-05
513.8216,-2.970388E-05
513.9216,-2.969352E-05
514.0215,-2.968128E-05
514.1215,-2.966621E-05
514.2215,-2.968222E-05
514.3215,-2.967469E-05
514.4214,-2.965868E-05
514.5214,-2.968034E-05
514.6214,-2.965491E-05
514.7214,-2.964832E-05
514.8214,-2.964361E-05
514.9213,-2.962948E-05
515.0213,-2.963513E-05
515.1213,-2.964926E-05
515.2213,-2.960029E-05
515.3212,-2.956921E-05
515.4212,-2.960971E-05
515.5212,-2.961536E-05
515.6212,-2.959464E-05
515.7211,-2.958616E-05
515.8211,-2.957298E-05
515.9211,-2.956921E-05
516.0211,-2.961347E-05
516.121,-2.955979E-05
516.221,-2.955038E-05
516.321,-2.957015E-05
516.421,-2.95532E-05
516.5209,-2.956827E-05
516.6209,-2.954002E-05
516.7209,-2.953908E-05
516.8209,-2.955885E-05
516.9208,-2.955885E-05
517.0208,-2.952872E-05
517.1208,-2.952778E-05
517.2208,-2.952401E-05
517.3207,-2.951365E-05
517.4207,-2.946656E-05
517.5207,-2.949387E-05
517.6207,-2.950235E-05
517.7206,-2.94854E-05
517.8206,-2.948917E-05
517.9206,-2.943831E-05
518.0206,-2.946091E-05
518.1205,-2.949011E-05
518.2205,-2.949011E-05
518.3205,-2.944773E-05
518.4205,-2.944867E-05
518.5204,-2.944396E-05
518.6204,-2.944114E-05
518.7204,-2.942889E-05
518.8204,-2.9411E-05
518.9203,-2.93771E-05
519.0203,-2.940347E-05
519.1203,-2.939217E-05
519.2203,-2.936957E-05
519.3203,-2.940064E-05
519.4202,-2.939593E-05
519.5202,-2.935732E-05
519.6202,-2.936297E-05
519.7202,-2.936862E-05
519.8201,-2.935921E-05
519.9201,-2.936957E-05
520.0201,-2.935827E-05
520.1201,-2.932907E-05
520.22,-2.934697E-05
520.32,-2.933943E-05
520.42,-2.934508E-05
520.52,-2.93319E-05
520.6199,-2.931495E-05
520.7199,-2.931212E-05
520.8199,-2.931965E-05
520.9199,-2.930553E-05
521.0198,-2.928481E-05
521.1198,-2.929046E-05
521.2198,-2.929423E-05
521.3198,-2.928669E-05
521.4197,-2.928293E-05
521.5197,-2.926503E-05
521.6197,-2.924149E-05
521.7197,-2.927163E-05
521.8196,-2.927728E-05
521.9196,-2.924055E-05
522.0196,-2.927163E-05
522.1196,-2.923866E-05
522.2195,-2.922736E-05
522.3195,-2.923019E-05
522.4195,-2.921418E-05
522.5195,-2.921795E-05
522.6194,-2.9217E-05
522.7194,-2.920288E-05
522.8194,-2.918122E-05
522.9194,-2.919064E-05
523.0193,-2.920382E-05
523.1193,-2.91897E-05
523.2193,-2.917745E-05
523.3193,-2.915485E-05
523.4193,-2.915956E-05
523.5192,-2.919535E-05
523.6192,-2.915108E-05
523.7192,-2.914638E-05
523.8192,-2.915579E-05
523.9191,-2.912566E-05
524.0191,-2.913413E-05
524.1191,-2.914261E-05
524.2191,-2.912095E-05
524.319,-2.910494E-05
524.419,-2.909175E-05
524.519,-2.910588E-05
524.619,-2.908704E-05
524.7189,-2.911436E-05
524.8189,-2.908516E-05
524.9189,-2.904938E-05
525.0189,-2.907669E-05
525.1188,-2.907669E-05
525.2188,-2.90635E-05
525.3188,-2.905974E-05
525.4188,-2.905879E-05
525.5187,-2.903337E-05
525.6187,-2.904561E-05
525.7187,-2.902866E-05
525.8187,-2.903243E-05
525.9186,-2.903525E-05
526.0186,-2.901736E-05
526.1186,-2.901265E-05
526.2186,-2.902395E-05
526.3185,-2.898157E-05
526.4185,-2.896933E-05
526.5185,-2.897781E-05
526.6185,-2.899475E-05
526.7184,-2.897498E-05
526.8184,-2.898534E-05
526.9184,-2.895803E-05
527.0184,-2.894296E-05
527.1183,-2.897686E-05
527.2183,-2.897404E-05
527.3183,-2.894108E-05
527.4183,-2.891848E-05
527.5182,-2.891565E-05
527.6182,-2.890341E-05
527.7182,-2.892884E-05
527.8182,-2.89213E-05
527.9182,-2.889587E-05
528.0181,-2.889682E-05
528.1181,-2.887893E-05
528.2181,-2.888457E-05
528.3181,-2.889964E-05
528.418,-2.88648E-05
528.518,-2.886762E-05
528.618,-2.887045E-05
528.718,-2.885067E-05
528.8179,-2.884691E-05
528.9179,-2.884691E-05
529.0179,-2.883749E-05
529.1179,-2.884973E-05
529.2178,-2.884502E-05
529.3178,-2.884973E-05
529.4178,-2.882995E-05
529.5178,-2.882053E-05
529.6177,-2.882148E-05
529.7177,-2.880924E-05
529.8177,-2.880547E-05
529.9177,-2.879134E-05
530.0176,-2.880735E-05
530.1176,-2.880641E-05
530.2176,-2.878004E-05
530.3176,-2.877816E-05
530.4175,-2.878193E-05
530.5175,-2.878664E-05
530.6175,-2.876027E-05
530.7175,-2.876215E-05
530.8174,-2.873484E-05
530.9174,-2.873766E-05
531.0174,-2.874049E-05
531.1174,-2.874332E-05
531.2173,-2.873672E-05
531.3173,-2.873578E-05
531.4173,-2.871318E-05
531.5173,-2.870941E-05
531.6172,-2.869905E-05
531.7172,-2.869811E-05
531.8172,-2.8716E-05
531.9172,-2.870847E-05
532.0172,-2.866421E-05
532.1171,-2.866138E-05
532.2171,-2.870376E-05
532.3171,-2.868587E-05
532.4171,-2.870094E-05
532.517,-2.866515E-05
532.617,-2.865573E-05
532.717,-2.865856E-05
532.817,-2.866986E-05
532.9169,-2.865385E-05
533.0169,-2.863501E-05
533.1169,-2.862183E-05
533.2169,-2.862089E-05
533.3168,-2.862089E-05
533.4168,-2.860865E-05
533.5168,-2.860111E-05
533.6168,-2.864066E-05
533.7167,-2.861712E-05
533.8167,-2.858605E-05
533.9167,-2.85917E-05
534.0167,-2.856439E-05
534.1166,-2.856627E-05
534.2166,-2.857757E-05
534.3166,-2.857098E-05
534.4166,-2.855968E-05
534.5165,-2.856627E-05
534.6165,-2.855685E-05
534.7165,-2.853331E-05
534.8165,-2.855779E-05
534.9164,-2.855308E-05
535.0164,-2.853142E-05
535.1164,-2.850317E-05
535.2164,-2.850976E-05
535.3163,-2.851071E-05
535.4163,-2.852201E-05
535.5163,-2.850694E-05
535.6163,-2.847869E-05
535.7162,-2.850694E-05
535.8162,-2.849376E-05
535.9162,-2.846833E-05
536.0162,-2.849281E-05
536.1161,-2.847963E-05
536.2161,-2.845326E-05
536.3161,-2.847116E-05
536.4161,-2.848716E-05
536.5161,-2.843914E-05
536.616,-2.844855E-05
536.716,-2.842595E-05
536.816,-2.840806E-05
536.916,-2.842501E-05
537.0159,-2.843725E-05
537.1159,-2.840994E-05
537.2159,-2.8409E-05
537.3159,-2.840053E-05
537.4158,-2.83977E-05
537.5158,-2.841748E-05
537.6158,-2.840147E-05
537.7158,-2.838075E-05
537.8157,-2.840241E-05
537.9157,-2.840147E-05
538.0157,-2.839393E-05
538.1157,-2.837227E-05
538.2156,-2.834779E-05
538.3156,-2.836851E-05
538.4156,-2.838828E-05
538.5156,-2.837792E-05
538.6155,-2.834402E-05
538.7155,-2.834308E-05
538.8155,-2.834873E-05
538.9155,-2.834025E-05
539.0154,-2.835815E-05
539.1154,-2.83459E-05
539.2154,-2.832142E-05
539.3154,-2.834025E-05
539.4153,-2.833931E-05
539.5153,-2.833554E-05
539.6153,-2.831859E-05
539.7153,-2.830447E-05
539.8152,-2.829317E-05
539.9152,-2.830729E-05
540.0152,-2.829505E-05
540.1152,-2.826491E-05
540.2151,-2.828846E-05
540.3151,-2.825267E-05
540.4151,-2.824514E-05
540.5151,-2.827622E-05
540.6151,-2.827433E-05
540.715,-2.824702E-05
540.815,-2.824137E-05
540.915,-2.823384E-05
541.015,-2.823007E-05
541.1149,-2.824137E-05
541.2149,-2.822819E-05
541.3149,-2.820276E-05
541.4149,-2.820276E-05
541.5148,-2.82216E-05
541.6148,-2.822348E-05
541.7148,-2.820935E-05
541.8148,-2.818958E-05
541.9147,-2.816415E-05
542.0147,-2.822442E-05
542.1147,-2.818204E-05
542.2147,-2.816792E-05
542.3146,-2.817639E-05
542.4146,-2.81585E-05
542.5146,-2.816509E-05
542.6146,-2.819334E-05
542.7145,-2.81585E-05
542.8145,-2.812931E-05
542.9145,-2.815662E-05
543.0145,-2.815191E-05
543.1144,-2.814061E-05
543.2144,-2.814908E-05
543.3144,-2.809634E-05
543.4144,-2.811424E-05
543.5143,-2.816603E-05
543.6143,-2.815191E-05
543.7143,-2.810388E-05
543.8143,-2.812177E-05
543.9142,-2.811895E-05
544.0142,-2.809729E-05
544.1142,-2.810388E-05
544.2142,-2.807751E-05
544.3141,-2.805208E-05
544.4141,-2.807939E-05
544.5141,-2.807374E-05
544.6141,-2.808504E-05
544.7141,-2.805208E-05
544.814,-2.804832E-05
544.914,-2.803042E-05
545.014,-2.805397E-05
545.114,-2.805962E-05
545.2139,-2.80276E-05
545.3139,-2.803984E-05
545.4139,-2.799558E-05
545.5139,-2.800405E-05
545.6138,-2.80163E-05
545.7138,-2.800029E-05
545.8138,-2.799464E-05
545.9138,-2.800217E-05
546.0137,-2.797957E-05
546.1137,-2.798428E-05
546.2137,-2.798616E-05
546.3137,-2.798428E-05
546.4136,-2.794473E-05
546.5136,-2.79419E-05
546.6136,-2.797957E-05
546.7136,-2.795602E-05
546.8135,-2.796262E-05
546.9135,-2.792495E-05
547.0135,-2.794755E-05
547.1135,-2.795414E-05
547.2134,-2.794002E-05
547.3134,-2.790141E-05
547.4134,-2.792401E-05
547.5134,-2.792401E-05
547.6133,-2.791836E-05
547.7133,-2.790611E-05
547.8133,-2.788728E-05
547.9133,-2.789293E-05
548.0132,-2.792024E-05
548.1132,-2.787786E-05
548.2132,-2.787221E-05
548.3132,-2.78967E-05
548.4131,-2.788634E-05
548.5131,-2.78788E-05
548.6131,-2.78741E-05
548.7131,-2.788257E-05
548.813,-2.785997E-05
548.913,-2.786656E-05
549.013,-2.784584E-05
549.113,-2.783925E-05
549.213,-2.785244E-05
549.3129,-2.781571E-05
549.4129,-2.780629E-05
549.5129,-2.782418E-05
549.6129,-2.781477E-05
549.7128,-2.781006E-05
549.8128,-2.781006E-05
549.9128,-2.779593E-05
550.0128,-2.778181E-05
550.1127,-2.779499E-05
550.2127,-2.778557E-05
550.3127,-2.778086E-05
550.4127,-2.778463E-05
550.5126,-2.775638E-05
550.6126,-2.776486E-05
550.7126,-2.775261E-05
550.8126,-2.777898E-05
550.9125,-2.777522E-05
551.0125,-2.777427E-05
551.1125,-2.775073E-05
551.2125,-2.774225E-05
551.3124,-2.774037E-05
551.4124,-2.77253E-05
551.5124,-2.773849E-05
551.6124,-2.774602E-05
551.7123,-2.7714E-05
551.8123,-2.773472E-05
551.9123,-2.772813E-05
552.0123,-2.769517E-05
552.1122,-2.769988E-05
552.2122,-2.77027E-05
552.3122,-2.769893E-05
552.4122,-2.769611E-05
552.5121,-2.769988E-05
552.6121,-2.766126E-05
552.7121,-2.768104E-05
552.8121,-2.768857E-05
552.912,-2.766597E-05
553.012,-2.768104E-05
553.112,-2.764808E-05
553.212,-2.764525E-05
553.312,-2.764525E-05
553.4119,-2.766409E-05
553.5119,-2.763207E-05
553.6119,-2.762831E-05
553.7119,-2.761324E-05
553.8118,-2.76236E-05
553.9118,-2.76236E-05
554.0118,-2.760947E-05
554.1118,-2.759723E-05
554.2117,-2.763396E-05
554.3117,-2.761418E-05
554.4117,-2.758404E-05
554.5117,-2.758404E-05
554.6116,-2.758781E-05
554.7116,-2.758028E-05
554.8116,-2.757557E-05
554.9116,-2.75718E-05
555.0115,-2.756709E-05
555.1115,-2.756897E-05
555.2115,-2.757557E-05
555.3115,-2.75492E-05
555.4114,-2.754637E-05
555.5114,-2.755673E-05
555.6114,-2.754261E-05
555.7114,-2.755202E-05
555.8113,-2.75605E-05
555.9113,-2.751435E-05
556.0113,-2.751624E-05
556.1113,-2.752095E-05
556.2112,-2.753036E-05
556.3112,-2.750588E-05
556.4112,-2.749175E-05
556.5112,-2.748139E-05
556.6111,-2.750117E-05
556.7111,-2.749552E-05
556.8111,-2.747009E-05
556.9111,-2.747574E-05
557.011,-2.748139E-05
557.111,-2.746915E-05
557.211,-2.745314E-05
557.311,-2.745785E-05
557.4109,-2.744467E-05
557.5109,-2.743054E-05
557.6109,-2.74522E-05
557.7109,-2.743431E-05
557.8109,-2.742301E-05
557.9108,-2.742112E-05
558.0108,-2.742301E-05
558.1108,-2.742112E-05
558.2108,-2.742489E-05
558.3107,-2.737686E-05
558.4107,-2.739946E-05
558.5107,-2.737875E-05
558.6107,-2.740605E-05
558.7106,-2.739664E-05
558.8106,-2.737404E-05
558.9106,-2.736274E-05
559.0106,-2.738063E-05
559.1105,-2.738345E-05
559.2105,-2.734578E-05
559.3105,-2.734955E-05
559.4105,-2.735426E-05
559.5104,-2.735143E-05
559.6104,-2.733543E-05
559.7104,-2.732883E-05
559.8104,-2.731659E-05
559.9103,-2.732601E-05
560.0103,-2.733072E-05
560.1103,-2.72987E-05
560.2103,-2.730906E-05
560.3102,-2.730717E-05
560.4102,-2.731094E-05
560.5102,-2.730623E-05
560.6102,-2.729022E-05
560.7101,-2.72761E-05
560.8101,-2.728834E-05
560.9101,-2.728928E-05
561.0101,-2.727327E-05
561.11,-2.724219E-05
561.21,-2.726291E-05
561.31,-2.725349E-05
561.41,-2.729211E-05
561.5099,-2.725632E-05
561.6099,-2.723278E-05
561.7099,-2.723089E-05
561.8099,-2.722524E-05
561.9099,-2.720547E-05
562.0098,-2.724596E-05
562.1098,-2.721677E-05
562.2098,-2.719417E-05
562.3098,-2.719699E-05
562.4097,-2.718569E-05
562.5097,-2.719134E-05
562.6097,-2.719134E-05
562.7097,-2.717816E-05
562.8096,-2.718663E-05
562.9096,-2.720923E-05
563.0096,-2.719323E-05
563.1096,-2.716309E-05
563.2095,-2.716874E-05
563.3095,-2.71565E-05
563.4095,-2.714237E-05
563.5095,-2.716686E-05
563.6094,-2.714896E-05
563.7094,-2.712919E-05
563.8094,-2.712259E-05
563.9094,-2.712636E-05
564.0093,-2.713201E-05
564.1093,-2.713955E-05
564.2093,-2.711412E-05
564.3093,-2.708869E-05
564.4092,-2.710188E-05
564.5092,-2.711412E-05
564.6092,-2.710094E-05
564.7092,-2.711129E-05
564.8091,-2.706986E-05
564.9091,-2.708398E-05
565.0091,-2.710659E-05
565.1091,-2.708022E-05
565.209,-2.707174E-05
565.309,-2.704726E-05
565.409,-2.707362E-05
565.509,-2.707174E-05
565.6089,-2.708963E-05
565.7089,-2.70708E-05
565.8089,-2.704632E-05
565.9089,-2.704255E-05
566.0089,-2.703407E-05
566.1088,-2.702842E-05
566.2088,-2.702183E-05
566.3088,-2.70482E-05
566.4088,-2.702748E-05
566.5087,-2.703219E-05
566.6087,-2.702936E-05
566.7087,-2.699358E-05
566.8087,-2.700582E-05
566.9086,-2.702089E-05
567.0086,-2.698981E-05
567.1086,-2.700111E-05
567.2086,-2.699263E-05
567.3085,-2.698699E-05
567.4085,-2.699358E-05
567.5085,-2.696344E-05
567.6085,-2.695779E-05
567.7084,-2.69625E-05
567.8084,-2.694178E-05
567.9084,-2.695403E-05
568.0084,-2.695685E-05
568.1083,-2.692954E-05
568.2083,-2.694555E-05
568.3083,-2.697569E-05
568.4083,-2.694178E-05
568.5082,-2.692766E-05
568.6082,-2.691353E-05
568.7082,-2.693613E-05
568.8082,-2.69173E-05
568.9081,-2.690505E-05
569.0081,-2.690976E-05
569.1081,-2.688528E-05
569.2081,-2.690035E-05
569.308,-2.691541E-05
569.408,-2.687869E-05
569.508,-2.686833E-05
569.608,-2.68834E-05
569.7079,-2.68655E-05
569.8079,-2.688434E-05
569.9079,-2.688905E-05
570.0079,-2.685985E-05
570.1078,-2.687115E-05
570.2078,-2.686833E-05
570.3078,-2.686173E-05
570.4078,-2.686173E-05
570.5078,-2.682218E-05
570.6077,-2.682218E-05
570.7077,-2.684949E-05
570.8077,-2.683631E-05
570.9077,-2.68203E-05
571.0076,-2.682218E-05
571.1076,-2.679958E-05
571.2076,-2.681465E-05
571.3076,-2.683537E-05
571.4075,-2.680241E-05
571.5075,-2.677321E-05
571.6075,-2.681277E-05
571.7075,-2.67798E-05
571.8074,-2.67798E-05
571.9074,-2.681277E-05
572.0074,-2.678451E-05
572.1074,-2.676756E-05
572.2073,-2.677321E-05
572.3073,-2.67751E-05
572.4073,-2.677133E-05
572.5073,-2.677133E-05
572.6072,-2.672801E-05
572.7072,-2.67233E-05
572.8072,-2.672518E-05
572.9072,-2.672801E-05
573.0071,-2.672707E-05
573.1071,-2.672895E-05
573.2071,-2.671294E-05
573.3071,-2.669599E-05
573.407,-2.670729E-05
573.507,-2.668657E-05
573.607,-2.670258E-05
573.707,-2.670541E-05
573.8069,-2.666962E-05
573.9069,-2.669976E-05
574.0069,-2.669505E-05
574.1069,-2.667151E-05
574.2068,-2.666021E-05
574.3068,-2.667998E-05
574.4068,-2.667339E-05
574.5068,-2.664984E-05
574.6068,-2.666115E-05
574.7067,-2.66668E-05
574.8067,-2.663666E-05
574.9067,-2.664419E-05
575.0067,-2.666021E-05
575.1066,-2.663478E-05
575.2066,-2.665926E-05
575.3066,-2.665361E-05
575.4066,-2.661971E-05
575.5065,-2.660935E-05
575.6065,-2.664043E-05
575.7065,-2.662159E-05
575.8065,-2.661218E-05
575.9064,-2.65811E-05
576.0064,-2.660182E-05
576.1064,-2.663195E-05
576.2064,-2.661971E-05
576.3063,-2.659993E-05
576.4063,-2.658487E-05
576.5063,-2.657639E-05
576.6063,-2.658581E-05
576.7062,-2.661312E-05
576.8062,-2.653401E-05
576.9062,-2.653307E-05
577.0062,-2.658863E-05
577.1061,-2.658204E-05
577.2061,-2.654343E-05
577.3061,-2.653496E-05
577.4061,-2.655473E-05
577.506,-2.654061E-05
577.606,-2.656132E-05
577.706,-2.652177E-05
577.806,-2.652554E-05
577.9059,-2.651047E-05
578.0059,-2.648881E-05
578.1059,-2.650576E-05
578.2059,-2.649823E-05
578.3058,-2.651329E-05
578.4058,-2.649352E-05
578.5058,-2.649823E-05
578.6058,-2.648692E-05
578.7057,-2.647845E-05
578.8057,-2.649069E-05
578.9057,-2.648316E-05
579.0057,-2.649352E-05
579.1057,-2.64615E-05
579.2056,-2.644549E-05
579.3056,-2.64502E-05
579.4056,-2.646527E-05
579.5056,-2.645396E-05
579.6055,-2.643984E-05
579.7055,-2.64389E-05
579.8055,-2.642665E-05
579.9055,-2.643607E-05
580.0054,-2.645773E-05
580.1054,-2.642289E-05
580.2054,-2.641912E-05
580.3054,-2.640499E-05
580.4053,-2.641065E-05
580.5053,-2.641159E-05
580.6053,-2.64097E-05
580.7053,-2.640123E-05
580.8052,-2.637863E-05
580.9052,-2.639746E-05
581.0052,-2.637015E-05
581.1052,-2.637863E-05
581.2051,-2.639463E-05
581.3051,-2.637486E-05
581.4051,-2.638334E-05
581.5051,-2.635885E-05
581.605,-2.63532E-05
581.705,-2.636262E-05
581.805,-2.636638E-05
581.905,-2.636356E-05
582.0049,-2.635414E-05
582.1049,-2.635979E-05
582.2049,-2.632966E-05
582.3049,-2.634472E-05
582.4048,-2.633625E-05
582.5048,-2.633154E-05
582.6048,-2.634378E-05
582.7048,-2.632401E-05
582.8047,-2.631553E-05
582.9047,-2.631742E-05
583.0047,-2.630988E-05
583.1047,-2.631176E-05
583.2047,-2.63127E-05
583.3046,-2.62967E-05
583.4046,-2.628822E-05
583.5046,-2.629387E-05
583.6046,-2.628634E-05
583.7045,-2.62741E-05
583.8045,-2.629764E-05
583.9045,-2.628634E-05
584.0045,-2.626562E-05
584.1044,-2.627504E-05
584.2044,-2.625055E-05
584.3044,-2.624678E-05
584.4044,-2.628069E-05
584.5043,-2.627127E-05
584.6043,-2.624773E-05
584.7043,-2.624584E-05
584.8043,-2.623454E-05
584.9042,-2.622889E-05
585.0042,-2.622889E-05
585.1042,-2.623454E-05
585.2042,-2.623925E-05
585.3041,-2.620723E-05
585.4041,-2.621194E-05
585.5041,-2.619781E-05
585.6041,-2.620347E-05
585.704,-2.619876E-05
585.804,-2.6211E-05
585.904,-2.62223E-05
586.004,-2.618557E-05
586.1039,-2.618463E-05
586.2039,-2.619405E-05
586.3039,-2.618275E-05
586.4039,-2.618275E-05
586.5038,-2.618463E-05
586.6038,-2.617239E-05
586.7038,-2.616674E-05
586.8038,-2.61592E-05
586.9037,-2.614319E-05
587.0037,-2.617992E-05
587.1037,-2.616956E-05
587.2037,-2.613943E-05
587.3036,-2.615167E-05
587.4036,-2.613943E-05
587.5036,-2.612907E-05
587.6036,-2.615826E-05
587.7036,-2.615073E-05
587.8035,-2.612436E-05
587.9035,-2.611212E-05
588.0035,-2.610647E-05
588.1035,-2.613095E-05
588.2034,-2.612718E-05
588.3034,-2.613189E-05
588.4034,-2.607727E-05
588.5034,-2.609611E-05
588.6033,-2.613284E-05
588.7033,-2.608952E-05
588.8033,-2.609234E-05
588.9033,-2.609705E-05
589.0032,-2.607727E-05
589.1032,-2.607821E-05
589.2032,-2.607539E-05
589.3032,-2.606974E-05
589.4031,-2.607633E-05
589.5031,-2.608669E-05
589.6031,-2.606786E-05
589.7031,-2.607727E-05
589.803,-2.60801E-05
589.903,-2.602925E-05
590.003,-2.604714E-05
590.103,-2.606221E-05
590.2029,-2.604054E-05
590.3029,-2.601794E-05
590.4029,-2.603584E-05
590.5029,-2.603772E-05
590.6028,-2.603772E-05
590.7028,-2.602454E-05
590.8028,-2.600288E-05
590.9028,-2.600099E-05
591.0027,-2.602265E-05
591.1027,-2.600947E-05
591.2027,-2.600099E-05
591.3027,-2.60057E-05
591.4026,-2.59831E-05
591.5026,-2.599628E-05
591.6026,-2.598027E-05
591.7026,-2.596803E-05
591.8026,-2.596803E-05
591.9025,-2.597839E-05
592.0025,-2.597651E-05
592.1025,-2.597839E-05
592.2025,-2.596333E-05
592.3024,-2.59492E-05
592.4024,-2.596991E-05
592.5024,-2.595767E-05
592.6024,-2.594825E-05
592.7023,-2.596615E-05
592.8023,-2.593696E-05
592.9023,-2.592095E-05
593.0023,-2.592377E-05
593.1022,-2.594355E-05
593.2022,-2.593507E-05
593.3022,-2.592283E-05
593.4022,-2.592283E-05
593.5021,-2.592189E-05
593.6021,-2.590964E-05
593.7021,-2.590494E-05
593.8021,-2.591059E-05
593.902,-2.592848E-05
594.002,-2.590305E-05
594.102,-2.588422E-05
594.202,-2.588045E-05
594.3019,-2.588045E-05
594.4019,-2.587763E-05
594.5019,-2.590305E-05
594.6019,-2.588704E-05
594.7018,-2.585596E-05
594.8018,-2.58522E-05
594.9018,-2.586444E-05
595.0018,-2.586162E-05
595.1017,-2.584561E-05
595.2017,-2.585691E-05
595.3017,-2.582206E-05
595.4017,-2.585408E-05
595.5016,-2.583807E-05
595.6016,-2.58409E-05
595.7016,-2.582677E-05
595.8016,-2.580982E-05
595.9016,-2.5823E-05
596.0015,-2.58409E-05
596.1015,-2.582112E-05
596.2015,-2.582112E-05
596.3015,-2.579946E-05
596.4014,-2.578157E-05
596.5014,-2.579381E-05
596.6014,-2.583148E-05
596.7014,-2.579004E-05
596.8013,-2.578534E-05
596.9013,-2.57891E-05
597.0013,-2.577592E-05
597.1013,-2.578534E-05
597.2012,-2.576179E-05
597.3012,-2.577592E-05
597.4012,-2.577309E-05
597.5012,-2.578251E-05
597.6011,-2.573825E-05
597.7011,-2.57439E-05
597.8011,-2.580134E-05
597.9011,-2.573919E-05
598.001,-2.573542E-05
598.101,-2.579852E-05
598.201,-2.577686E-05
598.301,-2.57326E-05
598.4009,-2.578251E-05
598.5009,-2.579193E-05
598.6009,-2.574484E-05
598.7009,-2.572695E-05
598.8008,-2.572412E-05
598.9008,-2.571188E-05
599.0008,-2.572601E-05
599.1008,-2.574107E-05
599.2007,-2.573354E-05
599.3007,-2.571565E-05
599.4007,-2.568928E-05
599.5007,-2.56987E-05
599.6006,-2.571094E-05
599.7006,-2.569775E-05
599.8006,-2.570905E-05
599.9006,-2.570717E-05
600.0005,-2.569305E-05
