EXPID. 0905
[电化学]: i-t : @ 0(V) X 600(sec)
起始电位 (V),0
静置时间 (秒),0
运行时间 (秒),600
记录间隔,0.1
电解液 信息:
HNO3,0.4
0.1,-0.01005814
0.2,-0.01005814
0.3,-0.01005814
0.4,-0.01005814
0.5,-0.01005814
0.6,-0.01005814
0.7,-0.01005814
0.8000001,-0.01005814
0.9000001,-0.01005814
1,-0.009580836
1.1,0.0008400613
1.2,0.003061252
1.3,0.002642869
1.4,-0.000457507
1.5,-0.002427537
1.6,-0.003315643
1.7,-0.003779533
1.8,-0.003959014
1.9,-0.003973539
2,-0.003910852
2.1,-0.003828758
2.2,-0.003741993
2.3,-0.003644148
2.4,-0.003557258
2.5,-0.003480266
2.6,-0.00339962
2.7,-0.00333026
2.799999,-0.003267445
2.899999,-0.00319558
2.999999,-0.003131847
3.099999,-0.003071194
3.199999,-0.003010698
3.299999,-0.002953065
3.399999,-0.002895994
3.499999,-0.002839876
3.599999,-0.002786832
3.699999,-0.002729997
3.799999,-0.0026755
3.899998,-0.002623621
3.999998,-0.002568579
4.099998,-0.002516179
4.199998,-0.002470348
4.299998,-0.002422977
4.399998,-0.002375206
4.499998,-0.002332228
4.599998,-0.002290534
4.699998,-0.0022498
4.799998,-0.002211363
4.899998,-0.002174112
4.999998,-0.002136396
5.099998,-0.002101783
5.199997,-0.002069514
5.299997,-0.002037097
5.399997,-0.002007785
5.499997,-0.001979837
5.599997,-0.001951789
5.699997,-0.001926174
5.799997,-0.001902498
5.899997,-0.001878431
5.999997,-0.001856338
6.099997,-0.001836658
6.199996,-0.001815931
6.299996,-0.001796376
6.399996,-0.001777617
6.499996,-0.001759522
6.599996,-0.001741819
6.699996,-0.001724814
6.799996,-0.001708342
6.899996,-0.001692808
6.999996,-0.001677236
7.099996,-0.001661922
7.199996,-0.001647593
7.299995,-0.001633693
7.399995,-0.00162033
7.499995,-0.001607917
7.599995,-0.001594667
7.699995,-0.001582698
7.799995,-0.001570893
7.899995,-0.001559483
7.999995,-0.00154845
8.099995,-0.001537477
8.199995,-0.001526699
8.299995,-0.001517169
8.399996,-0.00150697
8.499996,-0.001496957
8.599997,-0.001487248
8.699997,-0.001477369
8.799997,-0.001467873
8.899998,-0.001459073
8.999998,-0.001449601
9.099998,-0.001440655
9.199999,-0.001432443
9.299999,-0.001423656
9.4,-0.001415234
9.5,-0.001407348
9.6,-0.001399285
9.700001,-0.001391265
9.800001,-0.00138418
9.900002,-0.001376722
10,-0.001369343
10.1,-0.00136221
10.2,-0.001355464
10.3,-0.001348502
10.4,-0.001341301
10.5,-0.001334945
10.6,-0.001328594
10.7,-0.001321799
10.8,-0.001315538
10.90001,-0.001309613
11.00001,-0.001303248
11.10001,-0.001296976
11.20001,-0.001291522
11.30001,-0.001285812
11.40001,-0.001280178
11.50001,-0.001274493
11.60001,-0.001268811
11.70001,-0.001263361
11.80001,-0.001257898
11.90001,-0.001252269
12.00001,-0.001247132
12.10001,-0.001242007
12.20001,-0.001236535
12.30001,-0.001231504
12.40001,-0.001226436
12.50001,-0.001221487
12.60001,-0.001216704
12.70001,-0.001211854
12.80001,-0.001206925
12.90001,-0.001202609
13.00001,-0.001197859
13.10001,-0.001193295
13.20001,-0.001188673
13.30001,-0.001184493
13.40001,-0.001180286
13.50002,-0.001175779
13.60002,-0.001171739
13.70002,-0.001167802
13.80002,-0.001163344
13.90002,-0.001159537
14.00002,-0.001155698
14.10002,-0.001151543
14.20002,-0.00114776
14.30002,-0.001144218
14.40002,-0.001139932
14.50002,-0.001135915
14.60002,-0.001132197
14.70002,-0.001128247
14.80002,-0.001124854
14.90002,-0.001121229
15.00002,-0.001117306
15.10002,-0.001113605
15.20002,-0.001109863
15.30002,-0.001106194
15.40002,-0.001102634
15.50002,-0.001099058
15.60002,-0.001095415
15.70002,-0.001091989
15.80002,-0.001088505
15.90002,-0.001084871
16.00002,-0.001081623
16.10003,-0.00107834
16.20003,-0.001074997
16.30003,-0.001071765
16.40003,-0.00106872
16.50003,-0.001065548
16.60003,-0.001062059
16.70003,-0.001059127
16.80003,-0.001055983
16.90003,-0.00105271
17.00003,-0.001049781
17.10003,-0.001047054
17.20003,-0.00104361
17.30003,-0.001040751
17.40003,-0.001038071
17.50003,-0.001034964
17.60003,-0.001031999
17.70003,-0.001028954
17.80003,-0.001026
17.90003,-0.001023143
18.00003,-0.001020247
18.10003,-0.001017356
18.20003,-0.001014809
18.30003,-0.001011925
18.40003,-0.001008942
18.50003,-0.001006369
18.60003,-0.001003706
18.70004,-0.001000811
18.80004,-0.0009982841
18.90004,-0.000995553
19.00004,-0.0009930207
19.10004,-0.0009903113
19.20004,-0.0009877139
19.30004,-0.0009850386
19.40004,-0.0009824958
19.50004,-0.0009799221
19.60004,-0.0009772985
19.70004,-0.000974768
19.80004,-0.0009722536
19.90004,-0.0009697514
20.00004,-0.0009672248
20.10004,-0.000964764
20.20004,-0.000962388
20.30004,-0.0009599311
20.40004,-0.000957458
20.50004,-0.0009549248
20.60004,-0.0009524933
20.70004,-0.0009502341
20.80004,-0.0009480144
20.90004,-0.00094545
21.00004,-0.000943124
21.10004,-0.0009409071
21.20004,-0.0009384945
21.30005,-0.0009361655
21.40005,-0.0009339525
21.50005,-0.0009316518
21.60005,-0.0009293361
21.70005,-0.0009272295
21.80005,-0.000924942
21.90005,-0.0009228165
22.00005,-0.000920545
22.10005,-0.0009185015
22.20005,-0.0009164297
22.30005,-0.0009141459
22.40005,-0.0009119989
22.50005,-0.0009100796
22.60005,-0.0009078618
22.70005,-0.0009057797
22.80005,-0.0009038877
22.90005,-0.0009019467
23.00005,-0.0008998853
23.10005,-0.0008978455
23.20005,-0.0008959009
23.30005,-0.0008937829
23.40005,-0.0008917817
23.50005,-0.0008897089
23.60005,-0.0008877172
23.70005,-0.0008857377
23.80005,-0.0008839606
23.90005,-0.000882112
24.00006,-0.0008799093
24.10006,-0.0008778017
24.20006,-0.0008761113
24.30006,-0.0008740725
24.40006,-0.0008719997
24.50006,-0.0008700315
24.60006,-0.0008680962
24.70006,-0.0008661487
24.80006,-0.0008642907
24.90006,-0.0008622613
25.00006,-0.0008603712
25.10006,-0.0008586243
25.20006,-0.0008565742
25.30006,-0.0008547274
25.40006,-0.0008528553
25.50006,-0.0008509774
25.60006,-0.0008491297
25.70006,-0.0008473282
25.80006,-0.000845441
25.90006,-0.0008436066
26.00006,-0.000841838
26.10006,-0.0008400467
26.20006,-0.0008382584
26.30006,-0.0008364107
26.40006,-0.0008346629
26.50006,-0.0008329725
26.60007,-0.0008311408
26.70007,-0.0008294062
26.80007,-0.0008276084
26.90007,-0.0008257956
27.00007,-0.000824157
27.10007,-0.0008224534
27.20007,-0.0008206678
27.30007,-0.0008190113
27.40007,-0.000817303
27.50007,-0.0008155976
27.60007,-0.0008139627
27.70007,-0.0008122638
27.80007,-0.0008105668
27.90007,-0.0008089611
28.00007,-0.0008072435
28.10007,-0.0008055285
28.20007,-0.0008039879
28.30007,-0.0008022419
28.40007,-0.0008006532
28.50007,-0.0007991238
28.60007,-0.0007973958
28.70007,-0.0007957194
28.80007,-0.0007941647
28.90007,-0.000792462
29.00007,-0.0007908658
29.10007,-0.0007893034
29.20008,-0.0007875735
29.30008,-0.000786095
29.40008,-0.0007846108
29.50008,-0.0007829646
29.60008,-0.0007814362
29.70008,-0.0007799747
29.80008,-0.0007783502
29.90008,-0.0007769337
30.00008,-0.0007755767
30.10008,-0.0007738883
30.20008,-0.0007724597
30.30008,-0.0007710329
30.40008,-0.0007694395
30.50008,-0.0007678856
30.60008,-0.0007663874
30.70008,-0.0007647883
30.80008,-0.0007633306
30.90008,-0.0007618633
31.00008,-0.0007603235
31.10008,-0.0007588733
31.20008,-0.0007574305
31.30008,-0.0007559549
31.40008,-0.0007546421
31.50008,-0.000753188
31.60008,-0.0007516888
31.70008,-0.0007502697
31.80009,-0.0007488645
31.90009,-0.0007473437
32.00008,-0.0007459151
32.10008,-0.0007444667
32.20008,-0.0007430955
32.30008,-0.0007417112
32.40008,-0.0007402703
32.50008,-0.0007388662
32.60007,-0.0007374819
32.70007,-0.0007360806
32.80007,-0.0007347028
32.90007,-0.0007332441
33.00007,-0.0007318682
33.10007,-0.0007305988
33.20007,-0.0007292493
33.30006,-0.0007278282
33.40006,-0.0007265013
33.50006,-0.0007250689
33.60006,-0.0007238183
33.70006,-0.0007224829
33.80006,-0.000721075
33.90005,-0.0007197556
34.00005,-0.0007184994
34.10005,-0.0007170604
34.20005,-0.0007156705
34.30005,-0.0007143859
34.40005,-0.0007131381
34.50005,-0.0007118027
34.60004,-0.0007105634
34.70004,-0.0007091141
34.80004,-0.000707822
34.90004,-0.0007065215
35.00004,-0.0007052143
35.10004,-0.0007039807
35.20004,-0.0007026999
35.30003,-0.0007013778
35.40003,-0.0007001431
35.50003,-0.0006989048
35.60003,-0.0006975722
35.70003,-0.0006963819
35.80003,-0.0006951153
35.90002,-0.0006938157
36.00002,-0.0006925717
36.10002,-0.0006913728
36.20002,-0.0006900327
36.30002,-0.0006888622
36.40002,-0.0006876257
36.50002,-0.0006864005
36.60001,-0.0006852073
36.70001,-0.0006839614
36.80001,-0.0006827851
36.90001,-0.0006816617
37.00001,-0.0006806701
37.10001,-0.0006795164
37.2,-0.0006783053
37.3,-0.0006771301
37.4,-0.0006760226
37.5,-0.0006747851
37.6,-0.0006734686
37.7,-0.0006723197
37.8,-0.0006711067
37.89999,-0.0006699409
37.99999,-0.0006687195
38.09999,-0.0006675159
38.19999,-0.0006663058
38.29999,-0.0006651399
38.39999,-0.0006638507
38.49998,-0.0006627574
38.59998,-0.0006616085
38.69998,-0.0006602919
38.79998,-0.000659272
38.89998,-0.0006581213
38.99998,-0.0006568556
39.09998,-0.0006557311
39.19997,-0.0006546632
39.29997,-0.0006534757
39.39997,-0.0006523183
39.49997,-0.0006512164
39.59997,-0.000650012
39.69997,-0.0006489478
39.79996,-0.000647862
39.89996,-0.0006466575
39.99996,-0.0006455105
40.09996,-0.0006444689
40.19996,-0.0006432956
40.29996,-0.0006422116
40.39996,-0.0006411427
40.49995,-0.0006399656
40.59995,-0.0006388185
40.69995,-0.000637728
40.79995,-0.0006366856
40.89995,-0.0006355771
40.99995,-0.0006345092
41.09995,-0.0006334035
41.19994,-0.000632234
41.29994,-0.0006311416
41.39994,-0.0006300529
41.49994,-0.0006290048
41.59994,-0.0006278935
41.69994,-0.0006268736
41.79993,-0.000625769
41.89993,-0.0006247397
41.99993,-0.0006236567
42.09993,-0.0006226236
42.19993,-0.0006214851
42.29993,-0.0006204944
42.39993,-0.0006193953
42.49992,-0.0006183886
42.59992,-0.0006173358
42.69992,-0.0006162905
42.79992,-0.000615263
42.89992,-0.0006141395
42.99992,-0.0006131573
43.09991,-0.0006121478
43.19991,-0.0006110705
43.29991,-0.0006100684
43.39991,-0.0006090307
43.49991,-0.0006079948
43.59991,-0.0006068958
43.69991,-0.0006059211
43.7999,-0.0006049181
43.8999,-0.0006038577
43.9999,-0.0006028604
44.0999,-0.0006018961
44.1999,-0.0006008621
44.2999,-0.0005998149
44.39989,-0.0005988308
44.49989,-0.0005978401
44.59989,-0.0005968937
44.69989,-0.0005958822
44.79989,-0.0005948689
44.89989,-0.0005939092
44.99989,-0.0005929534
45.09988,-0.000591893
45.19988,-0.0005909795
45.29988,-0.0005899634
45.39988,-0.0005889219
45.49988,-0.0005880028
45.59988,-0.0005870186
45.69987,-0.0005860345
45.79987,-0.0005851182
45.89987,-0.0005841398
45.99987,-0.0005830982
46.09987,-0.0005821253
46.19987,-0.0005812157
46.29987,-0.0005802334
46.39986,-0.0005793048
46.49986,-0.0005783651
46.59986,-0.0005774092
46.69986,-0.0005764636
46.79986,-0.0005755229
46.89986,-0.0005745426
46.99986,-0.0005735772
47.09985,-0.0005726516
47.19985,-0.0005717258
47.29985,-0.0005707511
47.39985,-0.0005697887
47.49985,-0.0005688696
47.59985,-0.0005679551
47.69984,-0.0005670256
47.79984,-0.0005660887
47.89984,-0.0005651657
47.99984,-0.000564369
48.09984,-0.00056348
48.19984,-0.0005624385
48.29984,-0.0005616691
48.39983,-0.0005606869
48.49983,-0.0005596764
48.59983,-0.0005588156
48.69983,-0.0005580246
48.79983,-0.0005571516
48.89983,-0.0005563154
48.99982,-0.0005556279
49.09982,-0.0005547662
49.19982,-0.0005537209
49.29982,-0.0005528526
49.39982,-0.0005519561
49.49982,-0.0005509333
49.59982,-0.0005499247
49.69981,-0.0005490753
49.79981,-0.0005482136
49.89981,-0.0005472521
49.99981,-0.0005462642
50.09981,-0.0005454845
50.19981,-0.0005446285
50.2998,-0.0005436698
50.3998,-0.0005426989
50.4998,-0.0005418729
50.5998,-0.000540999
50.6998,-0.0005401345
50.7998,-0.0005392983
50.8998,-0.0005384055
50.99979,-0.0005374808
51.09979,-0.0005366331
51.19979,-0.0005357658
51.29979,-0.0005348881
51.39979,-0.0005340208
51.49979,-0.0005331609
51.59978,-0.0005322616
51.69978,-0.0005314376
51.79978,-0.0005306014
51.89978,-0.0005297152
51.99978,-0.0005288658
52.09978,-0.0005280323
52.19978,-0.0005272083
52.29977,-0.0005263588
52.39977,-0.0005254991
52.49977,-0.0005246091
52.59977,-0.0005237926
52.69977,-0.0005229554
52.79977,-0.0005222161
52.89977,-0.0005212942
52.99976,-0.0005203987
53.09976,-0.0005195803
53.19976,-0.0005189343
53.29976,-0.0005181206
53.39976,-0.0005171722
53.49976,-0.0005163068
53.59975,-0.0005155695
53.69975,-0.0005147276
53.79975,-0.0005138508
53.89975,-0.000513008
53.99975,-0.0005122169
54.09975,-0.0005113542
54.19975,-0.00051055
54.29974,-0.0005097288
54.39974,-0.000508951
54.49974,-0.0005081157
54.59974,-0.0005073086
54.69974,-0.0005065034
54.79974,-0.0005056983
54.89973,-0.0005048629
54.99973,-0.0005040728
55.09973,-0.0005032695
55.19973,-0.0005024813
55.29973,-0.0005017589
55.39973,-0.0005009359
55.49973,-0.0005001043
55.59972,-0.0004993538
55.69972,-0.0004985844
55.79972,-0.0004977867
55.89972,-0.0004970249
55.99972,-0.0004962593
56.09972,-0.0004954399
56.19971,-0.000494712
56.29971,-0.0004939313
56.39971,-0.0004931318
56.49971,-0.0004923652
56.59971,-0.0004916476
56.69971,-0.0004908707
56.79971,-0.0004900608
56.8997,-0.0004892688
56.9997,-0.0004884918
57.0997,-0.0004876989
57.1997,-0.000486954
57.2997,-0.0004861761
57.3997,-0.0004854293
57.49969,-0.0004848492
57.59969,-0.0004840384
57.69969,-0.0004831692
57.79969,-0.0004823979
57.89969,-0.0004816521
57.99969,-0.000480813
58.09969,-0.0004800568
58.19968,-0.0004792827
58.29968,-0.0004784634
58.39968,-0.0004777382
58.49968,-0.0004770526
58.59968,-0.0004762739
58.69968,-0.0004755148
58.79967,-0.0004747802
58.89967,-0.0004740005
58.99967,-0.000473346
59.09967,-0.0004725436
59.19967,-0.0004717743
59.29967,-0.000471067
59.39967,-0.0004703937
59.49966,-0.0004696017
59.59966,-0.000468885
59.69966,-0.0004681693
59.79966,-0.0004674009
59.89966,-0.0004667473
59.99966,-0.0004660843
60.09966,-0.0004652951
60.19965,-0.0004645399
60.29965,-0.0004638307
60.39965,-0.0004630162
60.49965,-0.0004623381
60.59965,-0.0004616911
60.69965,-0.0004609321
60.79964,-0.0004602145
60.89964,-0.0004594658
60.99964,-0.0004587661
61.09964,-0.0004580551
61.19964,-0.0004573733
61.29964,-0.0004565982
61.39964,-0.0004558957
61.49963,-0.0004551734
61.59963,-0.0004544718
61.69963,-0.0004537665
61.79963,-0.0004530715
61.89963,-0.0004523849
61.99963,-0.0004516702
62.09962,-0.0004509884
62.19962,-0.0004502548
62.29962,-0.0004495833
62.39962,-0.0004488836
62.49962,-0.0004481434
62.59962,-0.0004474606
62.69962,-0.0004468608
62.79961,-0.0004461478
62.89961,-0.0004453502
62.99961,-0.0004446863
63.09961,-0.0004440195
63.19961,-0.0004433556
63.29961,-0.0004426917
63.3996,-0.0004420381
63.4996,-0.0004414316
63.5996,-0.0004407988
63.6996,-0.0004401
63.7996,-0.0004393928
63.8996,-0.0004387628
63.9996,-0.0004380649
64.09959,-0.0004373511
64.19959,-0.0004367475
64.29959,-0.0004361071
64.39959,-0.0004353565
64.49959,-0.0004347246
64.59959,-0.0004340259
64.69958,-0.0004333658
64.79958,-0.0004326999
64.89958,-0.0004319917
64.99958,-0.0004313636
65.09958,-0.0004307242
65.19958,-0.0004301319
65.29958,-0.0004295027
65.39957,-0.0004288124
65.49957,-0.0004281542
65.59957,-0.0004274799
65.69957,-0.0004268527
65.79957,-0.0004261841
65.89957,-0.0004254957
65.99957,-0.0004248609
66.09956,-0.0004242338
66.19956,-0.0004235764
66.29956,-0.0004230001
66.39956,-0.0004223465
66.49956,-0.0004216553
66.59956,-0.0004210149
66.69955,-0.0004204499
66.79955,-0.0004197483
66.89955,-0.0004190589
66.99955,-0.0004184176
67.09955,-0.0004178253
67.19955,-0.0004172197
67.29955,-0.0004166123
67.39954,-0.0004159286
67.49954,-0.0004152647
67.59954,-0.0004146611
67.69954,-0.0004140545
67.79954,-0.0004134161
67.89954,-0.0004128379
67.99953,-0.0004122502
68.09953,-0.0004115091
68.19953,-0.0004108904
68.29953,-0.000410298
68.39953,-0.0004096595
68.49953,-0.0004090559
68.59953,-0.0004085106
68.69952,-0.000407874
68.79952,-0.0004072119
68.89952,-0.0004066535
68.99952,-0.0004060715
69.09952,-0.0004053276
69.19952,-0.0004047418
69.29951,-0.0004041965
69.39951,-0.0004035053
69.49951,-0.0004028442
69.59951,-0.0004021897
69.69951,-0.000401603
69.79951,-0.0004010399
69.89951,-0.0004003882
69.9995,-0.0003997516
70.0995,-0.0003992082
70.1995,-0.000398597
70.2995,-0.0003979312
70.3995,-0.0003974152
70.4995,-0.000396819
70.59949,-0.0003962399
70.69949,-0.000395639
70.79949,-0.0003949949
70.89949,-0.0003944336
70.99949,-0.0003939223
71.09949,-0.0003933186
71.19949,-0.0003926481
71.29948,-0.0003920689
71.39948,-0.0003914879
71.49948,-0.0003909002
71.59948,-0.0003904463
71.69948,-0.0003899698
71.79948,-0.0003892626
71.89948,-0.00038861
71.99947,-0.0003881447
72.09947,-0.0003875787
72.19947,-0.0003869158
72.29947,-0.0003863865
72.39947,-0.0003857528
72.49947,-0.0003851519
72.59946,-0.0003845605
72.69946,-0.0003840406
72.79946,-0.0003834624
72.89946,-0.0003828748
72.99946,-0.0003822975
73.09946,-0.0003817617
73.19946,-0.0003811975
73.29945,-0.0003805892
73.39945,-0.0003800421
73.49945,-0.00037951
73.59945,-0.000378928
73.69945,-0.0003783263
73.79945,-0.0003777735
73.89944,-0.0003772018
73.99944,-0.0003766349
74.09944,-0.0003760548
74.19944,-0.0003754973
74.29944,-0.0003749134
74.39944,-0.0003743974
74.49944,-0.0003738634
74.59943,-0.0003732691
74.69943,-0.0003727465
74.79943,-0.0003722521
74.89943,-0.0003716955
74.99943,-0.0003711182
75.09943,-0.0003706012
75.19942,-0.0003700654
75.29942,-0.0003694777
75.39942,-0.0003689146
75.49942,-0.0003683797
75.59942,-0.0003678259
75.69942,-0.0003672543
75.79942,-0.0003667015
75.89941,-0.0003662024
75.99941,-0.0003656656
76.09941,-0.0003651185
76.19941,-0.0003645421
76.29941,-0.0003641165
76.39941,-0.0003635241
76.4994,-0.000362944
76.5994,-0.0003624374
76.6994,-0.0003618864
76.7994,-0.0003613252
76.8994,-0.00036081
76.9994,-0.0003602921
77.0994,-0.0003597591
77.19939,-0.0003592279
77.29939,-0.0003586987
77.39939,-0.00035816
77.49939,-0.0003576684
77.59939,-0.0003571194
77.69939,-0.000356593
77.79939,-0.0003560741
77.89938,-0.0003555495
77.99938,-0.0003550316
78.09938,-0.000354572
78.19938,-0.0003539853
78.29938,-0.0003534655
78.39938,-0.0003529927
78.49937,-0.0003524663
78.59937,-0.0003519069
78.69937,-0.0003514162
78.79937,-0.0003508597
78.89937,-0.0003504275
78.99937,-0.000349982
79.09937,-0.0003495206
79.19936,-0.0003489056
79.29936,-0.0003483726
79.39936,-0.0003478951
79.49936,-0.0003474007
79.59936,-0.0003469657
79.69936,-0.0003465305
79.79935,-0.0003459552
79.89935,-0.0003454372
79.99935,-0.0003450586
80.09935,-0.0003445492
80.19935,-0.0003440039
80.29935,-0.0003435038
80.39935,-0.0003429643
80.49934,-0.0003424388
80.59934,-0.0003419509
80.69934,-0.0003414669
80.79934,-0.0003409922
80.89934,-0.0003406636
80.99934,-0.0003402304
81.09933,-0.0003395956
81.19933,-0.0003390881
81.29933,-0.0003387085
81.39933,-0.0003380945
81.49933,-0.0003376199
81.59933,-0.0003371057
81.69933,-0.0003366782
81.79932,-0.0003361574
81.89932,-0.0003356376
81.99932,-0.0003352326
82.09932,-0.0003348277
82.19932,-0.0003343097
82.29932,-0.000333755
82.39931,-0.0003332955
82.49931,-0.0003328868
82.59931,-0.0003323556
82.69931,-0.0003318245
82.79931,-0.0003314063
82.89931,-0.0003308978
82.99931,-0.0003304166
83.0993,-0.000329941
83.1993,-0.0003295502
83.2993,-0.0003291038
83.3993,-0.0003285774
83.4993,-0.0003280604
83.5993,-0.0003275971
83.6993,-0.0003271234
83.79929,-0.0003266148
83.89929,-0.0003261383
83.99929,-0.0003256656
84.09929,-0.0003252154
84.19929,-0.000324769
84.29929,-0.0003242803
84.39928,-0.0003237491
84.49928,-0.0003232999
84.59928,-0.000322863
84.69928,-0.0003223968
84.79928,-0.0003219137
84.89928,-0.0003214532
84.99928,-0.0003209946
85.09927,-0.0003204719
85.19927,-0.0003200821
85.29927,-0.0003196027
85.39927,-0.0003191262
85.49927,-0.0003186779
85.59927,-0.0003182777
85.69926,-0.000317804
85.79926,-0.0003173369
85.89926,-0.0003168829
85.99926,-0.0003164177
86.09926,-0.0003159658
86.19926,-0.0003155561
86.29926,-0.0003150692
86.39925,-0.0003146463
86.49925,-0.0003141925
86.59925,-0.0003136971
86.69925,-0.0003132564
86.79925,-0.0003128119
86.89925,-0.0003123646
86.99924,-0.0003119558
87.09924,-0.0003115
87.19924,-0.0003110678
87.29924,-0.0003106544
87.39924,-0.0003101788
87.49924,-0.0003097211
87.59924,-0.0003092879
87.69923,-0.000308882
87.79923,-0.0003084573
87.89923,-0.0003080505
87.99923,-0.0003076107
88.09923,-0.0003071511
88.19923,-0.0003067264
88.29922,-0.0003063356
88.39922,-0.0003059071
88.49922,-0.0003054466
88.59922,-0.0003050247
88.69922,-0.0003046066
88.79922,-0.0003041734
88.89922,-0.0003038117
88.99921,-0.0003033607
89.09921,-0.0003029105
89.19921,-0.000302499
89.29921,-0.0003021298
89.39921,-0.0003016684
89.49921,-0.0003012757
89.59921,-0.0003008604
89.6992,-0.0003004507
89.7992,-0.0003000128
89.8992,-0.0002995796
89.9992,-0.0002991605
90.0992,-0.0002987226
90.1992,-0.0002983083
90.29919,-0.0002979551
90.39919,-0.0002975483
90.49919,-0.0002971998
90.59919,-0.0002967092
90.69919,-0.0002962431
90.79919,-0.0002958975
90.89919,-0.0002955057
90.99918,-0.0002950245
91.09918,-0.0002946148
91.19918,-0.0002941788
91.29918,-0.0002937748
91.39918,-0.0002933839
91.49918,-0.0002929979
91.59917,-0.000292591
91.69917,-0.0002921814
91.79917,-0.0002917661
91.89917,-0.0002913677
91.99917,-0.0002909769
92.09917,-0.0002905597
92.19917,-0.0002901463
92.29916,-0.0002897696
92.39916,-0.0002894061
92.49916,-0.0002890021
92.59916,-0.0002885821
92.69916,-0.0002881545
92.79916,-0.0002877901
92.89915,-0.0002874218
92.99915,-0.000287031
93.09915,-0.0002866195
93.19915,-0.000286271
93.29915,-0.0002858925
93.39915,-0.0002854649
93.49915,-0.0002850713
93.59914,-0.0002846852
93.69914,-0.0002843565
93.79914,-0.0002839996
93.89914,-0.0002836088
93.99914,-0.0002832085
94.09914,-0.0002828535
94.19913,-0.0002824542
94.29913,-0.0002820493
94.39913,-0.0002816811
94.49913,-0.0002813185
94.59913,-0.000280905
94.69913,-0.0002805397
94.79913,-0.0002801489
94.89912,-0.0002797703
94.99912,-0.0002794199
95.09912,-0.000279096
95.19912,-0.0002786647
95.29912,-0.0002782804
95.39912,-0.000277868
95.49911,-0.000277464
95.59911,-0.0002771721
95.69911,-0.000276785
95.79911,-0.0002763913
95.89911,-0.0002760354
95.99911,-0.0002756596
96.09911,-0.0002752632
96.1991,-0.0002749138
96.2991,-0.000274539
96.3991,-0.0002741792
96.4991,-0.0002738336
96.5991,-0.0002734532
96.6991,-0.0002730708
96.7991,-0.0002727176
96.89909,-0.0002723381
96.99909,-0.0002720528
97.09909,-0.0002716836
97.19909,-0.0002713324
97.29909,-0.0002709293
97.39909,-0.0002706167
97.49908,-0.0002702221
97.59908,-0.0002698623
97.69908,-0.0002695271
97.79908,-0.0002691965
97.89908,-0.0002688161
97.99908,-0.0002684658
98.09908,-0.0002681361
98.19907,-0.0002677218
98.29907,-0.0002673696
98.39907,-0.0002670192
98.49907,-0.0002666106
98.59907,-0.0002662885
98.69907,-0.0002659702
98.79906,-0.0002656528
98.89906,-0.0002653674
98.99906,-0.0002650482
99.09906,-0.0002646866
99.19906,-0.0002643494
99.29906,-0.0002639492
99.39906,-0.000263613
99.49905,-0.0002632627
99.59905,-0.0002629387
99.69905,-0.0002625328
99.79905,-0.0002621797
99.89905,-0.0002618557
99.99905,-0.0002614697
100.099,-0.0002611475
100.199,-0.0002610063
100.299,-0.0002607596
100.399,-0.0002603367
100.499,-0.0002599431
100.599,-0.0002596869
100.699,-0.0002592161
100.799,-0.0002588262
100.899,-0.0002584815
100.999,-0.0002581387
101.099,-0.0002578044
101.199,-0.0002574908
101.299,-0.0002571659
101.399,-0.000256825
101.499,-0.0002565396
101.599,-0.00025626
101.699,-0.0002559087
101.799,-0.0002555584
101.899,-0.0002552627
101.999,-0.0002549604
102.099,-0.0002545413
102.199,-0.0002541787
102.299,-0.0002538764
102.399,-0.0002535299
102.499,-0.0002532426
102.599,-0.0002529357
102.699,-0.0002525966
102.799,-0.0002522661
102.899,-0.0002519431
102.999,-0.0002516446
103.099,-0.0002512792
103.199,-0.0002509486
103.299,-0.0002506039
103.399,-0.0002503468
103.499,-0.0002500653
103.599,-0.0002498195
103.699,-0.0002494513
103.799,-0.0002490764
103.899,-0.0002487817
103.999,-0.0002484436
104.099,-0.0002480302
104.199,-0.0002477147
104.299,-0.0002474133
104.399,-0.0002471035
104.499,-0.0002467692
104.599,-0.0002464801
104.699,-0.00024611
104.799,-0.0002457954
104.899,-0.0002454997
104.999,-0.0002451814
105.099,-0.0002448829
105.199,-0.000244542
105.299,-0.0002442708
105.399,-0.0002439704
105.499,-0.000243604
105.599,-0.0002432895
105.699,-0.0002429938
105.799,-0.0002426896
105.899,-0.0002423836
105.999,-0.0002420888
106.099,-0.0002418044
106.199,-0.0002415068
106.299,-0.0002412309
106.3989,-0.0002408627
106.4989,-0.0002405397
106.5989,-0.0002402797
106.6989,-0.0002400142
106.7989,-0.0002396422
106.8989,-0.0002393342
106.9989,-0.0002390461
107.0989,-0.0002387598
107.1989,-0.0002384584
107.2989,-0.0002381476
107.3989,-0.0002378331
107.4989,-0.0002375449
107.5989,-0.0002372728
107.6989,-0.0002369677
107.7989,-0.0002366738
107.8989,-0.0002363838
107.9989,-0.0002361182
108.0989,-0.0002358225
108.1989,-0.0002355306
108.2989,-0.0002352358
108.3989,-0.0002349834
108.4989,-0.0002346642
108.5989,-0.0002343638
108.6989,-0.0002340794
108.7989,-0.0002337347
108.8989,-0.0002334691
108.9989,-0.0002331866
109.0989,-0.0002328947
109.1989,-0.0002325952
109.2989,-0.0002322929
109.3989,-0.0002320076
109.4989,-0.0002317194
109.5989,-0.0002314764
109.6989,-0.0002312071
109.7989,-0.0002310112
109.8989,-0.0002307287
109.9989,-0.0002303774
110.0989,-0.0002300441
110.1989,-0.0002297935
110.2989,-0.0002294884
110.3989,-0.0002291682
110.4989,-0.0002288961
110.5989,-0.0002286635
110.6989,-0.0002284064
110.7989,-0.0002281333
110.8989,-0.0002278639
110.9989,-0.0002275899
111.0989,-0.0002273639
111.1989,-0.0002271077
111.2989,-0.0002268073
111.3989,-0.0002265135
111.4989,-0.0002262602
111.5989,-0.0002259748
111.6989,-0.0002258091
111.7989,-0.0002255002
111.8989,-0.000225147
111.9989,-0.0002248739
112.0989,-0.0002246394
112.1989,-0.0002243371
112.2989,-0.0002240772
112.3989,-0.0002237665
112.4989,-0.0002235263
112.5989,-0.0002232768
112.6989,-0.0002230328
112.7989,-0.0002227541
112.8988,-0.0002224593
112.9988,-0.0002221975
113.0988,-0.0002219395
113.1988,-0.0002217069
113.2988,-0.0002214357
113.3988,-0.0002211673
113.4988,-0.0002208904
113.5988,-0.0002206409
113.6988,-0.0002203621
113.7988,-0.000220106
113.8988,-0.0002198734
113.9988,-0.000219572
114.0988,-0.000219281
114.1988,-0.0002190295
114.2988,-0.0002187697
114.3988,-0.0002184946
114.4988,-0.0002182573
114.5988,-0.0002180097
114.6988,-0.0002177987
114.7988,-0.0002175416
114.8988,-0.000217245
114.9988,-0.0002169747
115.0988,-0.0002167619
115.1988,-0.0002164822
115.2988,-0.0002162072
115.3988,-0.0002159595
115.4988,-0.0002157175
115.5988,-0.0002154406
115.6988,-0.000215224
115.7988,-0.0002149877
115.8988,-0.000214739
115.9988,-0.0002144932
116.0988,-0.0002142361
116.1988,-0.0002139951
116.2988,-0.0002137898
116.3988,-0.000213527
116.4988,-0.000213253
116.5988,-0.0002130373
116.6988,-0.0002128508
116.7988,-0.0002125109
116.8988,-0.0002122293
116.9988,-0.0002119873
117.0988,-0.0002117424
117.1988,-0.0002115258
117.2988,-0.0002113074
117.3988,-0.0002110418
117.4988,-0.0002107734
117.5988,-0.0002105154
117.6988,-0.0002103345
117.7988,-0.0002101095
117.8988,-0.0002099277
117.9988,-0.0002096283
118.0988,-0.0002093674
118.1988,-0.0002092252
118.2988,-0.0002089615
118.3988,-0.0002087129
118.4988,-0.0002085001
118.5988,-0.0002081846
118.6988,-0.0002079397
118.7988,-0.0002077486
118.8988,-0.0002074933
118.9988,-0.0002072231
119.0988,-0.0002069933
119.1988,-0.0002067381
119.2988,-0.0002065328
119.3988,-0.0002062926
119.4987,-0.0002060657
119.5987,-0.0002058048
119.6987,-0.0002056315
119.7987,-0.0002053886
119.8987,-0.0002051626
119.9987,-0.0002049497
120.0987,-0.0002047256
120.1987,-0.0002044704
120.2987,-0.0002042283
120.3987,-0.0002039986
120.4987,-0.0002037245
120.5987,-0.0002035155
120.6987,-0.0002032951
120.7987,-0.000203054
120.8987,-0.000202828
120.9987,-0.0002025841
121.0987,-0.0002023854
121.1987,-0.0002021613
121.2987,-0.0002019098
121.3987,-0.0002016857
121.4987,-0.0002014813
121.5987,-0.0002012478
121.6987,-0.0002010331
121.7987,-0.0002008014
121.8987,-0.0002005782
121.9987,-0.0002003239
122.0987,-0.0002001121
122.1987,-0.0001998945
122.2987,-0.0001996412
122.3987,-0.0001994208
122.4987,-0.000199175
122.5987,-0.0001990131
122.6987,-0.0001987917
122.7987,-0.000198577
122.8987,-0.0001983538
122.9987,-0.0001981561
123.0987,-0.0001979216
123.1987,-0.0001976843
123.2987,-0.0001974582
123.3987,-0.000197301
123.4987,-0.0001970317
123.5987,-0.0001967943
123.6987,-0.00019659
123.7987,-0.0001963819
123.8987,-0.0001961832
123.9987,-0.0001960108
124.0987,-0.0001957405
124.1987,-0.0001955079
124.2987,-0.0001953563
124.3987,-0.0001951284
124.4987,-0.0001948911
124.5987,-0.0001947433
124.6987,-0.0001945342
124.7987,-0.0001942649
124.8987,-0.0001940614
124.9987,-0.0001938495
125.0987,-0.0001935858
125.1987,-0.0001933598
125.2987,-0.0001931715
125.3987,-0.0001929417
125.4987,-0.0001927402
125.5987,-0.000192565
125.6987,-0.0001923315
125.7987,-0.0001921347
125.8987,-0.0001919265
125.9986,-0.0001917297
126.0986,-0.0001915433
126.1986,-0.0001913191
126.2986,-0.0001910696
126.3986,-0.0001909029
126.4986,-0.0001907023
126.5986,-0.0001904762
126.6986,-0.000190302
126.7986,-0.0001900713
126.8986,-0.0001898651
126.9986,-0.0001896777
127.0986,-0.0001894366
127.1986,-0.0001892369
127.2986,-0.000189091
127.3986,-0.0001889808
127.4986,-0.0001886823
127.5986,-0.00018846
127.6986,-0.0001883348
127.7986,-0.0001880532
127.8986,-0.0001878582
127.9986,-0.0001876699
128.0986,-0.0001874392
128.1986,-0.0001872358
128.2986,-0.0001870493
128.3986,-0.0001868789
128.4986,-0.0001867122
128.5986,-0.000186505
128.6987,-0.0001863336
128.7987,-0.0001861283
128.8987,-0.0001859362
128.9987,-0.0001856866
129.0987,-0.0001855227
129.1987,-0.0001853212
129.2987,-0.0001851253
129.3987,-0.0001849257
129.4987,-0.0001847138
129.5987,-0.0001845236
129.6987,-0.0001843399
129.7987,-0.0001841375
129.8987,-0.0001839397
129.9987,-0.0001837683
130.0987,-0.0001835979
130.1987,-0.0001833869
130.2988,-0.0001831967
130.3988,-0.0001829989
130.4988,-0.0001828125
130.5988,-0.0001826213
130.6988,-0.0001824216
130.7988,-0.0001822314
130.8988,-0.0001820412
130.9988,-0.0001818782
131.0988,-0.0001816664
131.1988,-0.0001814667
131.2988,-0.0001812944
131.3988,-0.0001810759
131.4988,-0.0001809007
131.5988,-0.0001807444
131.6988,-0.0001805344
131.7988,-0.0001803338
131.8988,-0.0001801728
131.9989,-0.0001799826
132.0989,-0.0001797998
132.1989,-0.0001796501
132.2989,-0.0001794552
132.3989,-0.0001792414
132.4989,-0.0001790945
132.5989,-0.000178893
132.6989,-0.000178698
132.7989,-0.0001785351
132.8989,-0.0001783599
132.9989,-0.0001781518
133.0989,-0.0001780049
133.1989,-0.0001778213
133.2989,-0.000177615
133.3989,-0.0001774182
133.4989,-0.0001772374
133.599,-0.0001770557
133.699,-0.0001769021
133.799,-0.0001767345
133.899,-0.0001765424
133.999,-0.0001763738
134.099,-0.0001762307
134.199,-0.0001760263
134.299,-0.0001758606
134.399,-0.0001756591
134.499,-0.0001754566
134.599,-0.0001752955
134.699,-0.0001751571
134.799,-0.000174917
134.899,-0.000174755
134.999,-0.0001746194
135.099,-0.0001744414
135.1991,-0.0001742455
135.2991,-0.0001740751
135.3991,-0.0001739103
135.4991,-0.0001737521
135.5991,-0.000173576
135.6991,-0.0001733735
135.7991,-0.0001732011
135.8991,-0.0001730486
135.9991,-0.0001728602
136.0991,-0.0001726653
136.1991,-0.0001725118
136.2991,-0.000172331
136.3991,-0.0001721831
136.4991,-0.000172023
136.5991,-0.000171814
136.6991,-0.0001716539
136.7991,-0.0001715446
136.8992,-0.0001713591
136.9992,-0.0001711435
137.0992,-0.0001710248
137.1992,-0.0001708958
137.2992,-0.0001706848
137.3992,-0.0001705125
137.4992,-0.0001703562
137.5992,-0.0001701678
137.6992,-0.0001699983
137.7992,-0.0001698156
137.8992,-0.0001696301
137.9992,-0.0001694568
138.0992,-0.0001692892
138.1992,-0.0001691253
138.2992,-0.0001689634
138.3992,-0.0001688362
138.4993,-0.0001686394
138.5993,-0.000168484
138.6993,-0.0001683484
138.7993,-0.0001681958
138.8993,-0.0001680197
138.9993,-0.000167871
139.0993,-0.000167693
139.1993,-0.0001675178
139.2993,-0.000167385
139.3993,-0.0001672023
139.4993,-0.0001670667
139.5993,-0.0001669518
139.6993,-0.0001667493
139.7993,-0.0001665563
139.8993,-0.000166464
139.9993,-0.0001662493
140.0993,-0.0001661099
140.1994,-0.0001659592
140.2994,-0.0001657652
140.3994,-0.0001655533
140.4994,-0.0001654356
140.5994,-0.0001652614
140.6994,-0.0001650702
140.7994,-0.0001649318
140.8994,-0.0001647849
140.9994,-0.0001646634
141.0994,-0.0001645155
141.1994,-0.0001643555
141.2994,-0.000164185
141.3994,-0.0001640889
141.4994,-0.0001639336
141.5994,-0.0001637707
141.6994,-0.0001635738
141.7995,-0.000163441
141.8995,-0.0001632951
141.9995,-0.0001631868
142.0995,-0.0001629805
142.1995,-0.0001627865
142.2995,-0.0001626697
142.3995,-0.0001625652
142.4995,-0.0001623317
142.5995,-0.0001621867
142.6995,-0.0001620605
142.7995,-0.0001619117
142.8995,-0.0001617572
142.9995,-0.0001615849
143.0995,-0.0001614286
143.1995,-0.0001613014
143.2995,-0.0001611743
143.3996,-0.0001610481
143.4996,-0.0001608654
143.5996,-0.0001607467
143.6996,-0.000160581
143.7996,-0.0001604058
143.8996,-0.0001602429
143.9996,-0.0001601243
144.0996,-0.0001599387
144.1996,-0.0001598154
144.2996,-0.0001596289
144.3996,-0.0001595046
144.4996,-0.0001593916
144.5996,-0.0001592287
144.6996,-0.0001590573
144.7996,-0.0001589085
144.8996,-0.0001587333
144.9996,-0.0001586034
145.0997,-0.0001584885
145.1997,-0.0001583246
145.2997,-0.0001581664
145.3997,-0.0001580336
145.4997,-0.0001579065
145.5997,-0.0001577483
145.6997,-0.0001576409
145.7997,-0.0001574545
145.8997,-0.0001573169
145.9997,-0.0001571738
146.0997,-0.0001570326
146.1997,-0.0001569167
146.2997,-0.0001567849
146.3997,-0.0001566351
146.4997,-0.0001564694
146.5997,-0.0001563055
146.6998,-0.0001561718
146.7998,-0.0001560174
146.8998,-0.0001558657
146.9998,-0.000155699
147.0998,-0.0001555521
147.1998,-0.0001554241
147.2998,-0.0001552781
147.3998,-0.0001551378
147.4998,-0.0001550144
147.5998,-0.0001548713
147.6998,-0.0001547234
147.7998,-0.0001545954
147.8998,-0.0001544786
147.9998,-0.0001543204
148.0998,-0.0001541716
148.1998,-0.0001540426
148.2999,-0.0001539456
148.3999,-0.000153841
148.4999,-0.0001536913
148.5999,-0.0001535218
148.6999,-0.0001533589
148.7999,-0.0001532638
148.8999,-0.0001531328
148.9999,-0.000152952
149.0999,-0.0001528042
149.1999,-0.000152694
149.2999,-0.0001525763
149.3999,-0.000152451
149.4999,-0.0001522966
149.5999,-0.0001521695
149.6999,-0.0001520649
149.7999,-0.0001519463
149.8999,-0.000151772
150,-0.0001516496
150.1,-0.0001515385
150.2,-0.000151368
150.3,-0.0001512296
150.4,-0.0001510949
150.5,-0.000150949
150.6,-0.0001508529
150.7,-0.0001507003
150.8,-0.0001505487
150.9,-0.0001504084
151,-0.0001503029
151.1,-0.0001501758
151.2,-0.0001500609
151.3,-0.0001499102
151.4,-0.0001497652
151.5,-0.0001496833
151.6001,-0.000149559
151.7001,-0.0001494196
151.8001,-0.0001493009
151.9001,-0.0001491399
152.0001,-0.0001490288
152.1001,-0.0001489431
152.2001,-0.0001488159
152.3001,-0.0001486549
152.4001,-0.0001485221
152.5001,-0.0001484054
152.6001,-0.0001482886
152.7001,-0.0001481435
152.8001,-0.0001480145
152.9001,-0.0001478997
153.0001,-0.0001477819
153.1001,-0.0001476312
153.2001,-0.0001475154
153.3002,-0.0001473911
153.4002,-0.0001472649
153.5002,-0.0001471293
153.6002,-0.0001470248
153.7002,-0.0001468958
153.8002,-0.000146779
153.9002,-0.0001466584
154.0002,-0.0001465162
154.1002,-0.0001463957
154.2002,-0.0001462996
154.3002,-0.0001461377
154.4002,-0.0001460294
154.5002,-0.0001459022
154.6002,-0.0001458052
154.7002,-0.0001456442
154.8002,-0.0001455312
154.9003,-0.0001454125
155.0003,-0.0001452713
155.1003,-0.0001451667
155.2003,-0.0001450613
155.3003,-0.0001448908
155.4003,-0.0001447853
155.5003,-0.0001446742
155.6003,-0.0001445678
155.7003,-0.0001444482
155.8003,-0.0001443342
155.9003,-0.000144192
156.0003,-0.0001440659
156.1003,-0.0001439924
156.2003,-0.000143838
156.3003,-0.00014374
156.4003,-0.0001436148
156.5004,-0.0001434763
156.6004,-0.0001433511
156.7004,-0.0001432456
156.8004,-0.0001431015
156.9004,-0.0001429593
157.0004,-0.0001428623
157.1004,-0.0001427663
157.2004,-0.0001426448
157.3004,-0.0001425233
157.4004,-0.0001424009
157.5004,-0.0001423011
157.6004,-0.0001421871
157.7004,-0.0001420901
157.8004,-0.0001419649
157.9004,-0.0001418443
158.0004,-0.000141703
158.1004,-0.0001415759
158.2005,-0.0001415298
158.3005,-0.0001414243
158.4005,-0.0001412915
158.5005,-0.0001411879
158.6005,-0.0001411003
158.7005,-0.0001409911
158.8005,-0.0001408706
158.9005,-0.0001407133
159.0005,-0.0001406003
159.1005,-0.0001405014
159.2005,-0.0001403856
159.3005,-0.0001402415
159.4005,-0.0001401558
159.5005,-0.0001400286
159.6005,-0.0001399015
159.7005,-0.0001398186
159.8006,-0.0001397094
159.9006,-0.0001395813
160.0006,-0.0001394598
160.1006,-0.0001393563
160.2006,-0.0001392244
160.3006,-0.0001391152
160.4006,-0.0001390257
160.5006,-0.0001389165
160.6006,-0.0001388044
160.7006,-0.0001387272
160.8006,-0.0001385963
160.9006,-0.0001384917
161.0006,-0.0001384023
161.1006,-0.0001382836
161.2006,-0.0001381621
161.3006,-0.000138067
161.4007,-0.0001379211
161.5007,-0.0001378259
161.6007,-0.0001377365
161.7007,-0.0001376141
161.8007,-0.0001374879
161.9007,-0.0001373984
162.0007,-0.0001372939
162.1007,-0.0001371752
162.2007,-0.0001370631
162.3007,-0.0001369445
162.4007,-0.0001368456
162.5007,-0.0001367486
162.6007,-0.0001366318
162.7007,-0.0001364774
162.8007,-0.0001364152
162.9007,-0.0001362975
163.0007,-0.0001361619
163.1008,-0.0001361176
163.2008,-0.000135983
163.3008,-0.000135854
163.4008,-0.0001357927
163.5008,-0.0001356901
163.6008,-0.0001355714
163.7008,-0.0001354415
163.8008,-0.0001353369
163.9008,-0.000135223
164.0008,-0.0001351006
164.1008,-0.0001350121
164.2008,-0.0001349226
164.3008,-0.0001348237
164.4008,-0.0001347314
164.5008,-0.0001345807
164.6008,-0.0001345638
164.7009,-0.0001344837
164.8009,-0.0001343368
164.9009,-0.0001341975
165.0009,-0.0001340863
165.1009,-0.0001339705
165.2009,-0.0001338707
165.3009,-0.000133785
165.4009,-0.000133672
165.5009,-0.0001335608
165.6009,-0.0001334987
165.7009,-0.0001333923
165.8009,-0.0001332566
165.9009,-0.0001331785
166.0009,-0.0001330617
166.1009,-0.0001329591
166.2009,-0.0001328479
166.3009,-0.0001327623
166.401,-0.000132669
166.501,-0.0001325381
166.601,-0.0001324665
166.701,-0.0001323648
166.801,-0.0001322556
166.901,-0.0001321803
167.001,-0.000132071
167.101,-0.0001319439
167.201,-0.0001318554
167.301,-0.0001317301
167.401,-0.0001316228
167.501,-0.0001315427
167.601,-0.0001313845
167.701,-0.0001313449
167.801,-0.0001312658
167.901,-0.0001311604
168.0011,-0.0001310389
168.1011,-0.0001309344
168.2011,-0.0001308392
168.3011,-0.0001307215
168.4011,-0.0001306556
168.5011,-0.0001305492
168.6011,-0.0001304446
168.7011,-0.0001303382
168.8011,-0.0001302431
168.9011,-0.0001301537
169.0011,-0.0001300529
169.1011,-0.0001299352
169.2011,-0.0001298325
169.3011,-0.0001297562
169.4011,-0.0001296884
169.5011,-0.0001295848
169.6012,-0.0001294926
169.7012,-0.0001293588
169.8012,-0.0001292976
169.9012,-0.0001292392
170.0012,-0.000129146
170.1012,-0.0001290095
170.2012,-0.0001288936
170.3012,-0.0001287994
170.4012,-0.000128758
170.5012,-0.0001286337
170.6012,-0.0001285
170.7012,-0.000128402
170.8012,-0.0001283079
170.9012,-0.0001282146
171.0012,-0.0001281591
171.1012,-0.0001280913
171.2012,-0.0001280131
171.3013,-0.0001279124
171.4013,-0.0001277993
171.5013,-0.0001277334
171.6013,-0.00012766
171.7013,-0.0001275469
171.8013,-0.0001274697
171.9013,-0.000127385
172.0013,-0.0001273049
172.1013,-0.0001272541
172.2013,-0.0001271495
172.3013,-0.0001270563
172.4013,-0.0001270346
172.5013,-0.0001269555
172.6013,-0.0001268227
172.7013,-0.000126738
172.8013,-0.0001266815
172.9014,-0.0001265261
173.0014,-0.0001264413
173.1014,-0.0001263604
173.2014,-0.0001262266
173.3014,-0.0001261155
173.4014,-0.0001260392
173.5014,-0.000125979
173.6014,-0.000125881
173.7014,-0.0001257746
173.8014,-0.0001256842
173.9014,-0.0001256324
174.0014,-0.0001255345
174.1014,-0.0001254234
174.2014,-0.0001253301
174.3014,-0.0001252388
174.4014,-0.0001251512
174.5014,-0.0001250589
174.6015,-0.0001249619
174.7015,-0.0001248705
174.8015,-0.0001247924
174.9015,-0.0001247227
175.0015,-0.000124604
175.1015,-0.0001245127
175.2015,-0.0001244317
175.3015,-0.000124346
175.4015,-0.000124249
175.5015,-0.0001241661
175.6015,-0.0001240851
175.7015,-0.0001240324
175.8015,-0.0001239477
175.9015,-0.0001238422
176.0015,-0.0001237489
176.1015,-0.0001236548
176.2016,-0.0001235568
176.3016,-0.0001234655
176.4016,-0.0001233864
176.5016,-0.0001232734
176.6016,-0.0001232131
176.7016,-0.0001231396
176.8016,-0.0001230436
176.9016,-0.0001229381
177.0016,-0.0001228835
177.1016,-0.0001228091
177.2016,-0.0001227102
177.3016,-0.0001226104
177.4016,-0.0001225463
177.5016,-0.0001224833
177.6016,-0.000122391
177.7016,-0.0001222544
177.8017,-0.0001221857
177.9017,-0.0001221245
178.0017,-0.0001220114
178.1017,-0.0001218937
178.2017,-0.0001218382
178.3017,-0.0001217544
178.4017,-0.0001216517
178.5017,-0.000121582
178.6017,-0.0001215123
178.7017,-0.0001213748
178.8017,-0.0001213325
178.9017,-0.0001212298
179.0017,-0.0001211234
179.1017,-0.0001210452
179.2017,-0.0001209737
179.3017,-0.0001209049
179.4017,-0.0001208013
179.5018,-0.0001207429
179.6018,-0.0001206714
179.7018,-0.0001206064
179.8018,-0.0001205471
179.9018,-0.0001204397
180.0018,-0.0001203314
180.1018,-0.0001202645
180.2018,-0.0001202127
180.3018,-0.0001201289
180.4018,-0.0001200479
180.5018,-0.0001199509
180.6018,-0.0001198841
180.7018,-0.0001198097
180.8018,-0.0001197117
180.9018,-0.0001196298
181.0018,-0.0001195667
181.1019,-0.000119449
181.2019,-0.0001193605
181.3019,-0.0001192908
181.4019,-0.0001192343
181.5019,-0.0001191486
181.6019,-0.0001190582
181.7019,-0.0001189508
181.8019,-0.0001188727
181.9019,-0.0001188011
182.0019,-0.0001187069
182.1019,-0.0001186476
182.2019,-0.0001185383
182.3019,-0.0001184574
182.4019,-0.0001184018
182.5019,-0.0001183368
182.6019,-0.0001182389
182.702,-0.0001181419
182.802,-0.0001180976
182.902,-0.0001180176
183.002,-0.0001178989
183.102,-0.0001178678
183.202,-0.0001177642
183.302,-0.0001176785
183.402,-0.0001176079
183.502,-0.0001175571
183.602,-0.0001174808
183.702,-0.0001173941
183.802,-0.000117316
183.902,-0.0001172651
184.002,-0.0001171926
184.102,-0.0001170937
184.202,-0.0001170146
184.302,-0.0001169543
184.4021,-0.0001168574
184.5021,-0.0001167943
184.6021,-0.0001166954
184.7021,-0.0001166323
184.8021,-0.0001165353
184.9021,-0.0001164543
185.0021,-0.0001163498
185.1021,-0.0001162885
185.2021,-0.0001162123
185.3021,-0.0001161388
185.4021,-0.0001160315
185.5021,-0.0001159599
185.6021,-0.0001159062
185.7021,-0.0001158026
185.8021,-0.000115764
185.9021,-0.0001157094
186.0022,-0.0001156331
186.1022,-0.0001155333
186.2022,-0.0001155107
186.3022,-0.0001154382
186.4022,-0.0001153101
186.5022,-0.0001152536
186.6022,-0.0001152103
186.7022,-0.0001151114
186.8022,-0.0001150426
186.9022,-0.0001149315
187.0022,-0.0001148552
187.1022,-0.000114842
187.2022,-0.0001147724
187.3022,-0.0001146754
187.4022,-0.0001146047
187.5022,-0.0001145426
187.6022,-0.0001144541
187.7023,-0.0001143919
187.8023,-0.000114309
187.9023,-0.0001142092
188.0023,-0.0001141423
188.1023,-0.0001140727
188.2023,-0.000114003
188.3023,-0.0001139436
188.4023,-0.0001138495
188.5023,-0.0001137817
188.6023,-0.0001137186
188.7023,-0.0001136498
188.8023,-0.0001135679
188.9023,-0.0001135048
189.0023,-0.0001134002
189.1023,-0.0001133051
189.2023,-0.0001132712
189.3024,-0.0001132053
189.4024,-0.0001131422
189.5024,-0.000113065
189.6024,-0.0001129897
189.7024,-0.000112919
189.8024,-0.0001128239
189.9024,-0.0001127806
190.0024,-0.0001126779
190.1024,-0.0001126167
190.2024,-0.0001125395
190.3024,-0.0001124811
190.4024,-0.0001124067
190.5024,-0.0001123662
190.6024,-0.0001122909
190.7024,-0.0001122429
190.8024,-0.0001121704
190.9025,-0.0001120828
191.0025,-0.0001119895
191.1025,-0.0001119613
191.2025,-0.0001118841
191.3025,-0.000111804
191.4025,-0.0001117099
191.5025,-0.0001116458
191.6025,-0.000111529
191.7025,-0.0001115196
191.8025,-0.0001114339
191.9025,-0.0001113294
192.0025,-0.0001112955
192.1025,-0.0001112183
192.2025,-0.000111109
192.3025,-0.0001110384
192.4025,-0.0001109772
192.5025,-0.0001109103
192.6026,-0.0001108387
192.7026,-0.0001107822
192.8026,-0.0001107257
192.9026,-0.0001106805
193.0026,-0.0001105666
193.1026,-0.0001104828
193.2026,-0.0001104564
193.3026,-0.0001103726
193.4026,-0.000110286
193.5026,-0.0001102323
193.6026,-0.0001101805
193.7026,-0.0001100967
193.8026,-0.0001100176
193.9026,-0.0001099884
194.0026,-0.0001099479
194.1026,-0.0001098565
194.2027,-0.0001097991
194.3027,-0.0001097492
194.4027,-0.0001096569
194.5027,-0.0001096088
194.6027,-0.000109558
194.7027,-0.0001094902
194.8027,-0.0001094233
194.9027,-0.0001093386
195.0027,-0.0001092689
195.1027,-0.000109219
195.2027,-0.0001091069
195.3027,-0.0001090203
195.4027,-0.0001090108
195.5027,-0.0001089251
195.6027,-0.0001088197
195.7027,-0.0001087933
195.8027,-0.0001087406
195.9028,-0.0001086671
196.0028,-0.0001086144
196.1028,-0.0001085193
196.2028,-0.0001084628
196.3028,-0.0001084006
196.4028,-0.0001083422
196.5028,-0.0001082641
196.6028,-0.0001081831
196.7028,-0.000108152
196.8028,-0.0001080719
196.9028,-0.0001080201
197.0028,-0.0001079476
197.1028,-0.0001078695
197.2028,-0.000107828
197.3028,-0.0001077687
197.4028,-0.0001076717
197.5029,-0.000107618
197.6029,-0.0001075559
197.7029,-0.0001075163
197.8029,-0.0001074429
197.9029,-0.0001074052
198.0029,-0.0001073477
198.1029,-0.0001072724
198.2029,-0.0001072065
198.3029,-0.0001071123
198.4029,-0.0001070615
198.5029,-0.0001070059
198.6029,-0.0001069287
198.7029,-0.0001068929
198.8029,-0.000106891
198.9029,-0.000106827
199.0029,-0.000106746
199.103,-0.0001066622
199.203,-0.0001066066
199.303,-0.0001065219
199.403,-0.0001064832
199.503,-0.0001064041
199.603,-0.000106309
199.703,-0.0001062714
199.803,-0.000106197
199.903,-0.0001061414
200.003,-0.0001061056
200.103,-0.0001060397
200.203,-0.0001059728
200.303,-0.0001059088
200.403,-0.0001058485
200.503,-0.0001057977
200.603,-0.0001057383
200.703,-0.0001056875
200.8031,-0.0001056357
200.9031,-0.0001055716
201.0031,-0.0001055481
201.1031,-0.0001054681
201.2031,-0.0001053889
201.3031,-0.0001053202
201.4031,-0.0001052477
201.5031,-0.0001051902
201.6031,-0.0001051648
201.7031,-0.0001050283
201.8031,-0.0001049661
201.9031,-0.0001049473
202.0031,-0.0001048748
202.1031,-0.0001048136
202.2031,-0.0001047542
202.3031,-0.0001047015
202.4032,-0.0001046704
202.5032,-0.0001046224
202.6032,-0.0001045348
202.7032,-0.0001044689
202.8032,-0.0001044576
202.9032,-0.0001043747
203.0032,-0.000104272
203.1032,-0.0001042325
203.2032,-0.0001041929
203.3032,-0.0001041402
203.4032,-0.0001041035
203.5032,-0.0001040234
203.6032,-0.0001039198
203.7032,-0.0001038812
203.8032,-0.0001038332
203.9032,-0.0001037635
204.0033,-0.0001037174
204.1033,-0.0001036326
204.2033,-0.0001035545
204.3033,-0.000103546
204.4033,-0.0001034575
204.5033,-0.0001033859
204.6033,-0.0001033605
204.7033,-0.000103303
204.8033,-0.0001032305
204.9033,-0.000103174
205.0033,-0.0001031307
205.1033,-0.0001030742
205.2033,-0.0001030035
205.3033,-0.0001029565
205.4033,-0.0001028679
205.5033,-0.0001028265
205.6033,-0.0001028011
205.7034,-0.000102705
205.8034,-0.0001026523
205.9034,-0.0001026297
206.0034,-0.0001025675
206.1034,-0.0001024912
206.2034,-0.0001024715
206.3034,-0.0001024037
206.4034,-0.0001023349
206.5034,-0.0001022935
206.6034,-0.0001022106
206.7034,-0.0001021032
206.8034,-0.0001021004
206.9034,-0.000102027
207.0034,-0.0001019366
207.1034,-0.0001018961
207.2034,-0.0001018273
207.3035,-0.0001018009
207.4035,-0.0001017454
207.5035,-0.0001016635
207.6035,-0.0001016192
207.7035,-0.0001015975
207.8035,-0.0001015326
207.9035,-0.0001014666
208.0035,-0.0001014214
208.1035,-0.0001013696
208.2035,-0.0001013357
208.3035,-0.0001012764
208.4035,-0.0001012397
208.5035,-0.0001012086
208.6035,-0.0001011144
208.7035,-0.0001010871
208.8035,-0.0001010165
208.9035,-0.0001009703
209.0036,-0.0001009251
209.1036,-0.0001008234
209.2036,-0.0001007585
209.3036,-0.00010075
209.4036,-0.0001007283
209.5036,-0.0001006549
209.6036,-0.0001005635
209.7036,-0.0001005202
209.8036,-0.0001004533
209.9036,-0.0001004034
210.0036,-0.0001003224
210.1036,-0.0001002499
210.2036,-0.0001002104
210.3036,-0.0001001426
210.4036,-0.0001001058
210.5036,-0.0001000484
210.6037,-9.998341E-05
210.7037,-9.994292E-05
210.8037,-9.991937E-05
210.9037,-9.985062E-05
211.0037,-9.975269E-05
211.1037,-9.973573E-05
211.2037,-9.9683E-05
211.3037,-9.960389E-05
211.4037,-9.957752E-05
211.5037,-9.951537E-05
211.6037,-9.944945E-05
211.7037,-9.940424E-05
211.8037,-9.935057E-05
211.9037,-9.930253E-05
212.0037,-9.925733E-05
212.1037,-9.918481E-05
212.2038,-9.913019E-05
212.3038,-9.911042E-05
212.4038,-9.906428E-05
212.5038,-9.898611E-05
212.6038,-9.891172E-05
212.7038,-9.89023E-05
212.8038,-9.883073E-05
212.9038,-9.877705E-05
213.0038,-9.87262E-05
213.1038,-9.866593E-05
213.2038,-9.86226E-05
213.3038,-9.858399E-05
213.4038,-9.851902E-05
213.5038,-9.846628E-05
213.6038,-9.845686E-05
213.7038,-9.83561E-05
213.8038,-9.830807E-05
213.9039,-9.831089E-05
214.0039,-9.826003E-05
214.1039,-9.81781E-05
214.2039,-9.816681E-05
214.3039,-9.813855E-05
214.4039,-9.801237E-05
214.5039,-9.802084E-05
214.6039,-9.796904E-05
214.7039,-9.788899E-05
214.8039,-9.788523E-05
214.9039,-9.784097E-05
215.0039,-9.776187E-05
215.1039,-9.77289E-05
215.2039,-9.770348E-05
215.3039,-9.763567E-05
215.4039,-9.757258E-05
215.504,-9.75641E-05
215.604,-9.747652E-05
215.704,-9.740589E-05
215.804,-9.730984E-05
215.904,-9.729288E-05
216.004,-9.724955E-05
216.104,-9.717987E-05
216.204,-9.711207E-05
216.304,-9.706592E-05
216.404,-9.704803E-05
216.504,-9.701601E-05
216.604,-9.694256E-05
216.704,-9.691431E-05
216.804,-9.687663E-05
216.904,-9.682201E-05
217.004,-9.678435E-05
217.104,-9.671654E-05
217.2041,-9.664591E-05
217.3041,-9.657905E-05
217.4041,-9.652914E-05
217.5041,-9.653761E-05
217.6041,-9.651313E-05
217.7041,-9.645285E-05
217.8041,-9.637375E-05
217.9041,-9.634267E-05
218.0041,-9.629464E-05
218.1041,-9.62551E-05
218.2041,-9.621178E-05
218.3041,-9.613455E-05
218.4041,-9.6095E-05
218.5041,-9.60498E-05
218.6041,-9.598293E-05
218.7041,-9.594056E-05
218.8042,-9.590478E-05
218.9042,-9.584638E-05
219.0042,-9.58153E-05
219.1042,-9.575974E-05
219.2042,-9.570606E-05
219.3042,-9.566934E-05
219.4042,-9.56345E-05
219.5042,-9.560437E-05
219.6042,-9.554597E-05
219.7042,-9.54744E-05
219.8042,-9.545933E-05
219.9042,-9.537458E-05
220.0042,-9.531808E-05
220.1042,-9.529547E-05
220.2042,-9.523897E-05
220.3042,-9.515233E-05
220.4043,-9.513255E-05
220.5043,-9.508264E-05
220.6043,-9.503461E-05
220.7043,-9.498846E-05
220.8043,-9.492631E-05
220.9043,-9.48585E-05
221.0043,-9.486228E-05
221.1043,-9.478128E-05
221.2043,-9.471913E-05
221.3043,-9.467299E-05
221.4043,-9.463155E-05
221.5043,-9.458729E-05
221.6043,-9.457316E-05
221.7043,-9.450253E-05
221.8043,-9.441872E-05
221.9043,-9.439706E-05
222.0043,-9.43415E-05
222.1044,-9.430854E-05
222.2044,-9.426522E-05
222.3044,-9.41654E-05
222.4044,-9.417575E-05
222.5044,-9.416068E-05
222.6044,-9.411266E-05
222.7044,-9.401471E-05
222.8044,-9.397705E-05
222.9044,-9.394692E-05
223.0044,-9.391677E-05
223.1044,-9.383672E-05
223.2044,-9.378776E-05
223.3044,-9.371902E-05
223.4044,-9.374633E-05
223.5044,-9.367381E-05
223.6044,-9.36126E-05
223.7045,-9.356833E-05
223.8045,-9.354574E-05
223.9045,-9.346003E-05
224.0045,-9.338282E-05
224.1045,-9.335457E-05
224.2045,-9.329712E-05
224.3045,-9.325662E-05
224.4045,-9.320577E-05
224.5045,-9.318976E-05
224.6045,-9.316433E-05
224.7045,-9.314549E-05
224.8045,-9.308805E-05
224.9045,-9.30372E-05
225.0045,-9.310218E-05
225.1045,-9.304097E-05
225.2045,-9.294773E-05
225.3046,-9.291948E-05
225.4046,-9.284886E-05
225.5046,-9.275091E-05
225.6046,-9.26784E-05
225.7046,-9.265109E-05
225.8046,-9.256539E-05
225.9046,-9.252772E-05
226.0046,-9.245427E-05
226.1046,-9.24213E-05
226.2046,-9.241754E-05
226.3046,-9.235633E-05
226.4046,-9.230641E-05
226.5046,-9.230923E-05
226.6046,-9.228852E-05
226.7046,-9.220471E-05
226.8046,-9.218023E-05
226.9046,-9.217646E-05
227.0047,-9.209829E-05
227.1047,-9.203143E-05
227.2047,-9.196362E-05
227.3047,-9.19269E-05
227.4047,-9.188075E-05
227.5047,-9.186663E-05
227.6047,-9.178376E-05
227.7047,-9.173478E-05
227.8047,-9.17103E-05
227.9047,-9.159541E-05
228.0047,-9.160105E-05
228.1047,-9.159541E-05
228.2047,-9.155962E-05
228.3047,-9.146356E-05
228.4047,-9.141272E-05
228.5047,-9.140235E-05
228.6048,-9.135433E-05
228.7048,-9.13176E-05
228.8048,-9.124321E-05
228.9048,-9.117257E-05
229.0048,-9.114337E-05
229.1048,-9.109911E-05
229.2048,-9.106709E-05
229.3048,-9.102378E-05
229.4048,-9.097763E-05
229.5048,-9.095597E-05
229.6048,-9.089287E-05
229.7048,-9.083543E-05
229.8048,-9.080153E-05
229.9048,-9.079588E-05
230.0048,-9.074032E-05
230.1048,-9.066686E-05
230.2048,-9.064708E-05
230.3049,-9.059529E-05
230.4049,-9.056704E-05
230.5049,-9.050959E-05
230.6049,-9.047663E-05
230.7049,-9.044556E-05
230.8049,-9.039941E-05
230.9049,-9.034384E-05
231.0049,-9.029582E-05
231.1049,-9.029582E-05
231.2049,-9.026568E-05
231.3049,-9.019411E-05
231.4049,-9.013572E-05
231.5049,-9.011501E-05
231.6049,-9.006038E-05
231.7049,-9.000294E-05
231.8049,-9.000011E-05
231.905,-8.993607E-05
232.005,-8.987204E-05
232.105,-8.985509E-05
232.205,-8.978917E-05
232.305,-8.97628E-05
232.405,-8.971759E-05
232.505,-8.966863E-05
232.605,-8.959987E-05
232.705,-8.957351E-05
232.805,-8.95349E-05
232.905,-8.94831E-05
233.005,-8.943414E-05
233.105,-8.937481E-05
233.205,-8.932489E-05
233.305,-8.931642E-05
233.405,-8.927121E-05
233.5051,-8.920435E-05
233.6051,-8.915726E-05
233.7051,-8.912053E-05
233.8051,-8.904896E-05
233.9051,-8.90452E-05
234.0051,-8.897834E-05
234.1051,-8.891807E-05
234.2051,-8.890394E-05
234.3051,-8.885874E-05
234.4051,-8.882954E-05
234.5051,-8.878905E-05
234.6051,-8.871182E-05
234.7051,-8.86459E-05
234.8051,-8.862895E-05
234.9051,-8.86007E-05
235.0051,-8.854419E-05
235.1051,-8.850935E-05
235.2052,-8.84632E-05
235.3052,-8.839164E-05
235.4052,-8.838411E-05
235.5052,-8.83436E-05
235.6052,-8.82824E-05
235.7052,-8.822871E-05
235.8052,-8.824002E-05
235.9052,-8.821836E-05
236.0052,-8.814302E-05
236.1052,-8.807522E-05
236.2052,-8.805262E-05
236.3052,-8.801306E-05
236.4052,-8.798764E-05
236.5052,-8.793302E-05
236.6052,-8.793961E-05
236.7052,-8.788499E-05
236.8053,-8.782754E-05
236.9053,-8.780023E-05
237.0053,-8.779269E-05
237.1053,-8.775408E-05
237.2053,-8.768628E-05
237.3053,-8.763825E-05
237.4053,-8.759399E-05
237.5053,-8.758551E-05
237.6053,-8.75356E-05
237.7053,-8.743861E-05
237.8053,-8.746215E-05
237.9053,-8.746497E-05
238.0053,-8.74047E-05
238.1053,-8.735197E-05
238.2053,-8.728416E-05
238.3053,-8.726439E-05
238.4053,-8.72286E-05
238.5054,-8.717116E-05
238.6054,-8.710617E-05
238.7054,-8.706662E-05
238.8054,-8.705531E-05
238.9054,-8.700729E-05
239.0054,-8.696115E-05
239.1054,-8.692536E-05
239.2054,-8.688392E-05
239.3054,-8.684437E-05
239.4054,-8.680765E-05
239.5054,-8.677939E-05
239.6054,-8.672383E-05
239.7054,-8.66984E-05
239.8054,-8.666168E-05
239.9054,-8.664567E-05
240.0054,-8.660329E-05
240.1055,-8.653266E-05
240.2055,-8.651665E-05
240.3055,-8.649122E-05
240.4055,-8.646768E-05
240.5055,-8.641589E-05
240.6055,-8.636221E-05
240.7055,-8.633396E-05
240.8055,-8.62831E-05
240.9055,-8.624826E-05
241.0055,-8.627557E-05
241.1055,-8.621529E-05
241.2055,-8.613808E-05
241.3055,-8.611829E-05
241.4055,-8.608346E-05
241.5055,-8.60326E-05
241.6055,-8.599964E-05
241.7056,-8.592524E-05
241.8056,-8.587251E-05
241.9056,-8.58565E-05
242.0056,-8.58386E-05
242.1056,-8.581035E-05
242.2056,-8.575385E-05
242.3056,-8.570017E-05
242.4056,-8.565497E-05
242.5056,-8.565402E-05
242.6056,-8.559847E-05
242.7056,-8.554479E-05
242.8056,-8.553725E-05
242.9056,-8.549299E-05
243.0056,-8.54638E-05
243.1056,-8.541953E-05
243.2056,-8.539034E-05
243.3056,-8.535926E-05
243.4057,-8.535926E-05
243.5057,-8.530935E-05
243.6057,-8.526132E-05
243.7057,-8.522554E-05
243.8057,-8.51841E-05
243.9057,-8.513984E-05
244.0057,-8.511535E-05
244.1057,-8.509935E-05
244.2057,-8.502871E-05
244.3057,-8.498822E-05
244.4057,-8.499763E-05
244.5057,-8.499198E-05
244.6057,-8.490159E-05
244.7057,-8.488463E-05
244.8057,-8.482059E-05
244.9057,-8.478009E-05
245.0058,-8.474432E-05
245.1058,-8.4701E-05
245.2058,-8.462565E-05
245.3058,-8.459928E-05
245.4058,-8.458045E-05
245.5058,-8.453996E-05
245.6058,-8.447874E-05
245.7058,-8.445144E-05
245.8058,-8.442507E-05
245.9058,-8.442789E-05
246.0058,-8.436762E-05
246.1058,-8.43083E-05
246.2058,-8.432053E-05
246.3058,-8.426779E-05
246.4058,-8.420941E-05
246.5058,-8.418304E-05
246.6059,-8.413219E-05
246.7059,-8.412277E-05
246.8059,-8.407474E-05
246.9059,-8.402766E-05
247.0059,-8.399093E-05
247.1059,-8.39721E-05
247.2059,-8.393442E-05
247.3059,-8.388075E-05
247.4059,-8.382424E-05
247.5059,-8.381765E-05
247.6059,-8.375549E-05
247.7059,-8.373666E-05
247.8059,-8.370841E-05
247.9059,-8.366133E-05
248.0059,-8.361235E-05
248.1059,-8.361424E-05
248.2059,-8.355585E-05
248.306,-8.355208E-05
248.406,-8.352195E-05
248.506,-8.346167E-05
248.606,-8.339858E-05
248.706,-8.342401E-05
248.806,-8.336938E-05
248.906,-8.3311E-05
249.006,-8.329216E-05
249.106,-8.323942E-05
249.206,-8.321965E-05
249.306,-8.31961E-05
249.406,-8.314431E-05
249.506,-8.308875E-05
249.606,-8.307745E-05
249.706,-8.303695E-05
249.806,-8.300305E-05
249.9061,-8.299834E-05
250.0061,-8.292677E-05
250.1061,-8.288722E-05
250.2061,-8.290888E-05
250.3061,-8.285238E-05
250.4061,-8.278269E-05
250.5061,-8.27695E-05
250.6061,-8.274878E-05
250.7061,-8.271394E-05
250.8061,-8.266026E-05
250.9061,-8.259623E-05
251.0061,-8.259057E-05
251.1061,-8.255572E-05
251.2061,-8.252936E-05
251.3061,-8.246626E-05
251.4061,-8.245025E-05
251.5061,-8.241729E-05
251.6062,-8.237963E-05
251.7062,-8.236361E-05
251.8062,-8.234384E-05
251.9062,-8.229676E-05
252.0062,-8.225437E-05
252.1062,-8.220917E-05
252.2062,-8.219598E-05
252.3062,-8.216114E-05
252.4062,-8.213383E-05
252.5062,-8.210652E-05
252.6062,-8.205284E-05
252.7062,-8.202459E-05
252.8062,-8.200105E-05
252.9062,-8.194549E-05
253.0062,-8.190499E-05
253.1062,-8.187485E-05
253.2063,-8.183436E-05
253.3063,-8.181929E-05
253.4063,-8.17496E-05
253.5063,-8.172135E-05
253.6063,-8.171759E-05
253.7063,-8.16705E-05
253.8063,-8.163754E-05
253.9063,-8.160269E-05
254.0063,-8.15575E-05
254.1063,-8.154337E-05
254.2063,-8.151794E-05
254.3063,-8.146709E-05
254.4063,-8.141152E-05
254.5063,-8.139834E-05
254.6063,-8.138893E-05
254.7063,-8.131358E-05
254.8064,-8.131076E-05
254.9064,-8.124013E-05
255.0064,-8.12712E-05
255.1064,-8.125613E-05
255.2064,-8.12213E-05
255.3064,-8.115161E-05
255.4064,-8.113936E-05
255.5064,-8.110735E-05
255.6064,-8.105649E-05
255.7064,-8.101506E-05
255.8064,-8.099622E-05
255.9064,-8.093783E-05
256.0064,-8.091712E-05
256.1064,-8.09011E-05
256.2064,-8.08672E-05
256.3064,-8.08672E-05
256.4064,-8.084931E-05
256.5064,-8.080788E-05
256.6064,-8.076549E-05
256.7065,-8.075796E-05
256.8065,-8.070522E-05
256.9065,-8.066097E-05
257.0065,-8.061011E-05
257.1065,-8.058845E-05
257.2065,-8.056773E-05
257.3065,-8.0531E-05
257.4065,-8.046697E-05
257.5065,-8.043495E-05
257.6065,-8.041046E-05
257.7065,-8.034077E-05
257.8065,-8.032006E-05
257.9065,-8.032477E-05
258.0065,-8.030781E-05
258.1065,-8.02805E-05
258.2065,-8.025225E-05
258.3065,-8.021082E-05
258.4066,-8.017032E-05
258.5066,-8.015431E-05
258.6066,-8.01157E-05
258.7066,-8.00639E-05
258.8066,-8.007145E-05
258.9066,-8.002906E-05
259.0066,-7.997444E-05
259.1066,-7.997915E-05
259.2066,-7.996032E-05
259.3066,-7.990663E-05
259.4066,-7.992452E-05
259.5066,-7.990946E-05
259.6066,-7.992736E-05
259.7066,-7.987556E-05
259.8066,-7.983036E-05
259.9066,-7.976161E-05
260.0067,-7.976255E-05
260.1067,-7.970605E-05
260.2067,-7.962883E-05
260.3067,-7.961565E-05
260.4067,-7.960058E-05
260.5067,-7.954878E-05
260.6067,-7.950546E-05
260.7067,-7.949886E-05
260.8067,-7.947627E-05
260.9067,-7.945461E-05
261.0067,-7.941788E-05
261.1067,-7.939528E-05
261.2067,-7.936137E-05
261.3067,-7.936514E-05
261.4067,-7.931241E-05
261.5067,-7.92559E-05
261.6068,-7.923801E-05
261.7068,-7.920693E-05
261.8068,-7.918527E-05
261.9068,-7.914949E-05
262.0068,-7.909581E-05
262.1068,-7.906002E-05
262.2068,-7.906379E-05
262.3068,-7.902895E-05
262.4068,-7.898939E-05
262.5068,-7.89489E-05
262.6068,-7.893006E-05
262.7068,-7.888203E-05
262.8068,-7.887262E-05
262.9068,-7.884813E-05
263.0068,-7.880764E-05
263.1068,-7.87954E-05
263.2068,-7.874925E-05
263.3069,-7.870593E-05
263.4069,-7.867863E-05
263.5069,-7.865602E-05
263.6069,-7.860705E-05
263.7069,-7.857502E-05
263.8069,-7.858445E-05
263.9069,-7.853171E-05
264.0069,-7.8511E-05
264.1069,-7.847803E-05
264.2069,-7.847615E-05
264.3069,-7.845543E-05
264.4069,-7.842435E-05
264.5069,-7.837162E-05
264.6069,-7.832642E-05
264.7069,-7.830099E-05
264.8069,-7.827179E-05
264.907,-7.823506E-05
265.007,-7.823035E-05
265.107,-7.814466E-05
265.207,-7.813995E-05
265.307,-7.814937E-05
265.407,-7.812864E-05
265.507,-7.806178E-05
265.607,-7.800622E-05
265.707,-7.79921E-05
265.807,-7.796573E-05
265.907,-7.795254E-05
266.007,-7.792711E-05
266.107,-7.785555E-05
266.207,-7.786308E-05
266.307,-7.786402E-05
266.407,-7.781223E-05
266.507,-7.776985E-05
266.6071,-7.776043E-05
266.7071,-7.771241E-05
266.8071,-7.769451E-05
266.9071,-7.765214E-05
267.0071,-7.76267E-05
267.1071,-7.760694E-05
267.2071,-7.757868E-05
267.3071,-7.752029E-05
267.4071,-7.750616E-05
267.5071,-7.74732E-05
267.6071,-7.742047E-05
267.7071,-7.741105E-05
267.8071,-7.737432E-05
267.9071,-7.734889E-05
268.0071,-7.730087E-05
268.1071,-7.728391E-05
268.2072,-7.725754E-05
268.3072,-7.721893E-05
268.4072,-7.720575E-05
268.5072,-7.716149E-05
268.6072,-7.71257E-05
268.7072,-7.71257E-05
268.8072,-7.707391E-05
268.9072,-7.704848E-05
269.0072,-7.703153E-05
269.1072,-7.697314E-05
269.2072,-7.696656E-05
269.3072,-7.69383E-05
269.4072,-7.688651E-05
269.5072,-7.687709E-05
269.6072,-7.688651E-05
269.7072,-7.683659E-05
269.8073,-7.67782E-05
269.9073,-7.67556E-05
270.0073,-7.674147E-05
270.1073,-7.67104E-05
270.2073,-7.670005E-05
270.3073,-7.664448E-05
270.4073,-7.660587E-05
270.5073,-7.660399E-05
270.6073,-7.657197E-05
270.7073,-7.652675E-05
270.8073,-7.650888E-05
270.9073,-7.647685E-05
271.0073,-7.646743E-05
271.1073,-7.643353E-05
271.2073,-7.640434E-05
271.3073,-7.637702E-05
271.4073,-7.634783E-05
271.5074,-7.630169E-05
271.6074,-7.626873E-05
271.7074,-7.626213E-05
271.8074,-7.622447E-05
271.9074,-7.616702E-05
272.0074,-7.615949E-05
272.1074,-7.613217E-05
272.2074,-7.610863E-05
272.3074,-7.608603E-05
272.4074,-7.605307E-05
272.5074,-7.60041E-05
272.6074,-7.600787E-05
272.7074,-7.598527E-05
272.8074,-7.595984E-05
272.9074,-7.592783E-05
273.0074,-7.590427E-05
273.1075,-7.586002E-05
273.2075,-7.58506E-05
273.3075,-7.584966E-05
273.4075,-7.57762E-05
273.5075,-7.573665E-05
273.6075,-7.572629E-05
273.7075,-7.569993E-05
273.8075,-7.566225E-05
273.9075,-7.561987E-05
274.0075,-7.560763E-05
274.1075,-7.557656E-05
274.2075,-7.557185E-05
274.3075,-7.55144E-05
274.4075,-7.549181E-05
274.5075,-7.548144E-05
274.6075,-7.543906E-05
274.7076,-7.542305E-05
274.8076,-7.539387E-05
274.9076,-7.534018E-05
275.0076,-7.533453E-05
275.1076,-7.531005E-05
275.2076,-7.526956E-05
275.3076,-7.52526E-05
275.4076,-7.521776E-05
275.5076,-7.517068E-05
275.6076,-7.516973E-05
275.7076,-7.515466E-05
275.8076,-7.511322E-05
275.9076,-7.507273E-05
276.0076,-7.506143E-05
276.1076,-7.503317E-05
276.2076,-7.502471E-05
276.3076,-7.499645E-05
276.4077,-7.495596E-05
276.5077,-7.49164E-05
276.6077,-7.490416E-05
276.7077,-7.486461E-05
276.8077,-7.487403E-05
276.9077,-7.485048E-05
277.0077,-7.479963E-05
277.1077,-7.476856E-05
277.2077,-7.47516E-05
277.3077,-7.472711E-05
277.4077,-7.469415E-05
277.5077,-7.466401E-05
277.6077,-7.464235E-05
277.7077,-7.458114E-05
277.8077,-7.459716E-05
277.9077,-7.455666E-05
278.0078,-7.452747E-05
278.1078,-7.450864E-05
278.2078,-7.446155E-05
278.3078,-7.443518E-05
278.4078,-7.444177E-05
278.5078,-7.44041E-05
278.6078,-7.434572E-05
278.7078,-7.43636E-05
278.8078,-7.43137E-05
278.9078,-7.432688E-05
279.0078,-7.430616E-05
279.1078,-7.423647E-05
279.2078,-7.422046E-05
279.3078,-7.421481E-05
279.4078,-7.419315E-05
279.5078,-7.415737E-05
279.6078,-7.413759E-05
279.7079,-7.407638E-05
279.8079,-7.406131E-05
279.9079,-7.405755E-05
280.0079,-7.402176E-05
280.1079,-7.398127E-05
280.2079,-7.396337E-05
280.3079,-7.394265E-05
280.4079,-7.392476E-05
280.5079,-7.389463E-05
280.6079,-7.382964E-05
280.7079,-7.380139E-05
280.8079,-7.38353E-05
280.9079,-7.378727E-05
281.0079,-7.373829E-05
281.1079,-7.371946E-05
281.2079,-7.369121E-05
281.308,-7.367332E-05
281.408,-7.365542E-05
281.508,-7.361399E-05
281.608,-7.357161E-05
281.708,-7.357914E-05
281.808,-7.355373E-05
281.908,-7.350004E-05
282.008,-7.349062E-05
282.108,-7.345861E-05
282.208,-7.342658E-05
282.308,-7.343882E-05
282.408,-7.336255E-05
282.508,-7.334371E-05
282.608,-7.334936E-05
282.708,-7.332205E-05
282.808,-7.329191E-05
282.9081,-7.326084E-05
283.0081,-7.32307E-05
283.1081,-7.320151E-05
283.2081,-7.321375E-05
283.3081,-7.318173E-05
283.4081,-7.311864E-05
283.5081,-7.310828E-05
283.6081,-7.308191E-05
283.7081,-7.305178E-05
283.8081,-7.300657E-05
283.9081,-7.30141E-05
284.0081,-7.295383E-05
284.1081,-7.293595E-05
284.2081,-7.293217E-05
284.3081,-7.291522E-05
284.4081,-7.287473E-05
284.5081,-7.284365E-05
284.6082,-7.281446E-05
284.7082,-7.280316E-05
284.8082,-7.280692E-05
284.9082,-7.27523E-05
285.0082,-7.271087E-05
285.1082,-7.268827E-05
285.2082,-7.267508E-05
285.3082,-7.265531E-05
285.4082,-7.263082E-05
285.5082,-7.258468E-05
285.6082,-7.256584E-05
285.7082,-7.25649E-05
285.8082,-7.249521E-05
285.9082,-7.24858E-05
286.0082,-7.250463E-05
286.1082,-7.247449E-05
286.2083,-7.241422E-05
286.3083,-7.241988E-05
286.4083,-7.240292E-05
286.5083,-7.23596E-05
286.6083,-7.2321E-05
286.7083,-7.231063E-05
286.8083,-7.226261E-05
286.9083,-7.227296E-05
287.0083,-7.222399E-05
287.1083,-7.21882E-05
287.2083,-7.21995E-05
287.3083,-7.215243E-05
287.4083,-7.214866E-05
287.5083,-7.212606E-05
287.6083,-7.208368E-05
287.7083,-7.205919E-05
287.8083,-7.20413E-05
287.9084,-7.200174E-05
288.0084,-7.197349E-05
288.1084,-7.197349E-05
288.2084,-7.194241E-05
288.3084,-7.191887E-05
288.4084,-7.191981E-05
288.5084,-7.191134E-05
288.6084,-7.187838E-05
288.7084,-7.185295E-05
288.8084,-7.183977E-05
288.9084,-7.180963E-05
289.0084,-7.178421E-05
289.1084,-7.176066E-05
289.2084,-7.173052E-05
289.3084,-7.171828E-05
289.4084,-7.170228E-05
289.5085,-7.16712E-05
289.6085,-7.165424E-05
289.7085,-7.166366E-05
289.8085,-7.15968E-05
289.9085,-7.157608E-05
290.0085,-7.156761E-05
290.1085,-7.151205E-05
290.2085,-7.14998E-05
290.3085,-7.146872E-05
290.4085,-7.143764E-05
290.5085,-7.140751E-05
290.6085,-7.142164E-05
290.7085,-7.137832E-05
290.8085,-7.134536E-05
290.9085,-7.132934E-05
291.0085,-7.129733E-05
291.1086,-7.127662E-05
291.2086,-7.12785E-05
291.3086,-7.1222E-05
291.4086,-7.1222E-05
291.5086,-7.126437E-05
291.6086,-7.123518E-05
291.7086,-7.117114E-05
291.8086,-7.114854E-05
291.9086,-7.113253E-05
292.0086,-7.112123E-05
292.1086,-7.111087E-05
292.2086,-7.105908E-05
292.3086,-7.102234E-05
292.4086,-7.102046E-05
292.5086,-7.098279E-05
292.6086,-7.094042E-05
292.7086,-7.092346E-05
292.8087,-7.092441E-05
292.9087,-7.087825E-05
293.0087,-7.085283E-05
293.1087,-7.085377E-05
293.2087,-7.084907E-05
293.3087,-7.079538E-05
293.4087,-7.077091E-05
293.5087,-7.075866E-05
293.6087,-7.073511E-05
293.7087,-7.072758E-05
293.8087,-7.068332E-05
293.9087,-7.069086E-05
294.0087,-7.064376E-05
294.1087,-7.061458E-05
294.2087,-7.060987E-05
294.3087,-7.060987E-05
294.4088,-7.05948E-05
294.5088,-7.053829E-05
294.6088,-7.052982E-05
294.7088,-7.051098E-05
294.8088,-7.047237E-05
294.9088,-7.047237E-05
295.0088,-7.043753E-05
295.1088,-7.040551E-05
295.2088,-7.040457E-05
295.3088,-7.040551E-05
295.4088,-7.033489E-05
295.5088,-7.032735E-05
295.6088,-7.03038E-05
295.7088,-7.025672E-05
295.8088,-7.025201E-05
295.9088,-7.021717E-05
296.0089,-7.019362E-05
296.1089,-7.016819E-05
296.2089,-7.014371E-05
296.3089,-7.011357E-05
296.4089,-7.01211E-05
296.5089,-7.009003E-05
296.6089,-7.005424E-05
296.7089,-7.003729E-05
296.8089,-7.002317E-05
296.9089,-6.999868E-05
297.0089,-6.999774E-05
297.1089,-6.995819E-05
297.2089,-6.99064E-05
297.3089,-6.99224E-05
297.4089,-6.990075E-05
297.5089,-6.98546E-05
297.6089,-6.986778E-05
297.709,-6.987154E-05
297.809,-6.983388E-05
297.909,-6.978868E-05
298.009,-6.977832E-05
298.109,-6.975853E-05
298.209,-6.971428E-05
298.309,-6.971334E-05
298.409,-6.968791E-05
298.509,-6.966908E-05
298.609,-6.964742E-05
298.709,-6.959845E-05
298.809,-6.960221E-05
298.909,-6.957302E-05
299.009,-6.953346E-05
299.109,-6.950428E-05
299.209,-6.954854E-05
299.3091,-6.951651E-05
299.4091,-6.948732E-05
299.5091,-6.949862E-05
299.6091,-6.949674E-05
299.7091,-6.94327E-05
299.8091,-6.939597E-05
299.9091,-6.941669E-05
300.0091,-6.936301E-05
300.1091,-6.931781E-05
300.2091,-6.930086E-05
300.3091,-6.929239E-05
300.4091,-6.92726E-05
300.5091,-6.924718E-05
300.6091,-6.921328E-05
300.7091,-6.916525E-05
300.8091,-6.916242E-05
300.9091,-6.915583E-05
301.0092,-6.913888E-05
301.1092,-6.911534E-05
301.2092,-6.907107E-05
301.3092,-6.905507E-05
301.4092,-6.907013E-05
301.5092,-6.901645E-05
301.6092,-6.900138E-05
301.7092,-6.901269E-05
301.8092,-6.898538E-05
301.9092,-6.896654E-05
302.0092,-6.892982E-05
302.1092,-6.888744E-05
302.2092,-6.888837E-05
302.3092,-6.891946E-05
302.4092,-6.888556E-05
302.5092,-6.887049E-05
302.6093,-6.883941E-05
302.7093,-6.881963E-05
302.8093,-6.879045E-05
302.9093,-6.877726E-05
303.0093,-6.876879E-05
303.1093,-6.870569E-05
303.2093,-6.871604E-05
303.3093,-6.869439E-05
303.4093,-6.865295E-05
303.5093,-6.862941E-05
303.6093,-6.864448E-05
303.7093,-6.8652E-05
303.8093,-6.859268E-05
303.9093,-6.858043E-05
304.0093,-6.855217E-05
304.1093,-6.853052E-05
304.2094,-6.852487E-05
304.3094,-6.848155E-05
304.4094,-6.84354E-05
304.5094,-6.843259E-05
304.6094,-6.842693E-05
304.7094,-6.840339E-05
304.8094,-6.839115E-05
304.9094,-6.832428E-05
305.0094,-6.831768E-05
305.1094,-6.833464E-05
305.2094,-6.82885E-05
305.3094,-6.82706E-05
305.4094,-6.825648E-05
305.5094,-6.821599E-05
305.6094,-6.819904E-05
305.7094,-6.822257E-05
305.8094,-6.817173E-05
305.9095,-6.813877E-05
306.0095,-6.813405E-05
306.1095,-6.811145E-05
306.2095,-6.811052E-05
306.3095,-6.812275E-05
306.4095,-6.805118E-05
306.5095,-6.808414E-05
306.6095,-6.805213E-05
306.7095,-6.800597E-05
306.8095,-6.799091E-05
306.9095,-6.796265E-05
307.0095,-6.792781E-05
307.1095,-6.796172E-05
307.2095,-6.787884E-05
307.3095,-6.787037E-05
307.4095,-6.780728E-05
307.5096,-6.784683E-05
307.6096,-6.782611E-05
307.7096,-6.773193E-05
307.8096,-6.776112E-05
307.9096,-6.776207E-05
308.0096,-6.771686E-05
308.1096,-6.770933E-05
308.2096,-6.766695E-05
308.3096,-6.764435E-05
308.4096,-6.765754E-05
308.5096,-6.764811E-05
308.6096,-6.759162E-05
308.7096,-6.758314E-05
308.8096,-6.758032E-05
308.9096,-6.752004E-05
309.0096,-6.752476E-05
309.1096,-6.748897E-05
309.2097,-6.745601E-05
309.3097,-6.744471E-05
309.4097,-6.74221E-05
309.5097,-6.740422E-05
309.6097,-6.739385E-05
309.7097,-6.736843E-05
309.8097,-6.733734E-05
309.9097,-6.731287E-05
310.0097,-6.729874E-05
310.1097,-6.73138E-05
310.2097,-6.728367E-05
310.3097,-6.726012E-05
310.4097,-6.720174E-05
310.5097,-6.720362E-05
310.6097,-6.718291E-05
310.7097,-6.711981E-05
310.8098,-6.714524E-05
310.9098,-6.714711E-05
311.0098,-6.718008E-05
311.1098,-6.705859E-05
311.2098,-6.704259E-05
311.3098,-6.705294E-05
311.4098,-6.702563E-05
311.5098,-6.700209E-05
311.6098,-6.696631E-05
311.7098,-6.695312E-05
311.8098,-6.694465E-05
311.9098,-6.692676E-05
312.0098,-6.686271E-05
312.1098,-6.686177E-05
312.2098,-6.685895E-05
312.3098,-6.682881E-05
312.4099,-6.680621E-05
312.5099,-6.676855E-05
312.6099,-6.675253E-05
312.7099,-6.674971E-05
312.8099,-6.674218E-05
312.9099,-6.671581E-05
313.0099,-6.66932E-05
313.1099,-6.665083E-05
313.2099,-6.662729E-05
313.3099,-6.664707E-05
313.4099,-6.663387E-05
313.5099,-6.660845E-05
313.6099,-6.658396E-05
313.7099,-6.655383E-05
313.8099,-6.655853E-05
313.9099,-6.652558E-05
314.0099,-6.650203E-05
314.11,-6.648414E-05
314.21,-6.646437E-05
314.31,-6.647472E-05
314.41,-6.642293E-05
314.51,-6.638808E-05
314.61,-6.638714E-05
314.71,-6.637113E-05
314.81,-6.637678E-05
314.91,-6.63457E-05
315.01,-6.630521E-05
315.11,-6.627602E-05
315.21,-6.62779E-05
315.31,-6.627979E-05
315.41,-6.626189E-05
315.51,-6.623929E-05
315.61,-6.619974E-05
315.7101,-6.620068E-05
315.8101,-6.616207E-05
315.9101,-6.613476E-05
316.0101,-6.612628E-05
316.1101,-6.61197E-05
316.2101,-6.608202E-05
316.3101,-6.608107E-05
316.4101,-6.605565E-05
316.5101,-6.604341E-05
316.6101,-6.603023E-05
316.7101,-6.606131E-05
316.8101,-6.59869E-05
316.9101,-6.593323E-05
317.0101,-6.595112E-05
317.1101,-6.592664E-05
317.2101,-6.591911E-05
317.3102,-6.587672E-05
317.4102,-6.586542E-05
317.5102,-6.586919E-05
317.6102,-6.584094E-05
317.7102,-6.581363E-05
317.8102,-6.58108E-05
317.9102,-6.580704E-05
318.0102,-6.579667E-05
318.1102,-6.573828E-05
318.2102,-6.572416E-05
318.3102,-6.569968E-05
318.4102,-6.567708E-05
318.5102,-6.567613E-05
318.6102,-6.565071E-05
318.7102,-6.562434E-05
318.8102,-6.563377E-05
318.9102,-6.556784E-05
319.0103,-6.557442E-05
319.1103,-6.557631E-05
319.2103,-6.552922E-05
319.3103,-6.549721E-05
319.4103,-6.54925E-05
319.5103,-6.547555E-05
319.6103,-6.545389E-05
319.7103,-6.543788E-05
319.8103,-6.541058E-05
319.9103,-6.537761E-05
320.0103,-6.536724E-05
320.1103,-6.538702E-05
320.2103,-6.533711E-05
320.3103,-6.534182E-05
320.4103,-6.527967E-05
320.5103,-6.527779E-05
320.6104,-6.528908E-05
320.7104,-6.525424E-05
320.8104,-6.521469E-05
320.9104,-6.521281E-05
321.0104,-6.517325E-05
321.1104,-6.516949E-05
321.2104,-6.515253E-05
321.3104,-6.511487E-05
321.4104,-6.508849E-05
321.5104,-6.509791E-05
321.6104,-6.506778E-05
321.7104,-6.504235E-05
321.8104,-6.501032E-05
321.9104,-6.499526E-05
322.0104,-6.497549E-05
322.1104,-6.499621E-05
322.2104,-6.495288E-05
322.3105,-6.48879E-05
322.4105,-6.49397E-05
322.5105,-6.494064E-05
322.6105,-6.487755E-05
322.7105,-6.487849E-05
322.8105,-6.486436E-05
322.9105,-6.483234E-05
323.0105,-6.480786E-05
323.1105,-6.479467E-05
323.2105,-6.476831E-05
323.3105,-6.474476E-05
323.4105,-6.473441E-05
323.5105,-6.470615E-05
323.6105,-6.469674E-05
323.7105,-6.469108E-05
323.8105,-6.466378E-05
323.9106,-6.46374E-05
324.0106,-6.461951E-05
324.1106,-6.459032E-05
324.2106,-6.457902E-05
324.3106,-6.457243E-05
324.4106,-6.452816E-05
324.5106,-6.453663E-05
324.6106,-6.452911E-05
324.7106,-6.450933E-05
324.8106,-6.449615E-05
324.9106,-6.446789E-05
325.0106,-6.44387E-05
325.1106,-6.44208E-05
325.2106,-6.442458E-05
325.3106,-6.441515E-05
325.4106,-6.436148E-05
325.5107,-6.435583E-05
325.6107,-6.432475E-05
325.7107,-6.432099E-05
325.8107,-6.431722E-05
325.9107,-6.429179E-05
326.0107,-6.426448E-05
326.1107,-6.425695E-05
326.2107,-6.423152E-05
326.3107,-6.42221E-05
326.4107,-6.420045E-05
326.5107,-6.414676E-05
326.6107,-6.414582E-05
326.7107,-6.419385E-05
326.8107,-6.416371E-05
326.9107,-6.412887E-05
327.0107,-6.413829E-05
327.1107,-6.409873E-05
327.2108,-6.404882E-05
327.3108,-6.408649E-05
327.4108,-6.403752E-05
327.5108,-6.398008E-05
327.6108,-6.399702E-05
327.7108,-6.398667E-05
327.8108,-6.395088E-05
327.9108,-6.393017E-05
328.0108,-6.394806E-05
328.1108,-6.395842E-05
328.2108,-6.39038E-05
328.3108,-6.387554E-05
328.4108,-6.386425E-05
328.5108,-6.38407E-05
328.6108,-6.382939E-05
328.7108,-6.379079E-05
328.8109,-6.379079E-05
328.9109,-6.377101E-05
329.0109,-6.372676E-05
329.1109,-6.375029E-05
329.2109,-6.376066E-05
329.3109,-6.372016E-05
329.4109,-6.367119E-05
329.5109,-6.365612E-05
329.6109,-6.364389E-05
329.7109,-6.3658E-05
329.8109,-6.364671E-05
329.9109,-6.359397E-05
330.0109,-6.357324E-05
330.1109,-6.356289E-05
330.2109,-6.353088E-05
330.3109,-6.352428E-05
330.4109,-6.352428E-05
330.511,-6.355536E-05
330.611,-6.348096E-05
330.711,-6.347061E-05
330.811,-6.346024E-05
330.911,-6.344517E-05
331.011,-6.34301E-05
331.111,-6.340091E-05
331.211,-6.340185E-05
331.311,-6.338585E-05
331.411,-6.338867E-05
331.511,-6.333594E-05
331.611,-6.333781E-05
331.711,-6.334629E-05
331.811,-6.330109E-05
331.911,-6.32879E-05
332.011,-6.330862E-05
332.1111,-6.328037E-05
332.2111,-6.326248E-05
332.3111,-6.326436E-05
332.4111,-6.322387E-05
332.5111,-6.321162E-05
332.6111,-6.321162E-05
332.7111,-6.317207E-05
332.8111,-6.311651E-05
332.9111,-6.314947E-05
333.0111,-6.312216E-05
333.1111,-6.309296E-05
333.2111,-6.310897E-05
333.3111,-6.310804E-05
333.4111,-6.305059E-05
333.5111,-6.305813E-05
333.6111,-6.30487E-05
333.7112,-6.301198E-05
333.8112,-6.298278E-05
333.9112,-6.296112E-05
334.0112,-6.293098E-05
334.1112,-6.295171E-05
334.2112,-6.292533E-05
334.3112,-6.287637E-05
334.4112,-6.288956E-05
334.5112,-6.286507E-05
334.6112,-6.284811E-05
334.7112,-6.284529E-05
334.8112,-6.282646E-05
334.9112,-6.284717E-05
335.0112,-6.285283E-05
335.1112,-6.281233E-05
335.2112,-6.276053E-05
335.3112,-6.276336E-05
335.4113,-6.277278E-05
335.5113,-6.273981E-05
335.6113,-6.270309E-05
335.7113,-6.271062E-05
335.8113,-6.266919E-05
335.9113,-6.266636E-05
336.0113,-6.266071E-05
336.1113,-6.262022E-05
336.2113,-6.263999E-05
336.3113,-6.262492E-05
336.4113,-6.258255E-05
336.5113,-6.253357E-05
336.6113,-6.252511E-05
336.7113,-6.251569E-05
336.8113,-6.250627E-05
336.9113,-6.248272E-05
337.0114,-6.242999E-05
337.1114,-6.244411E-05
337.2114,-6.246578E-05
337.3114,-6.242999E-05
337.4114,-6.240927E-05
337.5114,-6.240456E-05
337.6114,-6.237066E-05
337.7114,-6.235088E-05
337.8114,-6.234241E-05
337.9114,-6.233864E-05
338.0114,-6.233016E-05
338.1114,-6.232263E-05
338.2114,-6.22972E-05
338.3114,-6.227931E-05
338.4114,-6.228872E-05
338.5114,-6.225953E-05
338.6115,-6.221903E-05
338.7115,-6.22294E-05
338.8115,-6.222846E-05
338.9115,-6.218514E-05
339.0115,-6.215971E-05
339.1115,-6.217007E-05
339.2115,-6.214182E-05
339.3115,-6.212958E-05
339.4115,-6.213805E-05
339.5115,-6.213052E-05
339.6115,-6.210509E-05
339.7115,-6.206742E-05
339.8115,-6.205047E-05
339.9115,-6.203823E-05
340.0115,-6.202504E-05
340.1115,-6.199114E-05
340.2115,-6.198078E-05
340.3116,-6.196759E-05
340.4116,-6.193558E-05
340.5116,-6.19271E-05
340.6116,-6.192805E-05
340.7116,-6.19158E-05
340.8116,-6.18706E-05
340.9116,-6.187719E-05
341.0116,-6.184517E-05
341.1116,-6.183199E-05
341.2116,-6.183199E-05
341.3116,-6.178585E-05
341.4116,-6.182539E-05
341.5116,-6.181786E-05
341.6116,-6.175948E-05
341.7116,-6.175194E-05
341.8116,-6.177737E-05
341.9117,-6.172275E-05
342.0117,-6.171239E-05
342.1117,-6.171522E-05
342.2117,-6.167943E-05
342.3117,-6.165118E-05
342.4117,-6.166247E-05
342.5117,-6.163893E-05
342.6117,-6.160315E-05
342.7117,-6.160032E-05
342.8117,-6.160315E-05
342.9117,-6.157866E-05
343.0117,-6.15457E-05
343.1117,-6.155135E-05
343.2117,-6.152216E-05
343.3117,-6.152781E-05
343.4117,-6.150615E-05
343.5117,-6.147036E-05
343.6118,-6.145341E-05
343.7118,-6.145529E-05
343.8118,-6.14261E-05
343.9118,-6.142799E-05
344.0118,-6.140915E-05
344.1118,-6.137713E-05
344.2118,-6.136583E-05
344.3118,-6.136866E-05
344.4118,-6.133287E-05
344.5118,-6.13178E-05
344.6118,-6.130274E-05
344.7118,-6.126601E-05
344.8118,-6.127354E-05
344.9118,-6.127354E-05
345.0118,-6.125753E-05
345.1118,-6.121892E-05
345.2119,-6.121798E-05
345.3119,-6.116524E-05
345.4119,-6.118125E-05
345.5119,-6.118502E-05
345.6119,-6.115394E-05
345.7119,-6.113604E-05
345.8119,-6.111439E-05
345.9119,-6.109085E-05
346.0119,-6.108425E-05
346.1119,-6.109932E-05
346.2119,-6.107766E-05
346.3119,-6.105506E-05
346.4119,-6.103246E-05
346.5119,-6.101457E-05
346.6119,-6.100232E-05
346.7119,-6.10042E-05
346.812,-6.097784E-05
346.912,-6.095994E-05
347.012,-6.095241E-05
347.112,-6.090909E-05
347.212,-6.089402E-05
347.312,-6.09251E-05
347.412,-6.093075E-05
347.512,-6.088461E-05
347.612,-6.089779E-05
347.712,-6.089402E-05
347.812,-6.085447E-05
347.912,-6.084317E-05
348.012,-6.083563E-05
348.112,-6.081962E-05
348.212,-6.079514E-05
348.312,-6.076783E-05
348.412,-6.076689E-05
348.5121,-6.074805E-05
348.6121,-6.071321E-05
348.7121,-6.070097E-05
348.8121,-6.068213E-05
348.9121,-6.067272E-05
349.0121,-6.064635E-05
349.1121,-6.063693E-05
349.2121,-6.060209E-05
349.3121,-6.058702E-05
349.4121,-6.058043E-05
349.5121,-6.056348E-05
349.6121,-6.053052E-05
349.7121,-6.053052E-05
349.8121,-6.052204E-05
349.9121,-6.049661E-05
350.0121,-6.048625E-05
350.1122,-6.049473E-05
350.2122,-6.045329E-05
350.3122,-6.046648E-05
350.4122,-6.044953E-05
350.5122,-6.039773E-05
350.6122,-6.040526E-05
350.7122,-6.043069E-05
350.8122,-6.038078E-05
350.9122,-6.037042E-05
351.0122,-6.037796E-05
351.1122,-6.034028E-05
351.2122,-6.032051E-05
351.3122,-6.032522E-05
351.4122,-6.031863E-05
351.5122,-6.026965E-05
351.6122,-6.027248E-05
351.7122,-6.029979E-05
351.8123,-6.026401E-05
351.9123,-6.023764E-05
352.0123,-6.026023E-05
352.1123,-6.026401E-05
352.2123,-6.02593E-05
352.3123,-6.021221E-05
352.4123,-6.019903E-05
352.5123,-6.020467E-05
352.6123,-6.016701E-05
352.7123,-6.008414E-05
352.8123,-6.015759E-05
352.9123,-6.017548E-05
353.0123,-6.013875E-05
353.1123,-6.008884E-05
353.2123,-6.010674E-05
353.3123,-6.007943E-05
353.4124,-6.005212E-05
353.5124,-6.002857E-05
353.6124,-6.00022E-05
353.7124,-5.998431E-05
353.8124,-5.999278E-05
353.9124,-5.995324E-05
354.0124,-5.9957E-05
354.1124,-5.997677E-05
354.2124,-5.994005E-05
354.3124,-5.990991E-05
354.4124,-5.99457E-05
354.5124,-5.996924E-05
354.6124,-5.990332E-05
354.7124,-5.98826E-05
354.8124,-5.989296E-05
354.9124,-5.99005E-05
355.0125,-5.98779E-05
355.1125,-5.982987E-05
355.2125,-5.980256E-05
355.3125,-5.979408E-05
355.4125,-5.977901E-05
355.5125,-5.977336E-05
355.6125,-5.976771E-05
355.7125,-5.97357E-05
355.8125,-5.971686E-05
355.9125,-5.970462E-05
356.0125,-5.971874E-05
356.1125,-5.966601E-05
356.2125,-5.965847E-05
356.3125,-5.966977E-05
356.4125,-5.964717E-05
356.5125,-5.964906E-05
356.6125,-5.96434E-05
356.7126,-5.960102E-05
356.8126,-5.958784E-05
356.9126,-5.958784E-05
357.0126,-5.957372E-05
357.1126,-5.960102E-05
357.2126,-5.956147E-05
357.3126,-5.951344E-05
357.4126,-5.954358E-05
357.5126,-5.952381E-05
357.6126,-5.952474E-05
357.7126,-5.951251E-05
357.8126,-5.94899E-05
357.9126,-5.945694E-05
358.0126,-5.946636E-05
358.1126,-5.945694E-05
358.2126,-5.945129E-05
358.3127,-5.942681E-05
358.4127,-5.94221E-05
358.5127,-5.940044E-05
358.6127,-5.938066E-05
358.7127,-5.938348E-05
358.8127,-5.935806E-05
358.9127,-5.933546E-05
359.0127,-5.935806E-05
359.1127,-5.932886E-05
359.2127,-5.931003E-05
359.3127,-5.933734E-05
359.4127,-5.933357E-05
359.5127,-5.928837E-05
359.6127,-5.929025E-05
359.7127,-5.927895E-05
359.8127,-5.924599E-05
359.9128,-5.924882E-05
360.0128,-5.922716E-05
360.1128,-5.919608E-05
360.2128,-5.919137E-05
360.3128,-5.919514E-05
360.4128,-5.915559E-05
360.5128,-5.914335E-05
360.6128,-5.91198E-05
360.7128,-5.910285E-05
360.8128,-5.912357E-05
360.9128,-5.909531E-05
361.0128,-5.90633E-05
361.1128,-5.904635E-05
361.2128,-5.901809E-05
361.3128,-5.901809E-05
361.4128,-5.902845E-05
361.5128,-5.900209E-05
361.6129,-5.895123E-05
361.7129,-5.898702E-05
361.8129,-5.896442E-05
361.9129,-5.894276E-05
362.0129,-5.894841E-05
362.1129,-5.894558E-05
362.2129,-5.89211E-05
362.3129,-5.893616E-05
362.4129,-5.891073E-05
362.5129,-5.889567E-05
362.6129,-5.889473E-05
362.7129,-5.888814E-05
362.8129,-5.884387E-05
362.9129,-5.885329E-05
363.0129,-5.884105E-05
363.1129,-5.87949E-05
363.213,-5.879208E-05
363.313,-5.881185E-05
363.413,-5.878172E-05
363.513,-5.875159E-05
363.613,-5.875535E-05
363.713,-5.874123E-05
363.813,-5.876477E-05
363.913,-5.876289E-05
364.013,-5.872898E-05
364.113,-5.869979E-05
364.213,-5.870356E-05
364.313,-5.870356E-05
364.413,-5.866401E-05
364.513,-5.867436E-05
364.613,-5.861503E-05
364.713,-5.859432E-05
364.813,-5.862822E-05
364.9131,-5.862445E-05
365.0131,-5.859432E-05
365.1131,-5.85849E-05
365.2131,-5.855571E-05
365.3131,-5.855759E-05
365.4131,-5.856418E-05
365.5131,-5.853781E-05
365.6131,-5.849261E-05
365.7131,-5.84992E-05
365.8131,-5.846906E-05
365.9131,-5.846624E-05
366.0131,-5.84766E-05
366.1131,-5.844552E-05
366.2131,-5.84248E-05
366.3131,-5.841256E-05
366.4131,-5.840879E-05
366.5132,-5.839749E-05
366.6132,-5.840974E-05
366.7132,-5.83796E-05
366.8132,-5.8357E-05
366.9132,-5.835512E-05
367.0132,-5.834005E-05
367.1132,-5.83344E-05
367.2132,-5.835229E-05
367.3132,-5.833722E-05
367.4132,-5.831086E-05
367.5132,-5.832027E-05
367.6132,-5.830803E-05
367.7132,-5.828543E-05
367.8132,-5.830332E-05
367.9132,-5.831274E-05
368.0132,-5.831368E-05
368.1133,-5.828072E-05
368.2133,-5.830426E-05
368.3133,-5.825152E-05
368.4133,-5.825718E-05
368.5133,-5.824776E-05
368.6133,-5.821103E-05
368.7133,-5.817619E-05
368.8133,-5.818372E-05
368.9133,-5.818749E-05
369.0133,-5.815452E-05
369.1133,-5.814134E-05
369.2133,-5.810932E-05
369.3133,-5.80886E-05
369.4133,-5.809237E-05
369.5133,-5.808013E-05
369.6133,-5.804529E-05
369.7133,-5.806789E-05
369.8134,-5.799161E-05
369.9134,-5.802268E-05
370.0134,-5.804434E-05
370.1134,-5.801892E-05
370.2134,-5.797936E-05
370.3134,-5.798219E-05
370.4134,-5.796712E-05
370.5134,-5.796806E-05
370.6134,-5.796995E-05
370.7134,-5.793793E-05
370.8134,-5.791156E-05
370.9134,-5.79125E-05
371.0134,-5.792286E-05
371.1134,-5.78899E-05
371.2134,-5.789838E-05
371.3134,-5.787295E-05
371.4135,-5.783057E-05
371.5135,-5.78221E-05
371.6135,-5.784187E-05
371.7135,-5.781456E-05
371.8135,-5.778725E-05
371.9135,-5.77929E-05
372.0135,-5.776747E-05
372.1135,-5.776182E-05
372.2135,-5.775429E-05
372.3135,-5.77185E-05
372.4135,-5.772039E-05
372.5135,-5.771662E-05
372.6135,-5.76912E-05
372.7135,-5.769779E-05
372.8135,-5.766954E-05
372.9135,-5.764976E-05
373.0135,-5.764034E-05
373.1136,-5.765164E-05
373.2136,-5.761303E-05
373.3136,-5.758007E-05
373.4136,-5.757536E-05
373.5136,-5.757254E-05
373.6136,-5.757348E-05
373.7136,-5.754805E-05
373.8136,-5.752074E-05
373.9136,-5.750285E-05
374.0136,-5.749908E-05
374.1136,-5.749155E-05
374.2136,-5.748307E-05
374.3136,-5.748496E-05
374.4136,-5.744446E-05
374.5136,-5.744164E-05
374.6136,-5.743975E-05
374.7137,-5.743975E-05
374.8137,-5.73776E-05
374.9137,-5.738042E-05
375.0137,-5.738042E-05
375.1137,-5.737007E-05
375.2137,-5.733522E-05
375.3137,-5.733239E-05
375.4137,-5.730132E-05
375.5137,-5.731356E-05
375.6137,-5.731262E-05
375.7137,-5.726647E-05
375.8137,-5.726741E-05
375.9137,-5.725423E-05
376.0137,-5.724387E-05
376.1137,-5.724293E-05
376.2137,-5.721656E-05
376.3138,-5.71789E-05
376.4138,-5.721939E-05
376.5138,-5.719678E-05
376.6138,-5.717042E-05
376.7138,-5.714028E-05
376.8138,-5.715723E-05
376.9138,-5.711109E-05
377.0138,-5.711768E-05
377.1138,-5.710921E-05
377.2138,-5.708283E-05
377.3138,-5.70866E-05
377.4138,-5.705647E-05
377.5138,-5.704234E-05
377.6138,-5.704988E-05
377.7138,-5.702068E-05
377.8138,-5.70188E-05
377.9138,-5.700844E-05
378.0139,-5.70009E-05
378.1139,-5.697925E-05
378.2139,-5.697642E-05
378.3139,-5.6967E-05
378.4139,-5.691803E-05
378.5139,-5.692839E-05
378.6139,-5.69218E-05
378.7139,-5.689261E-05
378.8139,-5.687754E-05
378.9139,-5.686247E-05
379.0139,-5.685588E-05
379.1139,-5.685399E-05
379.2139,-5.686247E-05
379.3139,-5.681633E-05
379.4139,-5.679844E-05
379.5139,-5.680785E-05
379.614,-5.678525E-05
379.714,-5.678713E-05
379.814,-5.677112E-05
379.914,-5.673722E-05
380.014,-5.67278E-05
380.114,-5.674946E-05
380.214,-5.670709E-05
380.314,-5.670144E-05
380.414,-5.669484E-05
380.514,-5.66826E-05
380.614,-5.663834E-05
380.714,-5.664493E-05
380.814,-5.665246E-05
380.914,-5.665058E-05
381.014,-5.66148E-05
381.114,-5.659219E-05
381.2141,-5.658749E-05
381.3141,-5.659973E-05
381.4141,-5.65856E-05
381.5141,-5.655076E-05
381.6141,-5.653475E-05
381.7141,-5.651026E-05
381.8141,-5.649331E-05
381.9141,-5.649896E-05
382.0141,-5.647072E-05
382.1141,-5.645282E-05
382.2141,-5.647165E-05
382.3141,-5.642739E-05
382.4141,-5.640573E-05
382.5141,-5.640291E-05
382.6141,-5.638501E-05
382.7141,-5.637842E-05
382.8141,-5.638878E-05
382.9142,-5.63351E-05
383.0142,-5.632568E-05
383.1142,-5.63351E-05
383.2142,-5.630967E-05
383.3142,-5.629367E-05
383.4142,-5.629649E-05
383.5142,-5.629084E-05
383.6142,-5.626824E-05
383.7142,-5.624281E-05
383.8142,-5.624846E-05
383.9142,-5.625694E-05
384.0142,-5.625788E-05
384.1142,-5.62042E-05
384.2142,-5.619196E-05
384.3142,-5.622021E-05
384.4142,-5.620137E-05
384.5143,-5.615335E-05
384.6143,-5.61703E-05
384.7143,-5.615806E-05
384.8143,-5.608083E-05
384.9143,-5.613452E-05
385.0143,-5.613734E-05
385.1143,-5.612227E-05
385.2143,-5.607989E-05
385.3143,-5.608837E-05
385.4143,-5.608178E-05
385.5143,-5.604976E-05
385.6143,-5.603563E-05
385.7143,-5.60281E-05
385.8143,-5.603375E-05
385.9143,-5.601303E-05
386.0143,-5.598195E-05
386.1143,-5.595182E-05
386.2144,-5.596783E-05
386.3144,-5.59471E-05
386.4144,-5.592262E-05
386.5144,-5.591415E-05
386.6144,-5.590284E-05
386.7144,-5.58859E-05
386.8144,-5.586989E-05
386.9144,-5.587459E-05
387.0144,-5.583975E-05
387.1144,-5.580867E-05
387.2144,-5.584258E-05
387.3144,-5.58002E-05
387.4144,-5.57889E-05
387.5144,-5.575688E-05
387.6144,-5.576724E-05
387.7144,-5.579172E-05
387.8145,-5.580208E-05
387.9145,-5.576724E-05
388.0145,-5.578325E-05
388.1145,-5.577571E-05
388.2145,-5.574181E-05
388.3145,-5.572863E-05
388.4145,-5.573898E-05
388.5145,-5.567872E-05
388.6145,-5.567872E-05
388.7145,-5.568531E-05
388.8145,-5.566553E-05
388.9145,-5.567212E-05
389.0145,-5.56401E-05
389.1145,-5.564481E-05
389.2145,-5.56401E-05
389.3145,-5.562221E-05
389.4146,-5.561844E-05
389.5146,-5.560526E-05
389.6146,-5.561468E-05
389.7146,-5.560714E-05
389.8146,-5.557889E-05
389.9146,-5.56354E-05
390.0146,-5.563163E-05
390.1146,-5.558643E-05
390.2146,-5.55836E-05
390.3146,-5.556853E-05
390.4146,-5.556571E-05
390.5146,-5.556476E-05
390.6146,-5.554499E-05
390.7146,-5.551014E-05
390.8146,-5.549696E-05
390.9146,-5.547624E-05
391.0146,-5.546588E-05
391.1147,-5.543669E-05
391.2147,-5.542821E-05
391.3147,-5.540467E-05
391.4147,-5.542445E-05
391.5147,-5.540467E-05
391.6147,-5.535099E-05
391.7147,-5.536135E-05
391.8147,-5.536606E-05
391.9147,-5.536041E-05
392.0147,-5.536512E-05
392.1147,-5.531521E-05
392.2147,-5.530485E-05
392.3147,-5.531426E-05
392.4147,-5.532839E-05
392.5147,-5.528601E-05
392.6147,-5.526623E-05
392.7148,-5.528036E-05
392.8148,-5.529449E-05
392.9148,-5.53039E-05
393.0148,-5.526718E-05
393.1148,-5.525211E-05
393.2148,-5.524929E-05
393.3148,-5.522386E-05
393.4148,-5.522198E-05
393.5148,-5.520502E-05
393.6148,-5.522198E-05
393.7148,-5.519372E-05
393.8148,-5.516735E-05
393.9148,-5.520879E-05
394.0148,-5.516359E-05
394.1148,-5.514287E-05
394.2148,-5.516924E-05
394.3148,-5.515323E-05
394.4149,-5.515135E-05
394.5149,-5.513816E-05
394.6149,-5.511556E-05
394.7149,-5.510991E-05
394.8149,-5.510614E-05
394.9149,-5.509202E-05
395.0149,-5.506659E-05
395.1149,-5.507695E-05
395.2149,-5.502045E-05
395.3149,-5.501856E-05
395.4149,-5.508072E-05
395.5149,-5.509578E-05
395.6149,-5.50374E-05
395.7149,-5.502045E-05
395.8149,-5.502045E-05
395.9149,-5.50195E-05
396.015,-5.498748E-05
396.115,-5.495923E-05
396.215,-5.493475E-05
396.315,-5.496017E-05
396.415,-5.49404E-05
396.515,-5.491779E-05
396.615,-5.490179E-05
396.715,-5.492816E-05
396.815,-5.489613E-05
396.915,-5.486412E-05
397.015,-5.488107E-05
397.115,-5.487165E-05
397.215,-5.486035E-05
397.315,-5.483304E-05
397.415,-5.484717E-05
397.515,-5.481326E-05
397.6151,-5.481703E-05
397.7151,-5.481044E-05
397.8151,-5.477748E-05
397.9151,-5.477371E-05
398.0151,-5.479066E-05
398.1151,-5.476994E-05
398.2151,-5.476335E-05
398.3151,-5.472003E-05
398.4151,-5.473792E-05
398.5151,-5.473792E-05
398.6151,-5.466823E-05
398.7151,-5.468048E-05
398.8151,-5.470308E-05
398.9151,-5.470025E-05
399.0151,-5.467106E-05
399.1151,-5.463999E-05
399.2151,-5.462774E-05
399.3152,-5.463339E-05
399.4152,-5.465034E-05
399.5152,-5.461173E-05
399.6152,-5.458819E-05
399.7152,-5.459384E-05
399.8152,-5.45816E-05
399.9152,-5.456653E-05
400.0152,-5.458065E-05
400.1152,-5.454675E-05
400.2152,-5.453357E-05
400.3152,-5.452321E-05
400.4152,-5.452227E-05
400.5152,-5.450908E-05
400.6152,-5.449308E-05
400.7152,-5.446765E-05
400.8152,-5.446388E-05
400.9153,-5.44959E-05
401.0153,-5.445917E-05
401.1153,-5.442621E-05
401.2153,-5.441868E-05
401.3153,-5.440738E-05
401.4153,-5.439984E-05
401.5153,-5.441491E-05
401.6153,-5.438666E-05
401.7153,-5.434616E-05
401.8153,-5.4365E-05
401.9153,-5.434616E-05
402.0153,-5.435088E-05
402.1153,-5.432262E-05
402.2153,-5.433015E-05
402.3153,-5.427365E-05
402.4153,-5.427648E-05
402.5154,-5.428495E-05
402.6154,-5.427177E-05
402.7154,-5.424823E-05
402.8154,-5.424634E-05
402.9154,-5.421338E-05
403.0154,-5.422185E-05
403.1154,-5.422939E-05
403.2154,-5.419454E-05
403.3154,-5.418325E-05
403.4154,-5.417289E-05
403.5154,-5.417665E-05
403.6154,-5.418607E-05
403.7154,-5.415594E-05
403.8154,-5.414369E-05
403.9154,-5.413804E-05
404.0154,-5.411826E-05
404.1154,-5.411262E-05
404.2155,-5.410131E-05
404.3155,-5.408625E-05
404.4155,-5.408248E-05
404.5155,-5.410696E-05
404.6155,-5.407212E-05
404.7155,-5.406176E-05
404.8155,-5.406176E-05
404.9155,-5.404293E-05
405.0155,-5.403163E-05
405.1155,-5.399302E-05
405.2155,-5.400055E-05
405.3155,-5.400808E-05
405.4155,-5.397889E-05
405.5155,-5.397324E-05
405.6155,-5.39657E-05
405.7155,-5.393275E-05
405.8156,-5.394593E-05
405.9156,-5.39318E-05
406.0156,-5.391956E-05
406.1156,-5.394405E-05
406.2156,-5.391203E-05
406.3156,-5.38866E-05
406.4156,-5.390544E-05
406.5156,-5.387812E-05
406.6156,-5.386494E-05
406.7156,-5.386965E-05
406.8156,-5.387059E-05
406.9156,-5.383951E-05
407.0156,-5.384799E-05
407.1156,-5.383293E-05
407.2156,-5.380561E-05
407.3156,-5.381032E-05
407.4156,-5.380938E-05
407.5157,-5.379431E-05
407.6157,-5.378866E-05
407.7157,-5.378677E-05
407.8157,-5.380655E-05
407.9157,-5.379525E-05
408.0157,-5.378772E-05
408.1157,-5.379055E-05
408.2157,-5.375758E-05
408.3157,-5.37444E-05
408.4157,-5.371709E-05
408.5157,-5.373121E-05
408.6157,-5.371992E-05
408.7157,-5.368883E-05
408.8157,-5.365211E-05
408.9157,-5.368978E-05
409.0157,-5.366906E-05
409.1158,-5.364645E-05
409.2158,-5.361538E-05
409.3158,-5.360031E-05
409.4158,-5.359466E-05
409.5158,-5.358996E-05
409.6158,-5.356735E-05
409.7158,-5.355699E-05
409.8158,-5.355699E-05
409.9158,-5.353439E-05
410.0158,-5.352497E-05
410.1158,-5.352121E-05
410.2158,-5.351368E-05
410.3158,-5.349484E-05
410.4158,-5.349861E-05
410.5158,-5.348636E-05
410.6158,-5.346659E-05
410.7159,-5.344116E-05
410.8159,-5.343739E-05
410.9159,-5.343834E-05
411.0159,-5.341291E-05
411.1159,-5.340726E-05
411.2159,-5.339313E-05
411.3159,-5.341479E-05
411.4159,-5.339502E-05
411.5159,-5.336206E-05
411.6159,-5.334416E-05
411.7159,-5.33404E-05
411.8159,-5.332344E-05
411.9159,-5.335452E-05
412.0159,-5.331026E-05
412.1159,-5.328389E-05
412.2159,-5.330178E-05
412.3159,-5.329331E-05
412.416,-5.327542E-05
412.516,-5.325564E-05
412.616,-5.327447E-05
412.716,-5.325752E-05
412.816,-5.328578E-05
412.916,-5.323963E-05
413.016,-5.322833E-05
413.116,-5.320855E-05
413.216,-5.320385E-05
413.316,-5.321138E-05
413.416,-5.320761E-05
413.516,-5.318784E-05
413.616,-5.315393E-05
413.716,-5.317277E-05
413.816,-5.316429E-05
413.916,-5.310025E-05
414.0161,-5.311532E-05
414.1161,-5.314734E-05
414.2161,-5.316241E-05
414.3161,-5.311061E-05
414.4161,-5.310308E-05
414.5161,-5.31238E-05
414.6161,-5.30833E-05
414.7161,-5.307389E-05
414.8161,-5.304563E-05
414.9161,-5.301361E-05
415.0161,-5.303998E-05
415.1161,-5.30155E-05
415.2161,-5.299101E-05
415.3161,-5.299666E-05
415.4161,-5.296935E-05
415.5161,-5.297689E-05
415.6161,-5.297877E-05
415.7162,-5.294675E-05
415.8162,-5.293545E-05
415.9162,-5.291756E-05
416.0162,-5.291661E-05
416.1162,-5.289873E-05
416.2162,-5.292886E-05
416.3162,-5.289119E-05
416.4162,-5.28667E-05
416.5162,-5.288366E-05
416.6162,-5.2862E-05
416.7162,-5.282056E-05
416.8162,-5.283845E-05
416.9162,-5.287047E-05
417.0162,-5.283563E-05
417.1162,-5.27989E-05
417.2162,-5.280455E-05
417.3163,-5.277818E-05
417.4163,-5.279513E-05
417.5163,-5.279796E-05
417.6163,-5.274805E-05
417.7163,-5.275276E-05
417.8163,-5.275181E-05
417.9163,-5.273581E-05
418.0163,-5.27198E-05
418.1163,-5.270096E-05
418.2163,-5.267647E-05
418.3163,-5.27132E-05
418.4163,-5.270002E-05
418.5163,-5.264728E-05
418.6163,-5.263692E-05
418.7163,-5.265482E-05
418.8163,-5.262279E-05
418.9164,-5.262279E-05
419.0164,-5.259925E-05
419.1164,-5.258419E-05
419.2164,-5.260396E-05
419.3164,-5.260208E-05
419.4164,-5.255782E-05
419.5164,-5.256535E-05
419.6164,-5.253804E-05
419.7164,-5.254181E-05
419.8164,-5.253427E-05
419.9164,-5.251921E-05
420.0164,-5.249472E-05
420.1164,-5.251356E-05
420.2164,-5.249661E-05
420.3164,-5.246647E-05
420.4164,-5.2474E-05
420.5164,-5.247024E-05
420.6165,-5.242503E-05
420.7165,-5.243915E-05
420.8165,-5.246647E-05
420.9165,-5.240337E-05
421.0165,-5.23836E-05
421.1165,-5.238642E-05
421.2165,-5.23836E-05
421.3165,-5.239113E-05
421.4165,-5.236476E-05
421.5165,-5.232709E-05
421.6165,-5.231579E-05
421.7165,-5.23723E-05
421.8165,-5.231956E-05
421.9165,-5.230167E-05
422.0165,-5.231297E-05
422.1165,-5.232144E-05
422.2166,-5.22979E-05
422.3166,-5.229601E-05
422.4166,-5.227153E-05
422.5166,-5.223481E-05
422.6166,-5.22753E-05
422.7166,-5.226117E-05
422.8166,-5.223292E-05
422.9166,-5.221879E-05
423.0166,-5.222444E-05
423.1166,-5.219337E-05
423.2166,-5.22122E-05
423.3166,-5.218018E-05
423.4166,-5.21378E-05
423.5166,-5.215852E-05
423.6166,-5.217642E-05
423.7166,-5.214534E-05
423.8167,-5.212086E-05
423.9167,-5.211238E-05
424.0167,-5.209166E-05
424.1167,-5.211144E-05
424.2167,-5.208695E-05
424.3167,-5.204928E-05
424.4167,-5.206341E-05
424.5167,-5.206529E-05
424.6167,-5.203892E-05
424.7167,-5.20295E-05
424.8167,-5.20248E-05
424.9167,-5.20135E-05
425.0167,-5.201726E-05
425.1167,-5.201726E-05
425.2167,-5.199089E-05
425.3167,-5.198336E-05
425.4167,-5.1973E-05
425.5168,-5.195888E-05
425.6168,-5.196829E-05
425.7168,-5.197583E-05
425.8168,-5.191932E-05
425.9168,-5.19165E-05
426.0168,-5.192309E-05
426.1168,-5.190708E-05
426.2168,-5.19052E-05
426.3168,-5.190708E-05
426.4168,-5.186376E-05
426.5168,-5.187129E-05
426.6168,-5.188636E-05
426.7168,-5.188542E-05
426.8168,-5.186282E-05
426.9168,-5.183457E-05
427.0168,-5.18195E-05
427.1169,-5.182138E-05
427.2169,-5.184681E-05
427.3169,-5.181573E-05
427.4169,-5.179031E-05
427.5169,-5.180161E-05
427.6169,-5.179878E-05
427.7169,-5.176676E-05
427.8169,-5.176865E-05
427.9169,-5.177618E-05
428.0169,-5.180066E-05
428.1169,-5.175923E-05
428.2169,-5.174322E-05
428.3169,-5.173945E-05
428.4169,-5.17564E-05
428.5169,-5.17225E-05
428.6169,-5.168295E-05
428.7169,-5.171403E-05
428.817,-5.172438E-05
428.917,-5.169143E-05
429.017,-5.168012E-05
429.117,-5.166411E-05
429.217,-5.166223E-05
429.317,-5.168671E-05
429.417,-5.164246E-05
429.517,-5.162174E-05
429.617,-5.16255E-05
429.717,-5.162174E-05
429.817,-5.161609E-05
429.917,-5.16029E-05
430.017,-5.158783E-05
430.117,-5.154263E-05
430.217,-5.156335E-05
430.317,-5.157654E-05
430.4171,-5.153604E-05
430.5171,-5.154169E-05
430.6171,-5.153133E-05
430.7171,-5.151343E-05
430.8171,-5.152756E-05
430.9171,-5.151155E-05
431.0171,-5.150308E-05
431.1171,-5.1472E-05
431.2171,-5.147954E-05
431.3171,-5.147012E-05
431.4171,-5.146164E-05
431.5171,-5.144281E-05
431.6171,-5.142303E-05
431.7171,-5.143056E-05
431.8171,-5.142303E-05
431.9171,-5.141173E-05
432.0172,-5.140702E-05
432.1172,-5.138348E-05
432.2172,-5.135146E-05
432.3172,-5.136276E-05
432.4172,-5.137689E-05
432.5172,-5.13458E-05
432.6172,-5.134298E-05
432.7172,-5.135052E-05
432.8172,-5.131661E-05
432.9172,-5.133827E-05
433.0172,-5.133639E-05
433.1172,-5.130249E-05
433.2172,-5.129872E-05
433.3172,-5.132415E-05
433.4172,-5.129025E-05
433.5172,-5.127801E-05
433.6172,-5.126765E-05
433.7173,-5.125258E-05
433.8173,-5.123469E-05
433.9173,-5.12507E-05
434.0173,-5.124128E-05
434.1173,-5.121679E-05
434.2173,-5.121585E-05
434.3173,-5.119513E-05
434.4173,-5.117441E-05
434.5173,-5.119984E-05
434.6173,-5.118289E-05
434.7173,-5.113486E-05
434.8173,-5.115181E-05
434.9173,-5.115087E-05
435.0173,-5.113015E-05
435.1173,-5.112639E-05
435.2173,-5.112073E-05
435.3174,-5.11019E-05
435.4174,-5.113392E-05
435.5174,-5.110567E-05
435.6174,-5.108307E-05
435.7174,-5.106047E-05
435.8174,-5.107835E-05
435.9174,-5.106047E-05
436.0174,-5.10793E-05
436.1174,-5.103881E-05
436.2174,-5.101903E-05
436.3174,-5.103504E-05
436.4174,-5.102279E-05
436.5174,-5.099266E-05
436.6174,-5.100301E-05
436.7174,-5.099078E-05
436.8174,-5.096818E-05
436.9174,-5.097665E-05
437.0175,-5.096158E-05
437.1175,-5.094652E-05
437.2175,-5.093804E-05
437.3175,-5.09258E-05
437.4175,-5.089849E-05
437.5175,-5.09145E-05
437.6175,-5.091732E-05
437.7175,-5.088907E-05
437.8175,-5.088342E-05
437.9175,-5.089095E-05
438.0175,-5.083821E-05
438.1175,-5.084951E-05
438.2175,-5.085705E-05
438.3175,-5.083821E-05
438.4175,-5.081844E-05
438.5175,-5.085046E-05
438.6176,-5.080243E-05
438.7176,-5.080525E-05
438.8176,-5.083351E-05
438.9176,-5.079113E-05
439.0176,-5.077606E-05
439.1176,-5.079489E-05
439.2176,-5.0777E-05
439.3176,-5.075534E-05
439.4176,-5.075629E-05
439.5176,-5.074028E-05
439.6176,-5.074404E-05
439.7176,-5.072803E-05
439.8176,-5.072898E-05
439.9176,-5.070637E-05
440.0176,-5.071108E-05
440.1176,-5.068942E-05
440.2177,-5.068377E-05
440.3177,-5.06753E-05
440.4177,-5.065835E-05
440.5177,-5.065552E-05
440.6177,-5.064799E-05
440.7177,-5.063386E-05
440.8177,-5.062727E-05
440.9177,-5.06235E-05
441.0177,-5.060467E-05
441.1177,-5.059148E-05
441.2177,-5.058018E-05
441.3177,-5.060373E-05
441.4177,-5.057641E-05
441.5177,-5.056229E-05
441.6177,-5.057453E-05
441.7177,-5.054251E-05
441.8177,-5.054534E-05
441.9178,-5.055193E-05
442.0178,-5.052839E-05
442.1178,-5.050861E-05
442.2178,-5.052744E-05
442.3178,-5.051803E-05
442.4178,-5.049637E-05
442.5178,-5.048601E-05
442.6178,-5.04926E-05
442.7178,-5.048789E-05
442.8178,-5.048224E-05
442.9178,-5.04474E-05
443.0178,-5.045681E-05
443.1178,-5.045775E-05
443.2178,-5.044269E-05
443.3178,-5.042197E-05
443.4178,-5.042385E-05
443.5179,-5.042291E-05
443.6179,-5.040031E-05
443.7179,-5.039843E-05
443.8179,-5.039466E-05
443.9179,-5.038524E-05
444.0179,-5.036359E-05
444.1179,-5.038995E-05
444.2179,-5.036076E-05
444.3179,-5.034474E-05
444.4179,-5.035981E-05
444.5179,-5.034474E-05
444.6179,-5.035699E-05
444.7179,-5.035699E-05
444.8179,-5.033816E-05
444.9179,-5.030237E-05
445.0179,-5.030896E-05
445.118,-5.029955E-05
445.218,-5.030237E-05
445.318,-5.030048E-05
445.418,-5.026941E-05
445.518,-5.025623E-05
445.618,-5.026941E-05
445.718,-5.025999E-05
445.818,-5.024022E-05
445.918,-5.023645E-05
446.018,-5.022044E-05
446.118,-5.020537E-05
446.218,-5.022044E-05
446.318,-5.020254E-05
446.418,-5.017994E-05
446.518,-5.018748E-05
446.618,-5.016771E-05
446.718,-5.015075E-05
446.8181,-5.016299E-05
446.9181,-5.01564E-05
447.0181,-5.013851E-05
447.1181,-5.014698E-05
447.2181,-5.011214E-05
447.3181,-5.010649E-05
447.4181,-5.011591E-05
447.5181,-5.014322E-05
447.6181,-5.009519E-05
447.7181,-5.011497E-05
447.8181,-5.00999E-05
447.9181,-5.007353E-05
448.0181,-5.006976E-05
448.1181,-5.007071E-05
448.2181,-5.005658E-05
448.3181,-5.005187E-05
448.4182,-5.006035E-05
448.5182,-5.008106E-05
448.6182,-5.006788E-05
448.7182,-5.009048E-05
448.8182,-5.009142E-05
448.9182,-5.010649E-05
449.0182,-5.011591E-05
449.1182,-5.008389E-05
449.2182,-5.007918E-05
449.3182,-5.007729E-05
449.4182,-5.00594E-05
449.5182,-5.00321E-05
449.6182,-5.001608E-05
449.7182,-4.998218E-05
449.8182,-5.000855E-05
449.9182,-5.00255E-05
450.0182,-5.002739E-05
450.1183,-4.997088E-05
450.2183,-4.997653E-05
450.3183,-4.999631E-05
450.4183,-4.996994E-05
450.5183,-4.996429E-05
450.6183,-4.994074E-05
450.7183,-4.990308E-05
450.8183,-4.992662E-05
450.9183,-4.992662E-05
451.0183,-4.990684E-05
451.1183,-4.989272E-05
451.2183,-4.988142E-05
451.3183,-4.985222E-05
451.4183,-4.987671E-05
451.5183,-4.987105E-05
451.6183,-4.983809E-05
451.7184,-4.982303E-05
451.8184,-4.983527E-05
451.9184,-4.982303E-05
452.0184,-4.983904E-05
452.1184,-4.981079E-05
452.2184,-4.979572E-05
452.3184,-4.979289E-05
452.4184,-4.983339E-05
452.5184,-4.979195E-05
452.6184,-4.978913E-05
452.7184,-4.984186E-05
452.8184,-4.97637E-05
452.9184,-4.978253E-05
453.0184,-4.9775E-05
453.1184,-4.974298E-05
453.2184,-4.975052E-05
453.3185,-4.976558E-05
453.4185,-4.97072E-05
453.5185,-4.972791E-05
453.6185,-4.973827E-05
453.7185,-4.973451E-05
453.8185,-4.971567E-05
453.9185,-4.973168E-05
454.0185,-4.97072E-05
454.1185,-4.968931E-05
454.2185,-4.969966E-05
454.3185,-4.970248E-05
454.4185,-4.967423E-05
454.5185,-4.969401E-05
454.6185,-4.966199E-05
454.7185,-4.965634E-05
454.8185,-4.966294E-05
454.9185,-4.964787E-05
455.0186,-4.962621E-05
455.1186,-4.96441E-05
455.2186,-4.962997E-05
455.3186,-4.962056E-05
455.4186,-4.96441E-05
455.5186,-4.961773E-05
455.6186,-4.960737E-05
455.7186,-4.960643E-05
455.8186,-4.961208E-05
455.9186,-4.958477E-05
456.0186,-4.958383E-05
456.1186,-4.957818E-05
456.2186,-4.955181E-05
456.3186,-4.956311E-05
456.4186,-4.955558E-05
456.5186,-4.952356E-05
456.6187,-4.955934E-05
456.7187,-4.954051E-05
456.8187,-4.950661E-05
456.9187,-4.950943E-05
457.0187,-4.951885E-05
457.1187,-4.950096E-05
457.2187,-4.952356E-05
457.3187,-4.950943E-05
457.4187,-4.945481E-05
457.5187,-4.947647E-05
457.6187,-4.949436E-05
457.7187,-4.948777E-05
457.8187,-4.946046E-05
457.9187,-4.94727E-05
458.0187,-4.945575E-05
458.1187,-4.945105E-05
458.2188,-4.946046E-05
458.3188,-4.944822E-05
458.4188,-4.943409E-05
458.5188,-4.944163E-05
458.6188,-4.942939E-05
458.7188,-4.94049E-05
458.8188,-4.942374E-05
458.9188,-4.942656E-05
459.0188,-4.939831E-05
459.1188,-4.939737E-05
459.2188,-4.940867E-05
459.3188,-4.939643E-05
459.4188,-4.940772E-05
459.5188,-4.938606E-05
459.6188,-4.936346E-05
459.7188,-4.939266E-05
459.8188,-4.936252E-05
459.9189,-4.934275E-05
460.0189,-4.933709E-05
460.1189,-4.935216E-05
460.2189,-4.931355E-05
460.3189,-4.933898E-05
460.4189,-4.934557E-05
460.5189,-4.930508E-05
460.6189,-4.930602E-05
460.7189,-4.932203E-05
460.8189,-4.930319E-05
460.9189,-4.929943E-05
461.0189,-4.927588E-05
461.1189,-4.926364E-05
461.2189,-4.927494E-05
461.3189,-4.92966E-05
461.4189,-4.925423E-05
461.519,-4.927494E-05
461.619,-4.924857E-05
461.719,-4.925328E-05
461.819,-4.928718E-05
461.919,-4.927023E-05
462.019,-4.924669E-05
462.119,-4.924386E-05
462.219,-4.923068E-05
462.319,-4.924763E-05
462.419,-4.923727E-05
462.519,-4.922691E-05
462.619,-4.922503E-05
462.719,-4.92175E-05
462.819,-4.921279E-05
462.919,-4.920431E-05
463.019,-4.918642E-05
463.119,-4.917794E-05
463.2191,-4.917417E-05
463.3191,-4.917982E-05
463.4191,-4.917135E-05
463.5191,-4.914781E-05
463.6191,-4.915251E-05
463.7191,-4.916664E-05
463.8191,-4.913933E-05
463.9191,-4.913839E-05
464.0191,-4.912803E-05
464.1191,-4.911768E-05
464.2191,-4.911673E-05
464.3191,-4.91092E-05
464.4191,-4.91092E-05
464.5191,-4.909036E-05
464.6191,-4.909319E-05
464.7191,-4.909225E-05
464.8192,-4.907436E-05
464.9192,-4.908848E-05
465.0192,-4.906399E-05
465.1192,-4.905081E-05
465.2192,-4.907058E-05
465.3192,-4.904987E-05
465.4192,-4.905646E-05
465.5192,-4.906399E-05
465.6192,-4.904893E-05
465.7192,-4.90122E-05
465.8192,-4.903103E-05
465.9192,-4.904516E-05
466.0192,-4.902727E-05
466.1192,-4.905458E-05
466.2192,-4.903668E-05
466.3192,-4.901691E-05
466.4193,-4.90348E-05
466.5193,-4.901408E-05
466.6193,-4.899995E-05
466.7193,-4.900279E-05
466.8193,-4.900089E-05
466.9193,-4.900843E-05
467.0193,-4.901597E-05
467.1193,-4.900372E-05
467.2193,-4.900184E-05
467.3193,-4.901126E-05
467.4193,-4.899242E-05
467.5193,-4.899713E-05
467.6193,-4.897076E-05
467.7193,-4.898583E-05
467.8193,-4.898583E-05
467.9193,-4.896982E-05
468.0193,-4.897359E-05
468.1194,-4.894063E-05
468.2194,-4.894816E-05
468.3194,-4.895852E-05
468.4194,-4.89331E-05
468.5194,-4.890013E-05
468.6194,-4.891144E-05
468.7194,-4.891425E-05
468.8194,-4.888318E-05
468.9194,-4.892556E-05
469.0194,-4.888412E-05
469.1194,-4.888694E-05
469.2194,-4.886246E-05
469.3194,-4.888601E-05
469.4194,-4.886341E-05
469.5194,-4.886435E-05
469.6194,-4.885587E-05
469.7195,-4.883421E-05
469.8195,-4.886152E-05
469.9195,-4.886246E-05
470.0195,-4.880878E-05
470.1195,-4.881067E-05
470.2195,-4.881443E-05
470.3195,-4.880031E-05
470.4195,-4.881632E-05
470.5195,-4.878524E-05
470.6195,-4.874757E-05
470.7195,-4.8773E-05
470.8195,-4.877771E-05
470.9195,-4.878806E-05
471.0195,-4.876358E-05
471.1195,-4.875511E-05
471.2195,-4.874098E-05
471.3195,-4.874757E-05
471.4196,-4.876264E-05
471.5196,-4.874474E-05
471.6196,-4.873627E-05
471.7196,-4.874569E-05
471.8196,-4.873062E-05
471.9196,-4.870708E-05
472.0196,-4.871744E-05
472.1196,-4.868824E-05
472.2196,-4.870896E-05
472.3196,-4.872403E-05
472.4196,-4.870614E-05
472.5196,-4.867694E-05
472.6196,-4.870614E-05
472.7196,-4.871649E-05
472.8196,-4.866847E-05
472.9196,-4.8676E-05
473.0197,-4.867317E-05
473.1197,-4.863739E-05
473.2197,-4.866093E-05
473.3197,-4.862703E-05
473.4197,-4.862703E-05
473.5197,-4.862797E-05
473.6197,-4.861667E-05
473.7197,-4.860914E-05
473.8197,-4.861196E-05
473.9197,-4.858465E-05
474.0197,-4.857335E-05
474.1197,-4.857053E-05
474.2197,-4.856393E-05
474.3197,-4.856864E-05
474.4197,-4.858371E-05
474.5197,-4.85564E-05
474.6198,-4.853851E-05
474.7198,-4.854792E-05
474.8198,-4.854604E-05
474.9198,-4.854039E-05
475.0198,-4.855452E-05
475.1198,-4.851779E-05
475.2198,-4.849519E-05
475.3198,-4.851685E-05
475.4198,-4.852438E-05
475.5198,-4.850084E-05
475.6198,-4.84933E-05
475.7198,-4.847918E-05
475.8198,-4.846223E-05
475.9198,-4.846788E-05
476.0198,-4.848671E-05
476.1198,-4.846505E-05
476.2198,-4.845186E-05
476.3199,-4.846599E-05
476.4199,-4.845469E-05
476.5199,-4.845658E-05
476.6199,-4.845846E-05
476.7199,-4.843303E-05
476.8199,-4.842644E-05
476.9199,-4.843209E-05
477.0199,-4.842173E-05
477.1199,-4.841514E-05
477.2199,-4.844245E-05
477.3199,-4.83916E-05
477.4199,-4.845564E-05
477.5199,-4.841797E-05
477.6199,-4.84029E-05
477.7199,-4.840384E-05
477.8199,-4.838595E-05
477.92,-4.837935E-05
478.02,-4.836994E-05
478.12,-4.838595E-05
478.22,-4.836805E-05
478.32,-4.836334E-05
478.42,-4.835393E-05
478.52,-4.834545E-05
478.62,-4.83398E-05
478.72,-4.835299E-05
478.82,-4.83398E-05
478.92,-4.831626E-05
479.02,-4.833038E-05
479.12,-4.832662E-05
479.22,-4.830308E-05
479.32,-4.830966E-05
479.42,-4.829648E-05
479.5201,-4.82946E-05
479.6201,-4.830213E-05
479.7201,-4.827483E-05
479.8201,-4.82494E-05
479.9201,-4.826446E-05
480.0201,-4.827859E-05
480.1201,-4.825976E-05
480.2201,-4.826258E-05
480.3201,-4.823621E-05
480.4201,-4.822209E-05
480.5201,-4.825317E-05
480.6201,-4.823998E-05
480.7201,-4.819478E-05
480.8201,-4.820984E-05
480.9201,-4.819854E-05
481.0201,-4.820514E-05
481.1201,-4.819101E-05
481.2202,-4.818253E-05
481.3202,-4.815993E-05
481.4202,-4.816841E-05
481.5202,-4.818253E-05
481.6202,-4.815145E-05
481.7202,-4.815522E-05
481.8202,-4.814392E-05
481.9202,-4.816276E-05
482.0202,-4.816558E-05
482.1202,-4.813733E-05
482.2202,-4.812509E-05
482.3202,-4.812979E-05
482.4202,-4.81411E-05
482.5202,-4.812415E-05
482.6202,-4.810908E-05
482.7202,-4.811473E-05
482.8203,-4.809495E-05
482.9203,-4.809684E-05
483.0203,-4.809307E-05
483.1203,-4.808365E-05
483.2203,-4.808742E-05
483.3203,-4.809025E-05
483.4203,-4.804504E-05
483.5203,-4.807518E-05
483.6203,-4.806764E-05
483.7203,-4.803091E-05
483.8203,-4.80328E-05
483.9203,-4.804881E-05
484.0203,-4.806105E-05
484.1203,-4.802056E-05
484.2203,-4.804504E-05
484.3203,-4.804127E-05
484.4203,-4.800549E-05
484.5204,-4.802244E-05
484.6204,-4.801678E-05
484.7204,-4.799795E-05
484.8204,-4.801208E-05
484.9204,-4.796594E-05
485.0204,-4.800549E-05
485.1204,-4.803374E-05
485.2204,-4.801961E-05
485.3204,-4.797064E-05
485.4204,-4.799607E-05
485.5204,-4.79923E-05
485.6204,-4.795557E-05
485.7204,-4.798853E-05
485.8204,-4.798571E-05
485.9204,-4.795087E-05
486.0204,-4.793768E-05
486.1205,-4.795275E-05
486.2205,-4.793768E-05
486.3205,-4.794145E-05
486.4205,-4.793203E-05
486.5205,-4.788871E-05
486.6205,-4.791132E-05
486.7205,-4.791885E-05
486.8205,-4.788965E-05
486.9205,-4.784539E-05
487.0205,-4.786894E-05
487.1205,-4.789154E-05
487.2205,-4.790661E-05
487.3205,-4.786988E-05
487.4205,-4.784257E-05
487.5205,-4.785198E-05
487.6205,-4.786517E-05
487.7206,-4.784257E-05
487.8206,-4.783221E-05
487.9206,-4.785387E-05
488.0206,-4.782938E-05
488.1206,-4.779454E-05
488.2206,-4.77936E-05
488.3206,-4.782091E-05
488.4206,-4.781714E-05
488.5206,-4.780302E-05
488.6206,-4.779925E-05
488.7206,-4.774745E-05
488.8206,-4.779454E-05
488.9206,-4.778418E-05
489.0206,-4.775875E-05
489.1206,-4.774463E-05
489.2206,-4.774933E-05
489.3206,-4.773898E-05
489.4207,-4.776252E-05
489.5207,-4.771167E-05
489.6207,-4.769283E-05
489.7207,-4.775216E-05
489.8207,-4.776064E-05
489.9207,-4.770037E-05
490.0207,-4.770979E-05
490.1207,-4.770979E-05
490.2207,-4.768718E-05
490.3207,-4.770979E-05
490.4207,-4.769189E-05
490.5207,-4.765139E-05
490.6207,-4.766176E-05
490.7207,-4.768248E-05
490.8207,-4.766176E-05
490.9207,-4.765987E-05
491.0208,-4.765893E-05
491.1208,-4.764104E-05
491.2208,-4.766176E-05
491.3208,-4.763821E-05
491.4208,-4.762785E-05
491.5208,-4.763444E-05
491.6208,-4.763539E-05
491.7208,-4.762785E-05
491.8208,-4.76175E-05
491.9208,-4.76175E-05
492.0208,-4.757041E-05
492.1208,-4.759772E-05
492.2208,-4.760996E-05
492.3208,-4.757982E-05
492.4208,-4.755722E-05
492.5208,-4.757229E-05
492.6208,-4.754875E-05
492.7209,-4.755534E-05
492.8209,-4.757323E-05
492.9209,-4.752897E-05
493.0209,-4.752238E-05
493.1209,-4.753839E-05
493.2209,-4.752709E-05
493.3209,-4.752614E-05
493.4209,-4.751579E-05
493.5209,-4.748188E-05
493.6209,-4.747058E-05
493.7209,-4.750637E-05
493.8209,-4.748848E-05
493.9209,-4.74687E-05
494.0209,-4.746682E-05
494.1209,-4.746023E-05
494.2209,-4.745834E-05
494.321,-4.745645E-05
494.421,-4.744045E-05
494.521,-4.742538E-05
494.621,-4.744139E-05
494.721,-4.741785E-05
494.821,-4.74282E-05
494.921,-4.743668E-05
495.021,-4.737359E-05
495.121,-4.738018E-05
495.221,-4.741879E-05
495.321,-4.739995E-05
495.421,-4.736982E-05
495.521,-4.738206E-05
495.621,-4.740184E-05
495.721,-4.738771E-05
495.821,-4.739054E-05
495.9211,-4.738206E-05
496.0211,-4.738206E-05
496.1211,-4.73896E-05
496.2211,-4.736794E-05
496.3211,-4.732556E-05
496.4211,-4.735004E-05
496.5211,-4.735475E-05
496.6211,-4.731708E-05
496.7211,-4.731897E-05
496.8211,-4.734534E-05
496.9211,-4.735569E-05
497.0211,-4.736511E-05
497.1211,-4.732462E-05
497.2211,-4.731143E-05
497.3211,-4.733309E-05
497.4211,-4.734628E-05
497.5211,-4.730107E-05
497.6212,-4.729825E-05
497.7212,-4.728789E-05
497.8212,-4.727659E-05
497.9212,-4.7286E-05
498.0212,-4.72813E-05
498.1212,-4.725116E-05
498.2212,-4.726434E-05
498.3212,-4.725116E-05
498.4212,-4.723421E-05
498.5212,-4.724174E-05
498.6212,-4.722762E-05
498.7212,-4.721631E-05
498.8212,-4.722291E-05
498.9212,-4.721914E-05
499.0212,-4.720219E-05
499.1212,-4.718618E-05
499.2213,-4.719183E-05
499.3213,-4.717771E-05
499.4213,-4.718524E-05
499.5213,-4.717017E-05
499.6213,-4.712497E-05
499.7213,-4.717677E-05
499.8213,-4.716358E-05
499.9213,-4.713721E-05
500.0213,-4.714474E-05
500.1213,-4.713439E-05
500.2213,-4.713815E-05
500.3213,-4.717394E-05
500.4213,-4.716735E-05
500.5213,-4.711273E-05
500.6213,-4.712403E-05
500.7213,-4.713627E-05
500.8214,-4.711179E-05
500.9214,-4.711461E-05
501.0214,-4.712497E-05
501.1214,-4.709766E-05
501.2214,-4.708824E-05
501.3214,-4.711555E-05
501.4214,-4.708541E-05
501.5214,-4.708824E-05
501.6214,-4.709389E-05
501.7214,-4.706658E-05
501.8214,-4.706093E-05
501.9214,-4.7076E-05
502.0214,-4.706658E-05
502.1214,-4.704869E-05
502.2214,-4.704775E-05
502.3214,-4.701572E-05
502.4214,-4.704398E-05
502.5215,-4.704775E-05
502.6215,-4.701479E-05
502.7215,-4.701102E-05
502.8215,-4.703174E-05
502.9215,-4.70016E-05
503.0215,-4.701008E-05
503.1215,-4.701479E-05
503.2215,-4.69677E-05
503.3215,-4.698277E-05
503.4215,-4.70016E-05
503.5215,-4.697806E-05
503.6215,-4.698089E-05
503.7215,-4.699312E-05
503.8215,-4.697241E-05
503.9215,-4.696958E-05
504.0215,-4.697994E-05
504.1216,-4.697618E-05
504.2216,-4.695075E-05
504.3216,-4.695546E-05
504.4216,-4.697147E-05
504.5216,-4.693945E-05
504.6216,-4.696958E-05
504.7216,-4.693568E-05
504.8216,-4.690743E-05
504.9216,-4.693003E-05
505.0216,-4.696299E-05
505.1216,-4.692155E-05
505.2216,-4.690931E-05
505.3216,-4.694039E-05
505.4216,-4.689707E-05
505.5216,-4.690084E-05
505.6216,-4.69159E-05
505.7216,-4.68933E-05
505.8217,-4.68886E-05
505.9217,-4.686882E-05
506.0217,-4.688295E-05
506.1217,-4.692249E-05
506.2217,-4.689895E-05
506.3217,-4.685752E-05
506.4217,-4.685186E-05
506.5217,-4.685752E-05
506.6217,-4.686222E-05
506.7217,-4.684151E-05
506.8217,-4.684433E-05
506.9217,-4.683491E-05
507.0217,-4.68076E-05
507.1217,-4.68255E-05
507.2217,-4.68076E-05
507.3217,-4.681891E-05
507.4218,-4.679725E-05
507.5218,-4.679536E-05
507.6218,-4.68142E-05
507.7218,-4.681043E-05
507.8218,-4.678029E-05
507.9218,-4.677653E-05
508.0218,-4.677088E-05
508.1218,-4.678029E-05
508.2218,-4.678029E-05
508.3218,-4.675958E-05
508.4218,-4.673791E-05
508.5218,-4.677182E-05
508.6218,-4.675675E-05
508.7218,-4.673133E-05
508.8218,-4.673791E-05
508.9218,-4.67172E-05
509.0219,-4.672473E-05
509.1219,-4.673133E-05
509.2219,-4.672473E-05
509.3219,-4.668612E-05
509.4219,-4.669365E-05
509.5219,-4.669837E-05
509.6219,-4.668989E-05
509.7219,-4.668801E-05
509.8219,-4.669931E-05
509.9219,-4.667953E-05
510.0219,-4.666823E-05
510.1219,-4.669742E-05
510.2219,-4.667388E-05
510.3219,-4.665504E-05
510.4219,-4.666729E-05
510.5219,-4.66607E-05
510.6219,-4.666352E-05
510.722,-4.66607E-05
510.822,-4.662773E-05
510.922,-4.663903E-05
511.022,-4.665881E-05
511.122,-4.663998E-05
511.222,-4.663433E-05
511.322,-4.662397E-05
511.422,-4.66202E-05
511.522,-4.661078E-05
511.622,-4.662208E-05
511.722,-4.660042E-05
511.822,-4.660137E-05
511.922,-4.65976E-05
512.022,-4.658441E-05
512.122,-4.659383E-05
512.222,-4.659383E-05
512.322,-4.657029E-05
512.4219,-4.655805E-05
512.5219,-4.655993E-05
512.6219,-4.655899E-05
512.7219,-4.654769E-05
512.8218,-4.654675E-05
512.9218,-4.654863E-05
513.0218,-4.654015E-05
513.1218,-4.655145E-05
513.2217,-4.654957E-05
513.3217,-4.652415E-05
513.4217,-4.652509E-05
513.5217,-4.65298E-05
513.6216,-4.652415E-05
513.7216,-4.651002E-05
513.8216,-4.65006E-05
513.9216,-4.649212E-05
514.0215,-4.649966E-05
514.1215,-4.651096E-05
514.2215,-4.647424E-05
514.3215,-4.648647E-05
514.4214,-4.649966E-05
514.5214,-4.646764E-05
514.6214,-4.645257E-05
514.7214,-4.649118E-05
514.8214,-4.65006E-05
514.9213,-4.647988E-05
515.0213,-4.648647E-05
515.1213,-4.64667E-05
515.2213,-4.643186E-05
515.3212,-4.647141E-05
515.4212,-4.646011E-05
515.5212,-4.642997E-05
515.6212,-4.642432E-05
515.7211,-4.643845E-05
515.8211,-4.642997E-05
515.9211,-4.644692E-05
516.0211,-4.641867E-05
516.121,-4.638853E-05
516.221,-4.643091E-05
516.321,-4.640925E-05
516.421,-4.637723E-05
516.5209,-4.639701E-05
516.6209,-4.639513E-05
516.7209,-4.637441E-05
516.8209,-4.637912E-05
516.9208,-4.638288E-05
517.0208,-4.635934E-05
517.1208,-4.63923E-05
517.2208,-4.636593E-05
517.3207,-4.636593E-05
517.4207,-4.637158E-05
517.5207,-4.636405E-05
517.6207,-4.636311E-05
517.7206,-4.640643E-05
517.8206,-4.634615E-05
517.9206,-4.634333E-05
518.0206,-4.635934E-05
518.1205,-4.637064E-05
518.2205,-4.634051E-05
518.3205,-4.63245E-05
518.4205,-4.633392E-05
518.5204,-4.632167E-05
518.6204,-4.633203E-05
518.7204,-4.632638E-05
518.8204,-4.629342E-05
518.9203,-4.629907E-05
519.0203,-4.632261E-05
519.1203,-4.628023E-05
519.2203,-4.6284E-05
519.3203,-4.629531E-05
519.4202,-4.630943E-05
519.5202,-4.629059E-05
519.6202,-4.628871E-05
519.7202,-4.627835E-05
519.8201,-4.626423E-05
519.9201,-4.627553E-05
520.0201,-4.626423E-05
520.1201,-4.626423E-05
520.22,-4.624162E-05
520.32,-4.623597E-05
520.42,-4.624351E-05
520.52,-4.625857E-05
520.6199,-4.624257E-05
520.7199,-4.622844E-05
520.8199,-4.624257E-05
520.9199,-4.621337E-05
521.0198,-4.62162E-05
521.1198,-4.623315E-05
521.2198,-4.621055E-05
521.3198,-4.618136E-05
521.4197,-4.620019E-05
521.5197,-4.61936E-05
521.6197,-4.61823E-05
521.7197,-4.618324E-05
521.8196,-4.617476E-05
521.9196,-4.618136E-05
522.0196,-4.620961E-05
522.1196,-4.620019E-05
522.2195,-4.61757E-05
522.3195,-4.616158E-05
522.4195,-4.615404E-05
522.5195,-4.61644E-05
522.6194,-4.61644E-05
522.7194,-4.615404E-05
522.8194,-4.614557E-05
522.9194,-4.614086E-05
523.0193,-4.617759E-05
523.1193,-4.616723E-05
523.2193,-4.616346E-05
523.3193,-4.613804E-05
523.4193,-4.616064E-05
523.5192,-4.613709E-05
523.6192,-4.614463E-05
523.7192,-4.612108E-05
523.8192,-4.60966E-05
523.9191,-4.612391E-05
524.0191,-4.612014E-05
524.1191,-4.609942E-05
524.2191,-4.610507E-05
524.319,-4.60787E-05
524.419,-4.60966E-05
524.519,-4.609377E-05
524.619,-4.608059E-05
524.7189,-4.604951E-05
524.8189,-4.608342E-05
524.9189,-4.607776E-05
525.0189,-4.606929E-05
525.1188,-4.606552E-05
525.2188,-4.605139E-05
525.3188,-4.604763E-05
525.4188,-4.605987E-05
525.5187,-4.605893E-05
525.6187,-4.605045E-05
525.7187,-4.604951E-05
525.8187,-4.60448E-05
525.9186,-4.603633E-05
526.0186,-4.607494E-05
526.1186,-4.603538E-05
526.2186,-4.599018E-05
526.3185,-4.602973E-05
526.4185,-4.603444E-05
526.5185,-4.60335E-05
526.6185,-4.603538E-05
526.7184,-4.602503E-05
526.8184,-4.59996E-05
526.9184,-4.601278E-05
527.0184,-4.601749E-05
527.1183,-4.600054E-05
527.2183,-4.600996E-05
527.3183,-4.600807E-05
527.4183,-4.598642E-05
527.5182,-4.600337E-05
527.6182,-4.600148E-05
527.7182,-4.597794E-05
527.8182,-4.596853E-05
527.9182,-4.597982E-05
528.0181,-4.596005E-05
528.1181,-4.596099E-05
528.2181,-4.595063E-05
528.3181,-4.593085E-05
528.418,-4.598924E-05
528.518,-4.597041E-05
528.618,-4.591955E-05
528.718,-4.595345E-05
528.8179,-4.594404E-05
528.9179,-4.593274E-05
529.0179,-4.594121E-05
529.1179,-4.591108E-05
529.2178,-4.593462E-05
529.3178,-4.594121E-05
529.4178,-4.594215E-05
529.5178,-4.589789E-05
529.6177,-4.592709E-05
529.7177,-4.59318E-05
529.8177,-4.588283E-05
529.9177,-4.587811E-05
530.0176,-4.592615E-05
530.1176,-4.592426E-05
530.2176,-4.591202E-05
530.3176,-4.587811E-05
530.4175,-4.588E-05
530.5175,-4.588848E-05
530.6175,-4.591296E-05
530.7175,-4.589036E-05
530.8174,-4.586023E-05
530.9174,-4.588659E-05
531.0174,-4.59139E-05
531.1174,-4.589601E-05
531.2173,-4.587246E-05
531.3173,-4.587718E-05
531.4173,-4.585646E-05
531.5173,-4.587435E-05
531.6172,-4.588659E-05
531.7172,-4.585269E-05
531.8172,-4.586964E-05
531.9172,-4.585928E-05
532.0172,-4.58687E-05
532.1171,-4.584798E-05
532.2171,-4.58508E-05
532.3171,-4.585457E-05
532.4171,-4.585928E-05
532.517,-4.587058E-05
532.617,-4.58348E-05
532.717,-4.583668E-05
532.817,-4.584986E-05
532.9169,-4.583009E-05
533.0169,-4.58574E-05
533.1169,-4.582538E-05
533.2169,-4.582444E-05
533.3168,-4.583762E-05
533.4168,-4.583103E-05
533.5168,-4.581973E-05
533.6168,-4.582255E-05
533.7167,-4.581691E-05
533.8167,-4.579242E-05
533.9167,-4.583762E-05
534.0167,-4.582538E-05
534.1166,-4.579995E-05
534.2166,-4.580184E-05
534.3166,-4.579148E-05
534.4166,-4.578677E-05
534.5165,-4.580749E-05
534.6165,-4.581785E-05
534.7165,-4.577641E-05
534.8165,-4.579054E-05
534.9164,-4.577547E-05
535.0164,-4.577076E-05
535.1164,-4.579901E-05
535.2164,-4.579713E-05
535.3163,-4.5783E-05
535.4163,-4.578865E-05
535.5163,-4.576793E-05
535.6163,-4.577453E-05
535.7162,-4.577829E-05
535.8162,-4.576605E-05
535.9162,-4.575569E-05
536.0162,-4.575758E-05
536.1161,-4.576134E-05
536.2161,-4.573215E-05
536.3161,-4.575381E-05
536.4161,-4.575004E-05
536.5161,-4.572179E-05
536.616,-4.573026E-05
536.716,-4.574062E-05
536.816,-4.573121E-05
536.916,-4.572932E-05
537.0159,-4.571991E-05
537.1159,-4.571237E-05
537.2159,-4.571237E-05
537.3159,-4.574062E-05
537.4158,-4.573309E-05
537.5158,-4.571802E-05
537.6158,-4.573497E-05
537.7158,-4.570296E-05
537.8157,-4.570107E-05
537.9157,-4.573026E-05
538.0157,-4.569825E-05
538.1157,-4.570107E-05
538.2156,-4.572744E-05
538.3156,-4.569542E-05
538.4156,-4.567282E-05
538.5156,-4.57039E-05
538.6155,-4.572179E-05
538.7155,-4.570013E-05
538.8155,-4.56813E-05
538.9155,-4.569448E-05
539.0154,-4.565492E-05
539.1154,-4.566622E-05
539.2154,-4.565492E-05
539.3154,-4.56408E-05
539.4153,-4.566622E-05
539.5153,-4.564551E-05
539.6153,-4.563139E-05
539.7153,-4.568883E-05
539.8152,-4.566246E-05
539.9152,-4.564551E-05
540.0152,-4.565775E-05
540.1152,-4.566622E-05
540.2151,-4.562479E-05
540.3151,-4.565116E-05
540.4151,-4.566246E-05
540.5151,-4.564739E-05
540.6151,-4.560408E-05
540.715,-4.564268E-05
540.815,-4.564927E-05
540.915,-4.56521E-05
541.015,-4.562573E-05
541.1149,-4.563986E-05
541.2149,-4.563515E-05
541.3149,-4.565116E-05
541.4149,-4.562573E-05
541.5148,-4.561255E-05
541.6148,-4.563797E-05
541.7148,-4.564456E-05
541.8148,-4.561349E-05
541.9147,-4.560596E-05
542.0147,-4.559465E-05
542.1147,-4.55956E-05
542.2147,-4.561161E-05
542.3146,-4.560501E-05
542.4146,-4.558335E-05
542.5146,-4.558712E-05
542.6146,-4.55777E-05
542.7145,-4.558053E-05
542.8145,-4.55777E-05
542.9145,-4.55664E-05
543.0145,-4.556358E-05
543.1144,-4.556264E-05
543.2144,-4.554851E-05
543.3144,-4.555981E-05
543.4144,-4.555416E-05
543.5143,-4.554004E-05
543.6143,-4.552873E-05
543.7143,-4.554004E-05
543.8143,-4.552967E-05
543.9142,-4.550519E-05
544.0142,-4.551084E-05
544.1142,-4.551649E-05
544.2142,-4.551461E-05
544.3141,-4.550707E-05
544.4141,-4.548541E-05
544.5141,-4.548824E-05
544.6141,-4.548259E-05
544.7141,-4.549107E-05
544.814,-4.549577E-05
544.914,-4.548447E-05
545.014,-4.5476E-05
545.114,-4.548071E-05
545.2139,-4.548635E-05
545.3139,-4.548447E-05
545.4139,-4.545434E-05
545.5139,-4.546658E-05
545.6138,-4.548353E-05
545.7138,-4.545999E-05
545.8138,-4.543268E-05
545.9138,-4.547129E-05
546.0137,-4.548165E-05
546.1137,-4.546846E-05
546.2137,-4.54647E-05
546.3137,-4.545151E-05
546.4136,-4.542326E-05
546.5136,-4.54873E-05
546.6136,-4.545716E-05
546.7136,-4.543173E-05
546.8135,-4.543833E-05
546.9135,-4.543362E-05
547.0135,-4.543833E-05
547.1135,-4.543833E-05
547.2134,-4.542797E-05
547.3134,-4.541102E-05
547.4134,-4.5476E-05
547.5134,-4.545904E-05
547.6133,-4.542138E-05
547.7133,-4.544303E-05
547.8133,-4.542797E-05
547.9133,-4.539312E-05
548.0132,-4.543645E-05
548.1132,-4.540442E-05
548.2132,-4.538559E-05
548.3132,-4.542703E-05
548.4131,-4.542043E-05
548.5131,-4.537617E-05
548.6131,-4.538465E-05
548.7131,-4.539218E-05
548.813,-4.539877E-05
548.913,-4.542138E-05
549.013,-4.539972E-05
549.113,-4.537335E-05
549.213,-4.53903E-05
549.3129,-4.539312E-05
549.4129,-4.536581E-05
549.5129,-4.538842E-05
549.6129,-4.537806E-05
549.7128,-4.536299E-05
549.8128,-4.538559E-05
549.9128,-4.53903E-05
550.0128,-4.536864E-05
550.1127,-4.53677E-05
550.2127,-4.53677E-05
550.3127,-4.533568E-05
550.4127,-4.535169E-05
550.5126,-4.537241E-05
550.6126,-4.532815E-05
550.7126,-4.534133E-05
550.8126,-4.536393E-05
550.9125,-4.534133E-05
551.0125,-4.533285E-05
551.1125,-4.534604E-05
551.2125,-4.53272E-05
551.3124,-4.532155E-05
551.4124,-4.532344E-05
551.5124,-4.528671E-05
551.6124,-4.529707E-05
551.7123,-4.533662E-05
551.8123,-4.534227E-05
551.9123,-4.532155E-05
552.0123,-4.53225E-05
552.1122,-4.529895E-05
552.2122,-4.528953E-05
552.3122,-4.53225E-05
552.4122,-4.528671E-05
552.5121,-4.526128E-05
552.6121,-4.528671E-05
552.7121,-4.528388E-05
552.8121,-4.529707E-05
552.912,-4.528577E-05
553.012,-4.528577E-05
553.112,-4.524151E-05
553.212,-4.52594E-05
553.312,-4.528859E-05
553.4119,-4.526599E-05
553.5119,-4.524716E-05
553.6119,-4.525846E-05
553.7119,-4.523397E-05
553.8118,-4.523491E-05
553.9118,-4.526128E-05
554.0118,-4.524527E-05
554.1118,-4.521891E-05
554.2117,-4.525752E-05
554.3117,-4.523868E-05
554.4117,-4.523774E-05
554.5117,-4.524527E-05
554.6116,-4.522456E-05
554.7116,-4.522361E-05
554.8116,-4.524622E-05
554.9116,-4.521514E-05
555.0115,-4.521326E-05
555.1115,-4.523491E-05
555.2115,-4.523868E-05
555.3115,-4.52076E-05
555.4114,-4.521796E-05
555.5114,-4.523303E-05
555.6114,-4.524527E-05
555.7114,-4.521891E-05
555.8113,-4.521231E-05
555.9113,-4.521608E-05
556.0113,-4.521608E-05
556.1113,-4.520289E-05
556.2112,-4.517841E-05
556.3112,-4.522079E-05
556.4112,-4.520854E-05
556.5112,-4.517841E-05
556.6111,-4.520854E-05
556.7111,-4.521231E-05
556.8111,-4.520949E-05
556.9111,-4.518877E-05
557.011,-4.523115E-05
557.111,-4.526222E-05
557.211,-4.522361E-05
557.311,-4.522173E-05
557.4109,-4.520101E-05
557.5109,-4.521702E-05
557.6109,-4.521326E-05
557.7109,-4.518029E-05
557.8109,-4.517558E-05
557.9108,-4.519253E-05
558.0108,-4.517558E-05
558.1108,-4.517465E-05
558.2108,-4.518688E-05
558.3107,-4.515298E-05
558.4107,-4.515581E-05
558.5107,-4.517276E-05
558.6107,-4.51445E-05
558.7106,-4.515675E-05
558.8106,-4.51445E-05
558.9106,-4.513509E-05
559.0106,-4.513697E-05
559.1105,-4.514545E-05
559.2105,-4.512191E-05
559.3105,-4.512379E-05
559.4105,-4.513038E-05
559.5104,-4.510307E-05
559.6104,-4.511343E-05
559.7104,-4.514074E-05
559.8104,-4.510589E-05
559.9103,-4.510496E-05
560.0103,-4.51172E-05
560.1103,-4.510966E-05
560.2103,-4.510307E-05
560.3102,-4.511249E-05
560.4102,-4.510213E-05
560.5102,-4.508612E-05
560.6102,-4.511908E-05
560.7101,-4.510119E-05
560.8101,-4.508424E-05
560.9101,-4.510307E-05
561.0101,-4.509459E-05
561.11,-4.507482E-05
561.21,-4.508895E-05
561.31,-4.508801E-05
561.41,-4.507576E-05
561.5099,-4.507482E-05
561.6099,-4.507105E-05
561.7099,-4.50767E-05
561.8099,-4.507011E-05
561.9099,-4.505881E-05
562.0098,-4.505975E-05
562.1098,-4.507105E-05
562.2098,-4.506634E-05
562.3098,-4.505222E-05
562.4097,-4.506258E-05
562.5097,-4.504845E-05
562.6097,-4.505222E-05
562.7097,-4.504939E-05
562.8096,-4.505033E-05
562.9096,-4.505787E-05
563.0096,-4.505127E-05
563.1096,-4.504657E-05
563.2095,-4.502491E-05
563.3095,-4.50315E-05
563.4095,-4.504657E-05
563.5095,-4.502773E-05
563.6094,-4.504092E-05
563.7094,-4.505504E-05
563.8094,-4.502679E-05
563.9094,-4.504563E-05
564.0093,-4.50541E-05
564.1093,-4.503621E-05
564.2093,-4.503244E-05
564.3093,-4.504374E-05
564.4092,-4.503997E-05
564.5092,-4.501549E-05
564.6092,-4.504468E-05
564.7092,-4.501549E-05
564.8091,-4.502114E-05
564.9091,-4.501926E-05
565.0091,-4.502397E-05
565.1091,-4.50089E-05
565.209,-4.501738E-05
565.309,-4.499948E-05
565.409,-4.500231E-05
565.509,-4.500042E-05
565.6089,-4.500231E-05
565.7089,-4.499854E-05
565.8089,-4.498724E-05
565.9089,-4.499383E-05
566.0089,-4.498441E-05
566.1088,-4.498818E-05
566.2088,-4.498065E-05
566.3088,-4.498724E-05
566.4088,-4.498724E-05
566.5087,-4.500042E-05
566.6087,-4.499383E-05
566.7087,-4.498159E-05
566.8087,-4.49976E-05
566.9086,-4.497782E-05
567.0086,-4.498724E-05
567.1086,-4.49976E-05
567.2086,-4.496746E-05
567.3085,-4.497029E-05
567.4085,-4.4991E-05
567.5085,-4.495993E-05
567.6085,-4.497029E-05
567.7084,-4.498724E-05
567.8084,-4.496464E-05
567.9084,-4.494298E-05
568.0084,-4.4975E-05
568.1083,-4.496087E-05
568.2083,-4.495145E-05
568.3083,-4.494298E-05
568.4083,-4.495804E-05
568.5082,-4.493921E-05
568.6082,-4.494581E-05
568.7082,-4.494674E-05
568.8082,-4.493168E-05
568.9081,-4.492038E-05
569.0081,-4.495522E-05
569.1081,-4.49232E-05
569.2081,-4.491096E-05
569.308,-4.495428E-05
569.408,-4.495993E-05
569.508,-4.493827E-05
569.608,-4.492885E-05
569.7079,-4.494486E-05
569.8079,-4.491943E-05
569.9079,-4.493921E-05
570.0079,-4.491849E-05
570.1078,-4.492791E-05
570.2078,-4.492885E-05
570.3078,-4.49119E-05
570.4078,-4.491378E-05
570.5078,-4.493262E-05
570.6077,-4.489307E-05
570.7077,-4.49119E-05
570.8077,-4.493356E-05
570.9077,-4.48893E-05
571.0076,-4.487988E-05
571.1076,-4.493074E-05
571.2076,-4.491661E-05
571.3076,-4.492508E-05
571.4075,-4.490154E-05
571.5075,-4.489495E-05
571.6075,-4.488553E-05
571.7075,-4.493544E-05
571.8074,-4.491661E-05
571.9074,-4.48827E-05
572.0074,-4.489683E-05
572.1074,-4.489683E-05
572.2073,-4.488742E-05
572.3073,-4.490154E-05
572.4073,-4.488836E-05
572.5073,-4.486199E-05
572.6072,-4.488553E-05
572.7072,-4.4894E-05
572.8072,-4.487046E-05
572.9072,-4.486764E-05
573.0071,-4.486387E-05
573.1071,-4.486764E-05
573.2071,-4.487612E-05
573.3071,-4.486858E-05
573.407,-4.485445E-05
573.507,-4.485822E-05
573.607,-4.487517E-05
573.707,-4.487046E-05
573.8069,-4.4878E-05
573.9069,-4.486293E-05
574.0069,-4.48149E-05
574.1069,-4.486105E-05
574.2068,-4.486011E-05
574.3068,-4.485257E-05
574.4068,-4.484033E-05
574.5068,-4.48714E-05
574.6068,-4.490531E-05
574.7067,-4.484598E-05
574.8067,-4.484409E-05
574.9067,-4.485069E-05
575.0067,-4.485351E-05
575.1066,-4.48488E-05
575.2066,-4.483091E-05
575.3066,-4.483374E-05
575.4066,-4.485163E-05
575.5065,-4.484315E-05
575.6065,-4.483186E-05
575.7065,-4.483374E-05
575.8065,-4.481867E-05
575.9064,-4.482903E-05
576.0064,-4.484974E-05
576.1064,-4.483374E-05
576.2064,-4.480737E-05
576.3063,-4.482243E-05
576.4063,-4.481584E-05
576.5063,-4.480266E-05
576.6063,-4.481114E-05
576.7062,-4.481679E-05
576.8062,-4.479983E-05
576.9062,-4.48149E-05
577.0062,-4.481019E-05
577.1061,-4.479136E-05
577.2061,-4.483374E-05
577.3061,-4.480454E-05
577.4061,-4.479701E-05
577.506,-4.481584E-05
577.606,-4.479042E-05
577.706,-4.479607E-05
577.806,-4.480737E-05
577.9059,-4.478948E-05
578.0059,-4.478476E-05
578.1059,-4.480266E-05
578.2059,-4.47923E-05
578.3058,-4.477064E-05
578.4058,-4.480643E-05
578.5058,-4.478759E-05
578.6058,-4.479042E-05
578.7057,-4.478382E-05
578.8057,-4.477817E-05
578.9057,-4.478382E-05
579.0057,-4.481679E-05
579.1057,-4.480266E-05
579.2056,-4.477347E-05
579.3056,-4.478194E-05
579.4056,-4.478854E-05
579.5056,-4.479136E-05
579.6055,-4.479607E-05
579.7055,-4.479983E-05
579.8055,-4.475463E-05
579.9055,-4.478759E-05
580.0054,-4.47923E-05
580.1054,-4.477158E-05
580.2054,-4.478006E-05
580.3054,-4.478382E-05
580.4053,-4.475745E-05
580.5053,-4.476499E-05
580.6053,-4.478665E-05
580.7053,-4.477723E-05
580.8052,-4.476123E-05
580.9052,-4.475463E-05
581.0052,-4.475086E-05
581.1052,-4.476876E-05
581.2051,-4.478665E-05
581.3051,-4.475275E-05
581.4051,-4.474992E-05
581.5051,-4.477629E-05
581.605,-4.475651E-05
581.705,-4.475934E-05
581.805,-4.479418E-05
581.905,-4.474427E-05
582.0049,-4.475369E-05
582.1049,-4.477064E-05
582.2049,-4.478571E-05
582.3049,-4.476123E-05
582.4048,-4.47697E-05
582.5048,-4.476123E-05
582.6048,-4.474615E-05
582.7048,-4.477535E-05
582.8047,-4.476217E-05
582.9047,-4.476405E-05
583.0047,-4.476688E-05
583.1047,-4.477252E-05
583.2047,-4.474615E-05
583.3046,-4.475745E-05
583.4046,-4.475275E-05
583.5046,-4.473862E-05
583.6046,-4.474898E-05
583.7045,-4.47584E-05
583.8045,-4.474145E-05
583.9045,-4.47471E-05
584.0045,-4.478006E-05
584.1044,-4.475086E-05
584.2044,-4.474239E-05
584.3044,-4.473862E-05
584.4044,-4.475181E-05
584.5043,-4.477817E-05
584.6043,-4.476593E-05
584.7043,-4.475557E-05
584.8043,-4.47471E-05
584.9042,-4.47584E-05
585.0042,-4.476593E-05
585.1042,-4.475745E-05
585.2042,-4.476123E-05
585.3041,-4.474898E-05
585.4041,-4.475369E-05
585.5041,-4.476217E-05
585.6041,-4.47245E-05
585.704,-4.474427E-05
585.804,-4.476311E-05
585.904,-4.474145E-05
586.004,-4.475181E-05
586.1039,-4.476593E-05
586.2039,-4.47405E-05
586.3039,-4.473203E-05
586.4039,-4.475086E-05
586.5038,-4.475651E-05
586.6038,-4.472638E-05
586.7038,-4.473674E-05
586.8038,-4.47292E-05
586.9037,-4.470943E-05
587.0037,-4.475275E-05
587.1037,-4.473014E-05
587.2037,-4.472355E-05
587.3036,-4.472544E-05
587.4036,-4.47292E-05
587.5036,-4.473203E-05
587.6036,-4.47292E-05
587.7036,-4.474804E-05
587.8035,-4.47245E-05
587.9035,-4.471979E-05
588.0035,-4.47292E-05
588.1035,-4.472355E-05
588.2034,-4.47292E-05
588.3034,-4.471319E-05
588.4034,-4.469907E-05
588.5034,-4.472167E-05
588.6033,-4.473957E-05
588.7033,-4.471979E-05
588.8033,-4.473203E-05
588.9033,-4.473109E-05
589.0032,-4.470001E-05
589.1032,-4.47292E-05
589.2032,-4.47471E-05
589.3032,-4.474333E-05
589.4031,-4.472355E-05
589.5031,-4.473768E-05
589.6031,-4.470754E-05
589.7031,-4.473297E-05
589.803,-4.474333E-05
589.903,-4.472732E-05
590.003,-4.471131E-05
590.103,-4.473674E-05
590.2029,-4.470943E-05
590.3029,-4.468871E-05
590.4029,-4.472261E-05
590.5029,-4.474333E-05
590.6028,-4.472732E-05
590.7028,-4.472732E-05
590.8028,-4.474145E-05
590.9028,-4.473392E-05
591.0027,-4.474804E-05
591.1027,-4.473297E-05
591.2027,-4.473957E-05
591.3027,-4.47405E-05
591.4026,-4.474427E-05
591.5026,-4.472355E-05
591.6026,-4.474804E-05
591.7026,-4.474427E-05
591.8026,-4.473014E-05
591.9025,-4.473674E-05
592.0025,-4.47405E-05
592.1025,-4.474992E-05
592.2025,-4.475463E-05
592.3024,-4.474992E-05
592.4024,-4.475557E-05
592.5024,-4.476123E-05
592.6024,-4.4781E-05
592.7023,-4.47584E-05
592.8023,-4.475086E-05
592.9023,-4.476311E-05
593.0023,-4.477817E-05
593.1022,-4.477723E-05
593.2022,-4.477064E-05
593.3022,-4.475745E-05
593.4022,-4.474804E-05
593.5021,-4.47584E-05
593.6021,-4.47471E-05
593.7021,-4.474427E-05
593.8021,-4.475557E-05
593.902,-4.473674E-05
594.002,-4.475086E-05
594.102,-4.478571E-05
594.202,-4.475275E-05
594.3019,-4.47358E-05
594.4019,-4.477441E-05
594.5019,-4.475463E-05
594.6019,-4.474615E-05
594.7018,-4.477911E-05
594.8018,-4.475745E-05
594.9018,-4.47405E-05
595.0018,-4.476688E-05
595.1017,-4.475934E-05
595.2017,-4.474521E-05
595.3017,-4.477441E-05
595.4017,-4.476782E-05
595.5016,-4.475275E-05
595.6016,-4.477723E-05
595.7016,-4.477252E-05
595.8016,-4.475275E-05
595.9016,-4.478665E-05
596.0015,-4.477347E-05
596.1015,-4.476028E-05
596.2015,-4.477441E-05
596.3015,-4.476405E-05
596.4014,-4.47584E-05
596.5014,-4.476028E-05
596.6014,-4.477158E-05
596.7014,-4.477347E-05
596.8013,-4.477158E-05
596.9013,-4.476123E-05
597.0013,-4.475369E-05
597.1013,-4.476593E-05
597.2012,-4.477158E-05
597.3012,-4.476499E-05
597.4012,-4.477817E-05
597.5012,-4.477911E-05
597.6011,-4.475463E-05
597.7011,-4.477629E-05
597.8011,-4.479889E-05
597.9011,-4.476499E-05
598.001,-4.477347E-05
598.101,-4.478288E-05
598.201,-4.477252E-05
598.301,-4.477911E-05
598.4009,-4.480266E-05
598.5009,-4.478194E-05
598.6009,-4.476217E-05
598.7009,-4.480925E-05
598.8008,-4.478382E-05
598.9008,-4.477347E-05
599.0008,-4.479607E-05
599.1008,-4.4781E-05
599.2007,-4.477252E-05
599.3007,-4.482149E-05
599.4007,-4.47923E-05
599.5007,-4.477629E-05
599.6006,-4.481114E-05
599.7006,-4.478854E-05
599.8006,-4.479513E-05
599.9006,-4.481208E-05
600.0005,-4.479042E-05
