EXPID. 0895
[电化学]: i-t : @ 0(V) X 600(sec)
起始电位 (V),0
静置时间 (秒),0
运行时间 (秒),600
记录间隔,0.1
电解液 信息:
HNO3,0.4
0.1,-0.01005814
0.2,-0.01005814
0.3,-0.01005814
0.4,-0.01005814
0.5,-0.01005814
0.6,-0.01005814
0.7,-0.01005814
0.8000001,-0.01005814
0.9000001,-0.01005814
1,-0.01005814
1.1,-0.01005814
1.2,-0.01005814
1.3,-0.01005814
1.4,-0.01005814
1.5,-0.008585876
1.6,0.003332624
1.7,0.005231901
1.8,0.006905584
1.9,0.002981883
2,-0.0008427929
2.1,-0.002105032
2.2,-0.00277125
2.3,-0.003245987
2.4,-0.003589305
2.5,-0.003793273
2.6,-0.003891711
2.7,-0.00391459
2.799999,-0.003876216
2.899999,-0.003826561
2.999999,-0.003762562
3.099999,-0.003689797
3.199999,-0.003623381
3.299999,-0.003554951
3.399999,-0.003484193
3.499999,-0.00342357
3.599999,-0.003358113
3.699999,-0.003296608
3.799999,-0.00324153
3.899998,-0.00318167
3.999998,-0.003124992
4.099998,-0.003067844
4.199998,-0.003014334
4.299998,-0.002963539
4.399998,-0.002906025
4.499998,-0.002854437
4.599998,-0.00280068
4.699998,-0.002741949
4.799998,-0.002689066
4.899998,-0.00263739
4.999998,-0.002582258
5.099998,-0.002534466
5.199997,-0.002489448
5.299997,-0.002441447
5.399997,-0.002397233
5.499997,-0.002356453
5.599997,-0.002315474
5.699997,-0.002277251
5.799997,-0.002242073
5.899997,-0.002205693
5.999997,-0.002172277
6.099997,-0.002140817
6.199996,-0.002109687
6.299996,-0.002080862
6.399996,-0.002053691
6.499996,-0.002025565
6.599996,-0.002001044
6.699996,-0.001976834
6.799996,-0.00195376
6.899996,-0.001932407
6.999996,-0.001911064
7.099996,-0.001889999
7.199996,-0.001870387
7.299995,-0.001850586
7.399995,-0.001831728
7.499995,-0.001814089
7.599995,-0.001796524
7.699995,-0.001778407
7.799995,-0.001762214
7.899995,-0.001746329
7.999995,-0.001729786
8.099995,-0.001715037
8.199995,-0.0016998
8.299995,-0.001685352
8.399996,-0.001671153
8.499996,-0.001657613
8.599997,-0.001644007
8.699997,-0.001631087
8.799997,-0.001618018
8.899998,-0.001605188
8.999998,-0.001593191
9.099998,-0.001581005
9.199999,-0.001569147
9.299999,-0.001557846
9.4,-0.001546514
9.5,-0.001535732
9.6,-0.001525195
9.700001,-0.00151439
9.800001,-0.001504248
9.900002,-0.0014938
10,-0.001484088
10.1,-0.001475321
10.2,-0.001464785
10.3,-0.00145573
10.4,-0.001446585
10.5,-0.001437424
10.6,-0.001428033
10.7,-0.001419318
10.8,-0.001410257
10.90001,-0.001401619
11.00001,-0.001393431
11.10001,-0.001384912
11.20001,-0.001376713
11.30001,-0.001369392
11.40001,-0.001360818
11.50001,-0.001353429
11.60001,-0.001345741
11.70001,-0.001337984
11.80001,-0.00133064
11.90001,-0.001322986
12.00001,-0.001315654
12.10001,-0.0013088
12.20001,-0.001301587
12.30001,-0.001294762
12.40001,-0.00128791
12.50001,-0.001281269
12.60001,-0.001274265
12.70001,-0.001268223
12.80001,-0.001261253
12.90001,-0.001254796
13.00001,-0.001248417
13.10001,-0.001242129
13.20001,-0.001235454
13.30001,-0.001229641
13.40001,-0.001223378
13.50002,-0.001217477
13.60002,-0.001211419
13.70002,-0.001205396
13.80002,-0.001199415
13.90002,-0.001193758
14.00002,-0.001188026
14.10002,-0.001182274
14.20002,-0.001176857
14.30002,-0.001171335
14.40002,-0.001165422
14.50002,-0.001160401
14.60002,-0.001154869
14.70002,-0.001149528
14.80002,-0.00114429
14.90002,-0.001138872
15.00002,-0.001134013
15.10002,-0.001128832
15.20002,-0.001124231
15.30002,-0.001119153
15.40002,-0.001114105
15.50002,-0.001109743
15.60002,-0.00110468
15.70002,-0.001099843
15.80002,-0.001095496
15.90002,-0.001090925
16.00002,-0.001086296
16.10003,-0.001082013
16.20003,-0.001077482
16.30003,-0.001072782
16.40003,-0.001069226
16.50003,-0.001064584
16.60003,-0.001060036
16.70003,-0.001055975
16.80003,-0.00105163
16.90003,-0.001047168
17.00003,-0.001043093
17.10003,-0.001038747
17.20003,-0.001034563
17.30003,-0.001030464
17.40003,-0.001026322
17.50003,-0.001022313
17.60003,-0.001018387
17.70003,-0.001014115
17.80003,-0.001010359
17.90003,-0.001006594
18.00003,-0.001002601
18.10003,-0.0009985976
18.20003,-0.0009948052
18.30003,-0.0009910684
18.40003,-0.0009872479
18.50003,-0.0009836184
18.60003,-0.0009798977
18.70004,-0.0009763634
18.80004,-0.0009726076
18.90004,-0.0009692439
19.00004,-0.0009660646
19.10004,-0.0009626084
19.20004,-0.0009587934
19.30004,-0.0009555295
19.40004,-0.0009521702
19.50004,-0.0009486491
19.60004,-0.0009452635
19.70004,-0.0009418611
19.80004,-0.0009384238
19.90004,-0.00093514
20.00004,-0.0009317488
20.10004,-0.0009285959
20.20004,-0.0009253874
20.30004,-0.0009220198
20.40004,-0.0009187473
20.50004,-0.0009156122
20.60004,-0.0009124518
20.70004,-0.000909378
20.80004,-0.0009062797
20.90004,-0.0009031371
21.00004,-0.0009002083
21.10004,-0.0008970639
21.20004,-0.0008939317
21.30005,-0.000891147
21.40005,-0.0008881344
21.50005,-0.0008850464
21.60005,-0.000882226
21.70005,-0.0008793471
21.80005,-0.0008762394
21.90005,-0.0008732588
22.00005,-0.0008704901
22.10005,-0.0008674785
22.20005,-0.0008648605
22.30005,-0.0008620691
22.40005,-0.000858952
22.50005,-0.0008563066
22.60005,-0.0008536868
22.70005,-0.0008509275
22.80005,-0.0008481467
22.90005,-0.0008454683
23.00005,-0.0008427363
23.10005,-0.0008400241
23.20005,-0.0008373732
23.30005,-0.0008346667
23.40005,-0.0008320383
23.50005,-0.0008294363
23.60005,-0.0008267844
23.70005,-0.0008243141
23.80005,-0.0008217678
23.90005,-0.0008190367
24.00006,-0.0008166909
24.10006,-0.0008141821
24.20006,-0.0008116442
24.30006,-0.0008092606
24.40006,-0.0008068865
24.50006,-0.0008043692
24.60006,-0.0008020592
24.70006,-0.0007996945
24.80006,-0.0007973854
24.90006,-0.0007949097
25.00006,-0.0007926853
25.10006,-0.0007902292
25.20006,-0.0007878061
25.30006,-0.00078548
25.40006,-0.0007833479
25.50006,-0.0007809908
25.60006,-0.0007786186
25.70006,-0.0007764884
25.80006,-0.0007741557
25.90006,-0.0007720566
26.00006,-0.0007699556
26.10006,-0.0007676888
26.20006,-0.0007658327
26.30006,-0.0007636563
26.40006,-0.0007613501
26.50006,-0.0007595222
26.60007,-0.0007574974
26.70007,-0.0007552184
26.80007,-0.0007532992
26.90007,-0.0007513469
27.00007,-0.000748842
27.10007,-0.0007470226
27.20007,-0.0007451589
27.30007,-0.0007429467
27.40007,-0.0007410444
27.50007,-0.0007390027
27.60007,-0.0007367962
27.70007,-0.0007348987
27.80007,-0.0007327609
27.90007,-0.0007308784
28.00007,-0.0007291372
28.10007,-0.0007272829
28.20007,-0.0007252526
28.30007,-0.0007232749
28.40007,-0.0007213801
28.50007,-0.0007193799
28.60007,-0.0007176415
28.70007,-0.0007156893
28.80007,-0.0007137624
28.90007,-0.0007118244
29.00007,-0.0007101623
29.10007,-0.0007081799
29.20008,-0.0007062927
29.30008,-0.0007043771
29.40008,-0.0007026199
29.50008,-0.0007007016
29.60008,-0.0006989189
29.70008,-0.0006973971
29.80008,-0.0006953658
29.90008,-0.0006936329
30.00008,-0.0006918192
30.10008,-0.0006900968
30.20008,-0.0006883884
30.30008,-0.000686682
30.40008,-0.0006849954
30.50008,-0.0006833945
30.60008,-0.0006816617
30.70008,-0.0006799129
30.80008,-0.0006783431
30.90008,-0.0006766602
31.00008,-0.000674965
31.10008,-0.0006732803
31.20008,-0.0006715984
31.30008,-0.0006697855
31.40008,-0.000668128
31.50008,-0.0006665648
31.60008,-0.0006648536
31.70008,-0.0006632527
31.80009,-0.000661648
31.90009,-0.0006599406
32.00008,-0.000658416
32.10008,-0.0006568056
32.20008,-0.000655167
32.30008,-0.0006536546
32.40008,-0.0006520574
32.50008,-0.000650415
32.60007,-0.0006489338
32.70007,-0.0006473742
32.80007,-0.0006458241
32.90007,-0.0006443126
33.00007,-0.0006427974
33.10007,-0.0006412219
33.20007,-0.0006397895
33.30006,-0.0006381838
33.40006,-0.000636693
33.50006,-0.000635335
33.60006,-0.0006337897
33.70006,-0.0006323357
33.80006,-0.0006308873
33.90005,-0.000629438
34.00005,-0.0006280706
34.10005,-0.0006266476
34.20005,-0.0006251315
34.30005,-0.0006238535
34.40005,-0.0006224023
34.50005,-0.0006210086
34.60004,-0.0006194726
34.70004,-0.0006182926
34.80004,-0.0006168291
34.90004,-0.0006154825
35.00004,-0.0006142101
35.10004,-0.000612725
35.20004,-0.0006113699
35.30003,-0.000609979
35.40003,-0.0006086662
35.50003,-0.0006072772
35.60003,-0.0006060048
35.70003,-0.0006047392
35.80003,-0.0006034754
35.90002,-0.0006021146
36.00002,-0.0006007048
36.10002,-0.0005994702
36.20002,-0.0005981452
36.30002,-0.0005970038
36.40002,-0.0005957363
36.50002,-0.0005944461
36.60001,-0.0005932896
36.70001,-0.0005920531
36.80001,-0.0005907648
36.90001,-0.0005896094
37.00001,-0.0005883888
37.10001,-0.0005870422
37.2,-0.0005858481
37.3,-0.0005845833
37.4,-0.0005833487
37.5,-0.0005822639
37.6,-0.0005811742
37.7,-0.0005798935
37.8,-0.0005787285
37.89999,-0.0005776164
37.99999,-0.0005763732
38.09999,-0.0005751321
38.19999,-0.0005739502
38.29999,-0.0005727289
38.39999,-0.0005715949
38.49998,-0.0005704385
38.59998,-0.0005691671
38.69998,-0.0005680484
38.79998,-0.0005669061
38.89998,-0.0005657637
38.99998,-0.0005645498
39.09998,-0.0005634075
39.19997,-0.0005622445
39.29997,-0.0005611144
39.39997,-0.0005599222
39.49997,-0.0005587441
39.59997,-0.0005576705
39.69997,-0.0005565263
39.79996,-0.0005554075
39.89996,-0.0005542841
39.99996,-0.0005532134
40.09996,-0.0005520418
40.19996,-0.000550987
40.29996,-0.000549937
40.39996,-0.0005488427
40.49995,-0.0005477748
40.59995,-0.0005468933
40.69995,-0.0005458998
40.79995,-0.0005446878
40.89995,-0.0005436434
40.99995,-0.0005426292
41.09995,-0.0005415255
41.19994,-0.0005404707
41.29994,-0.0005394809
41.39994,-0.0005384846
41.49994,-0.0005374195
41.59994,-0.0005364533
41.69994,-0.0005354136
41.79993,-0.0005343787
41.89993,-0.0005334567
41.99993,-0.0005323078
42.09993,-0.0005313011
42.19993,-0.0005303603
42.29993,-0.0005293545
42.39993,-0.0005284147
42.49992,-0.0005275568
42.59992,-0.0005264267
42.69992,-0.0005254859
42.79992,-0.0005245065
42.89992,-0.0005234471
42.99992,-0.0005225015
43.09991,-0.0005215589
43.19991,-0.0005206265
43.29991,-0.000519877
43.39991,-0.0005190577
43.49991,-0.0005178776
43.59991,-0.0005168992
43.69991,-0.0005160789
43.7999,-0.000515077
43.8999,-0.0005140881
43.9999,-0.0005130777
44.0999,-0.0005121444
44.1999,-0.0005112262
44.2999,-0.0005103259
44.39989,-0.0005093813
44.49989,-0.0005084613
44.59989,-0.0005075356
44.69989,-0.0005065778
44.79989,-0.0005056916
44.89989,-0.0005048554
44.99989,-0.000503957
45.09988,-0.0005030888
45.19988,-0.000502195
45.29988,-0.0005012721
45.39988,-0.0005004613
45.49988,-0.0004996316
45.59988,-0.0004987068
45.69987,-0.0004977962
45.79987,-0.0004969119
45.89987,-0.0004960116
45.99987,-0.0004952036
46.09987,-0.0004942722
46.19987,-0.000493386
46.29987,-0.0004925875
46.39986,-0.0004916872
46.49986,-0.0004908367
46.59986,-0.0004900325
46.69986,-0.0004891492
46.79986,-0.0004882649
46.89986,-0.0004874833
46.99986,-0.000486631
47.09985,-0.0004857401
47.19985,-0.0004849698
47.29985,-0.0004840827
47.39985,-0.0004832342
47.49985,-0.0004824657
47.59985,-0.0004816031
47.69984,-0.0004806887
47.79984,-0.0004799579
47.89984,-0.0004791235
47.99984,-0.0004783664
48.09984,-0.0004776064
48.19984,-0.0004768606
48.29984,-0.000476093
48.39983,-0.0004751918
48.49983,-0.0004744017
48.59983,-0.0004737019
48.69983,-0.0004728996
48.79983,-0.0004721415
48.89983,-0.0004713439
48.99982,-0.0004705227
49.09982,-0.0004696987
49.19982,-0.0004689763
49.29982,-0.0004681646
49.39982,-0.0004674338
49.49982,-0.0004666833
49.59982,-0.0004659346
49.69981,-0.0004651953
49.79981,-0.0004644259
49.89981,-0.0004636556
49.99981,-0.0004629003
50.09981,-0.0004621478
50.19981,-0.0004614067
50.2998,-0.0004606957
50.3998,-0.0004599546
50.4998,-0.0004591786
50.5998,-0.0004584308
50.6998,-0.0004577491
50.7998,-0.0004569571
50.8998,-0.000456263
50.99979,-0.0004555313
51.09979,-0.0004547072
51.19979,-0.0004540791
51.29979,-0.0004533502
51.39979,-0.0004525375
51.49979,-0.0004518519
51.59978,-0.0004511654
51.69978,-0.0004503668
51.79978,-0.0004497603
51.89978,-0.0004490173
51.99978,-0.000448263
52.09978,-0.0004476462
52.19978,-0.0004470095
52.29977,-0.0004462081
52.39977,-0.000445564
52.49977,-0.0004449377
52.59977,-0.0004441589
52.69977,-0.0004434639
52.79977,-0.0004427538
52.89977,-0.0004420363
52.99976,-0.0004414966
53.09976,-0.0004408459
53.19976,-0.0004400991
53.29976,-0.0004394588
53.39976,-0.0004387562
53.49976,-0.0004380584
53.59975,-0.0004374312
53.69975,-0.0004368172
53.79975,-0.0004361212
53.89975,-0.0004354065
53.99975,-0.0004347444
54.09975,-0.0004341427
54.19975,-0.0004334175
54.29974,-0.0004327837
54.39974,-0.0004320671
54.49974,-0.000431486
54.59974,-0.0004308334
54.69974,-0.0004301346
54.79974,-0.0004294962
54.89973,-0.0004288511
54.99973,-0.0004281994
55.09973,-0.0004275647
55.19973,-0.0004269111
55.29973,-0.0004262576
55.39973,-0.0004256144
55.49973,-0.0004249542
55.59972,-0.0004243477
55.69972,-0.0004237299
55.79972,-0.0004230839
55.89972,-0.0004224812
55.99972,-0.0004218832
56.09972,-0.000421256
56.19971,-0.0004206128
56.29971,-0.0004200073
56.39971,-0.0004193697
56.49971,-0.0004187774
56.59971,-0.0004181568
56.69971,-0.0004175654
56.79971,-0.0004169203
56.8997,-0.000416391
56.9997,-0.0004157469
57.0997,-0.0004151743
57.1997,-0.0004146036
57.2997,-0.0004139755
57.3997,-0.0004133775
57.49969,-0.0004127786
57.59969,-0.0004122135
57.69969,-0.0004115957
57.79969,-0.0004110128
57.89969,-0.0004104035
57.99969,-0.000409782
58.09969,-0.0004091962
58.19968,-0.000408634
58.29968,-0.0004080181
58.39968,-0.0004074257
58.49968,-0.0004068748
58.59968,-0.0004062778
58.69968,-0.0004056355
58.79967,-0.0004050771
58.89967,-0.0004045337
58.99967,-0.0004039074
59.09967,-0.0004033415
59.19967,-0.0004027265
59.29967,-0.0004021492
59.39967,-0.000401586
59.49966,-0.000401037
59.59966,-0.0004004174
59.69966,-0.0003999324
59.79966,-0.0003994342
59.89966,-0.0003987966
59.99966,-0.0003982806
60.09966,-0.0003976807
60.19965,-0.0003970987
60.29965,-0.0003965647
60.39965,-0.0003959771
60.49965,-0.0003954149
60.59965,-0.0003950043
60.69965,-0.0003945287
60.79964,-0.0003939053
60.89964,-0.0003933515
60.99964,-0.0003929052
61.09964,-0.0003923213
61.19964,-0.0003917487
61.29964,-0.0003912232
61.39964,-0.0003906592
61.49963,-0.0003902231
61.59963,-0.0003898672
61.69963,-0.0003892127
61.79963,-0.0003886768
61.89963,-0.0003882474
61.99963,-0.0003877209
62.09962,-0.000387172
62.19962,-0.000386735
62.29962,-0.0003861869
62.39962,-0.0003856407
62.49962,-0.0003851453
62.59962,-0.0003846189
62.69962,-0.0003841028
62.79961,-0.0003835726
62.89961,-0.0003830952
62.99961,-0.0003826318
63.09961,-0.0003821581
63.19961,-0.0003817353
63.29961,-0.0003812362
63.3996,-0.0003806608
63.4996,-0.0003801532
63.5996,-0.0003796626
63.6996,-0.000379154
63.7996,-0.0003786229
63.8996,-0.0003780993
63.9996,-0.000377635
64.09959,-0.0003771623
64.19959,-0.0003766019
64.29959,-0.0003761264
64.39959,-0.0003757713
64.49959,-0.0003752091
64.59959,-0.0003746478
64.69958,-0.0003742429
64.79958,-0.000373724
64.89958,-0.0003731533
64.99958,-0.0003726108
65.09958,-0.0003722502
65.19958,-0.0003718066
65.29958,-0.0003713452
65.39957,-0.0003707623
65.49957,-0.0003702857
65.59957,-0.0003698949
65.69957,-0.0003693496
65.79957,-0.0003688345
65.89957,-0.0003683448
65.99957,-0.0003678589
66.09956,-0.0003674671
66.19956,-0.0003670066
66.29956,-0.0003664877
66.39956,-0.0003660357
66.49956,-0.0003657579
66.59956,-0.0003653021
66.69955,-0.0003647747
66.79955,-0.0003643142
66.89955,-0.0003638867
66.99955,-0.000363396
67.09955,-0.0003629157
67.19955,-0.0003624185
67.29955,-0.0003620494
67.39954,-0.0003614994
67.49954,-0.000361102
67.59954,-0.0003606754
67.69954,-0.000360116
67.79954,-0.0003595914
67.89954,-0.0003591733
67.99953,-0.0003586987
68.09953,-0.0003582758
68.19953,-0.0003577974
68.29953,-0.0003573143
68.39953,-0.0003568708
68.49953,-0.0003564498
68.59953,-0.0003559959
68.69952,-0.0003555128
68.79952,-0.0003550636
68.89952,-0.0003546069
68.99952,-0.0003541661
69.09952,-0.0003537047
69.19952,-0.0003532508
69.29951,-0.0003528016
69.39951,-0.0003523749
69.49951,-0.0003519022
69.59951,-0.0003514615
69.69951,-0.0003509802
69.79951,-0.0003505395
69.89951,-0.000350143
69.9995,-0.0003497287
70.0995,-0.0003492691
70.1995,-0.0003488275
70.2995,-0.0003483952
70.3995,-0.0003479846
70.4995,-0.0003475439
70.59949,-0.0003471389
70.69949,-0.0003467198
70.79949,-0.000346458
70.89949,-0.0003458761
70.99949,-0.0003454212
71.09949,-0.0003450426
71.19949,-0.0003445944
71.29948,-0.0003441508
71.39948,-0.0003437459
71.49948,-0.0003434294
71.59948,-0.0003429473
71.69948,-0.0003425113
71.79948,-0.0003421412
71.89948,-0.0003417541
71.99947,-0.000341288
72.09947,-0.0003408896
72.19947,-0.000340479
72.29947,-0.0003400269
72.39947,-0.0003395636
72.49947,-0.0003392143
72.59946,-0.0003388517
72.69946,-0.0003384486
72.79946,-0.0003380324
72.89946,-0.0003376463
72.99946,-0.0003372159
73.09946,-0.0003368421
73.19946,-0.000336406
73.29945,-0.0003360406
73.39945,-0.0003356649
73.49945,-0.0003352156
73.59945,-0.0003349106
73.69945,-0.0003346289
73.79945,-0.0003344321
73.89944,-0.0003338831
73.99944,-0.0003334763
74.09944,-0.0003332116
74.19944,-0.0003327841
74.29944,-0.0003322586
74.39944,-0.0003318556
74.49944,-0.0003313856
74.59943,-0.0003309515
74.69943,-0.000330587
74.79943,-0.0003302706
74.89943,-0.0003299043
74.99943,-0.0003294777
75.09943,-0.0003290793
75.19942,-0.0003287158
75.29942,-0.0003283081
75.39942,-0.0003279785
75.49942,-0.0003275377
75.59942,-0.0003271139
75.69942,-0.0003266873
75.79942,-0.0003263964
75.89941,-0.000326353
75.99941,-0.0003258775
76.09941,-0.0003253557
76.19941,-0.0003251005
76.29941,-0.0003247728
76.39941,-0.0003242162
76.4994,-0.0003237783
76.5994,-0.000323379
76.6994,-0.000323007
76.7994,-0.0003226313
76.8994,-0.0003222536
76.9994,-0.0003218723
77.0994,-0.0003216491
77.19939,-0.0003212799
77.29939,-0.0003208175
77.39939,-0.0003204747
77.49939,-0.0003201301
77.59939,-0.0003197204
77.69939,-0.0003194482
77.79939,-0.0003190659
77.89938,-0.0003186676
77.99938,-0.0003183766
78.09938,-0.0003181327
78.19938,-0.0003177315
78.29938,-0.000317351
78.39938,-0.0003169875
78.49937,-0.0003165261
78.59937,-0.0003162012
78.69937,-0.0003158574
78.79937,-0.0003154356
78.89937,-0.0003150833
78.99937,-0.0003147584
79.09937,-0.0003143874
79.19936,-0.0003140164
79.29936,-0.0003136585
79.39936,-0.000313279
79.49936,-0.0003129447
79.59936,-0.0003126329
79.69936,-0.0003122308
79.79935,-0.0003118814
79.89935,-0.000311532
79.99935,-0.0003111525
80.09935,-0.0003108427
80.19935,-0.000310483
80.29935,-0.0003100959
80.39935,-0.0003097456
80.49934,-0.0003094141
80.59934,-0.0003090591
80.69934,-0.0003087512
80.79934,-0.0003084187
80.89934,-0.0003080505
80.99934,-0.0003077237
81.09933,-0.0003073809
81.19933,-0.0003070306
81.29933,-0.0003067029
81.39933,-0.0003064053
81.49933,-0.0003060305
81.59933,-0.0003057197
81.69933,-0.0003053618
81.79932,-0.0003050595
81.89932,-0.0003047553
81.99932,-0.0003045181
82.09932,-0.0003042299
82.19932,-0.0003039228
82.29932,-0.0003036168
82.39931,-0.0003031544
82.49931,-0.0003028361
82.59931,-0.0003026063
82.69931,-0.0003022344
82.79931,-0.0003019424
82.89931,-0.0003019415
82.99931,-0.000301674
83.0993,-0.0003012502
83.1993,-0.0003011297
83.2993,-0.0003010638
83.3993,-0.0003004385
83.4993,-0.0002999817
83.5993,-0.0002997482
83.6993,-0.0002994289
83.79929,-0.0002990569
83.89929,-0.0002987433
83.99929,-0.0002983384
84.09929,-0.000298038
84.19929,-0.000297748
84.29929,-0.0002974117
84.39928,-0.0002971123
84.49928,-0.0002967827
84.59928,-0.0002964512
84.69928,-0.0002962628
84.79928,-0.0002959351
84.89928,-0.0002955226
84.99928,-0.0002952646
85.09927,-0.0002950226
85.19927,-0.0002946619
85.29927,-0.0002943549
85.39927,-0.0002939838
85.49927,-0.0002936505
85.59927,-0.0002934207
85.69926,-0.0002932361
85.79926,-0.0002928038
85.89926,-0.0002924309
85.99926,-0.0002921993
86.09926,-0.0002918414
86.19926,-0.0002915024
86.29926,-0.0002911653
86.39925,-0.0002909063
86.49925,-0.0002906887
86.59925,-0.0002904297
86.69925,-0.0002900436
86.79925,-0.0002896905
86.89925,-0.0002894437
86.99924,-0.0002891302
87.09924,-0.0002887413
87.19924,-0.0002884163
87.29924,-0.0002880839
87.39924,-0.0002877947
87.49924,-0.0002874812
87.59924,-0.000287193
87.69923,-0.0002868804
87.79923,-0.0002865922
87.89923,-0.0002863059
87.99923,-0.0002860328
88.09923,-0.0002857022
88.19923,-0.000285415
88.29922,-0.0002851871
88.39922,-0.0002849705
88.49922,-0.0002846032
88.59922,-0.0002843151
88.69922,-0.0002840279
88.79922,-0.0002836917
88.89922,-0.0002834204
88.99921,-0.0002831963
89.09921,-0.0002828676
89.19921,-0.000282538
89.29921,-0.0002822612
89.39921,-0.0002819862
89.49921,-0.0002816773
89.59921,-0.0002813684
89.6992,-0.0002810717
89.7992,-0.0002807742
89.8992,-0.0002804954
89.9992,-0.0002802035
90.0992,-0.0002799294
90.1992,-0.0002796657
90.29919,-0.0002793691
90.39919,-0.0002790781
90.49919,-0.0002787984
90.59919,-0.000278514
90.69919,-0.0002781854
90.79919,-0.0002778972
90.89919,-0.0002776495
90.99918,-0.0002773688
91.09918,-0.0002770929
91.19918,-0.0002768528
91.29918,-0.0002765731
91.39918,-0.0002762388
91.49918,-0.0002759638
91.59917,-0.0002757396
91.69917,-0.0002754327
91.79917,-0.0002750691
91.89917,-0.0002748507
91.99917,-0.0002745917
92.09917,-0.000274297
92.19917,-0.0002740408
92.29916,-0.0002737536
92.39916,-0.0002735087
92.49916,-0.0002732366
92.59916,-0.0002729644
92.69916,-0.00027268
92.79916,-0.000272373
92.89915,-0.0002721206
92.99915,-0.0002718249
93.09915,-0.0002715725
93.19915,-0.0002713173
93.29915,-0.0002710536
93.39915,-0.0002707504
93.49915,-0.0002704829
93.59914,-0.0002702117
93.69914,-0.0002699687
93.79914,-0.0002696844
93.89914,-0.0002694056
93.99914,-0.0002691325
94.09914,-0.0002689206
94.19913,-0.0002686287
94.29913,-0.0002683376
94.39913,-0.00026809
94.49913,-0.0002678404
94.59913,-0.0002675655
94.69913,-0.0002673272
94.79913,-0.0002670974
94.89912,-0.0002667838
94.99912,-0.0002665672
95.09912,-0.0002663214
95.19912,-0.0002660144
95.29912,-0.000265794
95.39912,-0.0002655134
95.49911,-0.0002652318
95.59911,-0.0002650096
95.69911,-0.0002647431
95.79911,-0.0002644803
95.89911,-0.0002642139
95.99911,-0.0002639699
96.09911,-0.00026371
96.1991,-0.0002634783
96.2991,-0.0002632429
96.3991,-0.000262934
96.4991,-0.0002627363
96.5991,-0.0002624848
96.6991,-0.0002621891
96.7991,-0.0002619612
96.89909,-0.0002617333
96.99909,-0.0002614772
97.09909,-0.0002612766
97.19909,-0.0002609667
97.29909,-0.0002606786
97.39909,-0.0002604657
97.49908,-0.0002602303
97.59908,-0.0002599553
97.69908,-0.0002597067
97.79908,-0.0002594449
97.89908,-0.0002591784
97.99908,-0.0002589731
98.09908,-0.0002587405
98.19907,-0.000258473
98.29907,-0.0002582451
98.39907,-0.0002580022
98.49907,-0.0002577347
98.59907,-0.0002575756
98.69907,-0.0002573175
98.79906,-0.0002570124
98.89906,-0.0002567788
98.99906,-0.0002565896
99.09906,-0.0002563409
99.19906,-0.0002560669
99.29906,-0.0002558315
99.39906,-0.0002556026
99.49905,-0.0002554209
99.59905,-0.0002551685
99.69905,-0.0002548879
99.79905,-0.0002547475
99.89905,-0.0002546298
99.99905,-0.0002542861
100.099,-0.0002540375
100.199,-0.0002537926
100.299,-0.000253528
100.399,-0.0002532841
100.499,-0.0002531343
100.599,-0.0002528547
100.699,-0.0002526089
100.799,-0.0002523772
100.899,-0.0002521917
100.999,-0.0002520118
101.099,-0.0002517434
101.199,-0.0002514826
101.299,-0.0002512575
101.399,-0.0002510277
101.499,-0.0002507951
101.599,-0.0002505229
101.699,-0.0002503007
101.799,-0.0002500643
101.899,-0.0002498637
101.999,-0.00024965
102.099,-0.0002493957
102.199,-0.0002491348
102.299,-0.000248954
102.399,-0.0002487591
102.499,-0.0002485161
102.599,-0.0002482788
102.699,-0.0002480236
102.799,-0.0002478644
102.899,-0.0002477703
102.999,-0.0002475188
103.099,-0.0002472598
103.199,-0.0002470696
103.299,-0.0002468558
103.399,-0.0002465469
103.499,-0.0002463237
103.599,-0.0002461561
103.699,-0.0002458689
103.799,-0.0002456203
103.899,-0.0002454319
103.999,-0.0002452153
104.099,-0.0002449865
104.199,-0.0002447577
104.299,-0.0002445316
104.399,-0.0002443518
104.499,-0.0002441305
104.599,-0.0002438931
104.699,-0.0002436558
104.799,-0.0002434392
104.899,-0.0002432368
104.999,-0.0002430268
105.099,-0.0002428205
105.199,-0.0002425907
105.299,-0.000242376
105.399,-0.0002421698
105.499,-0.0002419786
105.599,-0.000241778
105.699,-0.0002415614
105.799,-0.0002413213
105.899,-0.0002411047
105.999,-0.0002408928
106.099,-0.00024068
106.199,-0.0002404991
106.299,-0.0002402835
106.3989,-0.0002400415
106.4989,-0.0002398296
106.5989,-0.0002396299
106.6989,-0.000239434
106.7989,-0.0002392231
106.8989,-0.0002389519
106.9989,-0.0002387325
107.0989,-0.0002385309
107.1989,-0.0002383398
107.2989,-0.0002381382
107.3989,-0.0002379292
107.4989,-0.0002377483
107.5989,-0.0002375091
107.6989,-0.0002372841
107.7989,-0.0002370844
107.8989,-0.0002369121
107.9989,-0.0002366879
108.0989,-0.0002365006
108.1989,-0.0002362764
108.2989,-0.0002360608
108.3989,-0.0002358818
108.4989,-0.0002357076
108.5989,-0.0002354656
108.6989,-0.0002352415
108.7989,-0.0002350456
108.8989,-0.0002348685
108.9989,-0.0002346792
109.0989,-0.000234457
109.1989,-0.0002342395
109.2989,-0.0002340577
109.3989,-0.0002338119
109.4989,-0.000233617
109.5989,-0.0002334682
109.6989,-0.0002332638
109.7989,-0.000233035
109.8989,-0.0002328363
109.9989,-0.000232646
110.0989,-0.000232437
110.1989,-0.0002322373
110.2989,-0.0002320386
110.3989,-0.000231807
110.4989,-0.0002315951
110.5989,-0.0002314011
110.6989,-0.0002312419
110.7989,-0.0002310649
110.8989,-0.0002308888
110.9989,-0.0002306722
111.0989,-0.0002305083
111.1989,-0.0002302964
111.2989,-0.0002300845
111.3989,-0.0002298727
111.4989,-0.0002296843
111.5989,-0.0002294658
111.6989,-0.0002292888
111.7989,-0.0002290873
111.8989,-0.0002288744
111.9989,-0.0002287237
112.0989,-0.0002285147
112.1989,-0.0002283452
112.2989,-0.000228153
112.3989,-0.0002279628
112.4989,-0.0002277669
112.5989,-0.0002276049
112.6989,-0.0002274128
112.7989,-0.0002272141
112.8988,-0.0002270606
112.9988,-0.0002268591
113.0988,-0.0002266736
113.1988,-0.0002265276
113.2988,-0.0002263157
113.3988,-0.0002261321
113.4988,-0.0002259795
113.5988,-0.0002257714
113.6988,-0.0002255529
113.7988,-0.0002254051
113.8988,-0.0002252516
113.9988,-0.0002250265
114.0988,-0.0002248212
114.1988,-0.000224662
114.2988,-0.000224517
114.3988,-0.0002243635
114.4988,-0.0002241639
114.5988,-0.0002239143
114.6988,-0.0002237495
114.7988,-0.0002235715
114.8988,-0.0002233822
114.9988,-0.0002232334
115.0988,-0.0002230215
115.1988,-0.0002228765
115.2988,-0.0002227852
115.3988,-0.0002227645
115.4988,-0.0002225545
115.5988,-0.0002222625
115.6988,-0.0002221457
115.7988,-0.0002220158
115.8988,-0.0002217257
115.9988,-0.0002214884
116.0988,-0.0002213359
116.1988,-0.0002211494
116.2988,-0.0002209733
116.3988,-0.0002207746
116.4988,-0.0002206295
116.5988,-0.0002204384
116.6988,-0.0002202576
116.7988,-0.0002200852
116.8988,-0.0002199393
116.9988,-0.0002197029
117.0988,-0.0002195532
117.1988,-0.0002193865
117.2988,-0.0002192066
117.3988,-0.000219023
117.4988,-0.0002189241
117.5988,-0.0002187508
117.6988,-0.0002185436
117.7988,-0.0002183713
117.8988,-0.0002182376
117.9988,-0.000218021
118.0988,-0.000217811
118.1988,-0.000217648
118.2988,-0.000217471
118.3988,-0.0002173081
118.4988,-0.0002170952
118.5988,-0.0002169182
118.6988,-0.0002167741
118.7988,-0.000216598
118.8988,-0.0002163814
118.9988,-0.0002162467
119.0988,-0.0002160367
119.1988,-0.0002158606
119.2988,-0.0002157297
119.3988,-0.0002155875
119.4987,-0.000215386
119.5987,-0.0002151901
119.6987,-0.0002150498
119.7987,-0.000214885
119.8987,-0.0002147296
119.9987,-0.0002145714
120.0987,-0.0002143849
120.1987,-0.0002142088
120.2987,-0.0002140553
120.3987,-0.0002138773
120.4987,-0.000213737
120.5987,-0.0002135402
120.6987,-0.0002133566
120.7987,-0.0002132209
120.8987,-0.0002130533
120.9987,-0.0002128386
121.0987,-0.0002126785
121.1987,-0.0002125401
121.2987,-0.0002123574
121.3987,-0.0002121992
121.4987,-0.0002120297
121.5987,-0.0002118554
121.6987,-0.0002117208
121.7987,-0.0002115494
121.8987,-0.0002113591
121.9987,-0.0002112132
122.0987,-0.0002110465
122.1987,-0.000210861
122.2987,-0.0002106905
122.3987,-0.0002105229
122.4987,-0.0002103807
122.5987,-0.0002102423
122.6987,-0.0002101029
122.7987,-0.0002099362
122.8987,-0.0002097431
122.9987,-0.0002096151
123.0987,-0.0002094493
123.1987,-0.0002092478
123.2987,-0.0002090651
123.3987,-0.0002089106
123.4987,-0.0002087025
123.5987,-0.0002085424
123.6987,-0.0002083861
123.7987,-0.0002082119
123.8987,-0.000208016
123.9987,-0.0002078729
124.0987,-0.0002077137
124.1987,-0.0002076017
124.2987,-0.0002073832
124.3987,-0.0002072372
124.4987,-0.0002070771
124.5987,-0.0002069114
124.6987,-0.0002067644
124.7987,-0.0002066015
124.8987,-0.0002064414
124.9987,-0.0002063002
125.0987,-0.0002061354
125.1987,-0.0002059225
125.2987,-0.0002057916
125.3987,-0.0002056852
125.4987,-0.0002054771
125.5987,-0.0002053198
125.6987,-0.0002052803
125.7987,-0.0002051362
125.8987,-0.0002049149
125.9986,-0.0002047708
126.0986,-0.0002046474
126.1986,-0.0002044864
126.2986,-0.0002044082
126.3986,-0.0002042425
126.4986,-0.0002040259
126.5986,-0.0002038969
126.6986,-0.0002037697
126.7986,-0.0002035917
126.8986,-0.0002034043
126.9986,-0.000203265
127.0986,-0.000203086
127.1986,-0.0002029391
127.2986,-0.0002028092
127.3986,-0.0002026952
127.4986,-0.0002025427
127.5986,-0.0002023628
127.6986,-0.0002022272
127.7986,-0.000202084
127.8986,-0.0002019305
127.9986,-0.0002017478
128.0986,-0.0002016207
128.1986,-0.0002014521
128.2986,-0.0002013137
128.3986,-0.0002012045
128.4986,-0.0002010547
128.5986,-0.0002008927
128.6987,-0.0002007289
128.7987,-0.0002005707
128.8987,-0.0002004087
128.9987,-0.0002002703
129.0987,-0.0002001149
129.1987,-0.0001999312
129.2987,-0.000199789
129.3987,-0.0001996242
129.4987,-0.0001994481
129.5987,-0.0001993059
129.6987,-0.0001992146
129.7987,-0.0001990545
129.8987,-0.0001988944
129.9987,-0.0001987296
130.0987,-0.0001985996
130.1987,-0.0001984678
130.2988,-0.0001983218
130.3988,-0.0001981617
130.4988,-0.0001980026
130.5988,-0.000197883
130.6988,-0.0001977069
130.7988,-0.000197559
130.8988,-0.0001974112
130.9988,-0.0001972426
131.0988,-0.0001970985
131.1988,-0.0001969459
131.2988,-0.0001967943
131.3988,-0.0001966512
131.4988,-0.0001965448
131.5988,-0.0001963602
131.6988,-0.0001962302
131.7988,-0.0001960993
131.8988,-0.0001959505
131.9989,-0.0001957857
132.0989,-0.0001956643
132.1989,-0.0001955051
132.2989,-0.0001953751
132.3989,-0.0001952753
132.4989,-0.0001950898
132.5989,-0.0001949325
132.6989,-0.0001948431
132.7989,-0.0001946914
132.8989,-0.0001945379
132.9989,-0.000194391
133.0989,-0.0001942065
133.1989,-0.0001940774
133.2989,-0.0001939673
133.3989,-0.000193777
133.4989,-0.0001936602
133.599,-0.0001935972
133.699,-0.0001934644
133.799,-0.0001933146
133.899,-0.0001931998
133.999,-0.000193067
134.099,-0.0001929087
134.199,-0.0001927929
134.299,-0.0001926168
134.399,-0.0001924313
134.499,-0.0001923145
134.599,-0.0001922043
134.699,-0.0001920282
134.799,-0.0001918832
134.899,-0.0001917438
134.999,-0.0001916327
135.099,-0.0001915319
135.1991,-0.0001913775
135.2991,-0.0001912117
135.3991,-0.0001910931
135.4991,-0.0001909433
135.5991,-0.0001908238
135.6991,-0.0001906853
135.7991,-0.0001905403
135.8991,-0.0001903802
135.9991,-0.0001902851
136.0991,-0.0001901316
136.1991,-0.0001899319
136.2991,-0.0001898396
136.3991,-0.0001897172
136.4991,-0.0001895402
136.5991,-0.0001893791
136.6991,-0.0001892718
136.7991,-0.0001891418
136.8992,-0.0001890138
136.9992,-0.0001888687
137.0992,-0.0001887086
137.1992,-0.000188605
137.2992,-0.0001884722
137.3992,-0.0001883253
137.4992,-0.0001881973
137.5992,-0.0001880805
137.6992,-0.0001879308
137.7992,-0.0001878046
137.8992,-0.0001877132
137.9992,-0.0001876106
138.0992,-0.0001874505
138.1992,-0.0001873045
138.2992,-0.0001871981
138.3992,-0.0001870286
138.4993,-0.0001869429
138.5993,-0.000186779
138.6993,-0.0001866641
138.7993,-0.0001865662
138.8993,-0.0001864146
138.9993,-0.0001862648
139.0993,-0.0001861716
139.1993,-0.0001860661
139.2993,-0.0001858966
139.3993,-0.0001857582
139.4993,-0.000185616
139.5993,-0.0001854578
139.6993,-0.0001853561
139.7993,-0.0001852384
139.8993,-0.0001850943
139.9993,-0.0001849681
140.0993,-0.0001848494
140.1994,-0.0001847091
140.2994,-0.0001846225
140.3994,-0.0001844614
140.4994,-0.0001842995
140.5994,-0.0001842109
140.6994,-0.0001841007
140.7994,-0.0001839924
140.8994,-0.0001838427
140.9994,-0.0001836958
141.0994,-0.0001835677
141.1994,-0.0001834726
141.2994,-0.0001833389
141.3994,-0.0001831957
141.4994,-0.0001830469
141.5994,-0.0001829245
141.6994,-0.0001828002
141.7995,-0.0001826985
141.8995,-0.0001825469
141.9995,-0.0001824207
142.0995,-0.0001822954
142.1995,-0.0001821871
142.2995,-0.0001820544
142.3995,-0.0001819639
142.4995,-0.0001817935
142.5995,-0.0001816607
142.6995,-0.0001815326
142.7995,-0.0001814196
142.8995,-0.0001812746
142.9995,-0.0001811644
143.0995,-0.0001810213
143.1995,-0.0001808875
143.2995,-0.0001807953
143.3996,-0.0001806634
143.4996,-0.0001805193
143.5996,-0.0001804148
143.6996,-0.0001802716
143.7996,-0.0001801586
143.8996,-0.00018004
143.9996,-0.0001799336
144.0996,-0.0001798027
144.1996,-0.0001796897
144.2996,-0.000179571
144.3996,-0.0001794552
144.4996,-0.0001793648
144.5996,-0.0001792838
144.6996,-0.0001791124
144.7996,-0.000179037
144.8996,-0.0001788864
144.9996,-0.0001787602
145.0997,-0.0001786754
145.1997,-0.0001785313
145.2997,-0.000178359
145.3997,-0.0001782752
145.4997,-0.0001781452
145.5997,-0.0001779842
145.6997,-0.0001778712
145.7997,-0.0001777836
145.8997,-0.0001776565
145.9997,-0.000177518
146.0997,-0.0001773871
146.1997,-0.0001772525
146.2997,-0.0001771903
146.3997,-0.0001770472
146.4997,-0.0001768918
146.5997,-0.0001768155
146.6998,-0.0001767449
146.7998,-0.0001766422
146.8998,-0.0001765349
146.9998,-0.000176371
147.0998,-0.0001762326
147.1998,-0.0001761488
147.2998,-0.000176015
147.3998,-0.00017587
147.4998,-0.0001757693
147.5998,-0.000175644
147.6998,-0.000175483
147.7998,-0.0001754123
147.8998,-0.0001753247
147.9998,-0.0001751891
148.0998,-0.0001750403
148.1998,-0.0001749744
148.2999,-0.0001748661
148.3999,-0.0001747738
148.4999,-0.0001746213
148.5999,-0.0001745017
148.6999,-0.0001743953
148.7999,-0.0001743067
148.8999,-0.0001741796
148.9999,-0.0001740553
149.0999,-0.0001739338
149.1999,-0.0001738265
149.2999,-0.0001736937
149.3999,-0.0001735788
149.4999,-0.0001734535
149.5999,-0.0001733772
149.6999,-0.0001732426
149.7999,-0.0001731201
149.8999,-0.0001730872
150,-0.0001729233
150.1,-0.0001727774
150.2,-0.0001726888
150.3,-0.0001725824
150.4,-0.0001724487
150.5,-0.0001723216
150.6,-0.0001722038
150.7,-0.0001720833
150.8,-0.000171991
150.9,-0.0001718912
151,-0.0001717735
151.1,-0.000171651
151.2,-0.0001715842
151.3,-0.0001714712
151.4,-0.0001713299
151.5,-0.0001712376
151.6001,-0.000171135
151.7001,-0.0001710079
151.8001,-0.0001708939
151.9001,-0.0001707639
152.0001,-0.0001706086
152.1001,-0.0001705549
152.2001,-0.0001704343
152.3001,-0.0001702742
152.4001,-0.000170182
152.5001,-0.0001700652
152.6001,-0.0001699475
152.7001,-0.0001698627
152.8001,-0.0001697365
152.9001,-0.0001697196
153.0001,-0.0001696367
153.1001,-0.0001695416
153.2001,-0.0001694229
153.3002,-0.000169341
153.4002,-0.0001691611
153.5002,-0.0001690217
153.6002,-0.0001689229
153.7002,-0.0001688475
153.8002,-0.0001687081
153.9002,-0.0001686573
154.0002,-0.0001685207
154.1002,-0.0001684077
154.2002,-0.0001683004
154.3002,-0.0001682043
154.4002,-0.0001681017
154.5002,-0.0001679792
154.6002,-0.0001678926
154.7002,-0.000167773
154.8002,-0.0001676769
154.9003,-0.0001675705
155.0003,-0.0001674152
155.1003,-0.0001673379
155.2003,-0.0001672353
155.3003,-0.0001671204
155.4003,-0.0001670045
155.5003,-0.0001668991
155.6003,-0.0001667879
155.7003,-0.0001666476
155.8003,-0.000166544
155.9003,-0.0001664442
156.0003,-0.0001663755
156.1003,-0.0001662662
156.2003,-0.0001661655
156.3003,-0.0001660487
156.4003,-0.0001659526
156.5004,-0.0001658038
156.6004,-0.00016572
156.7004,-0.0001655938
156.8004,-0.0001654733
156.9004,-0.0001654083
157.0004,-0.0001653292
157.1004,-0.0001651569
157.2004,-0.0001650834
157.3004,-0.0001650081
157.4004,-0.000164864
157.5004,-0.0001647293
157.6004,-0.0001646323
157.7004,-0.0001645419
157.8004,-0.0001644524
157.9004,-0.0001643611
158.0004,-0.0001642575
158.1004,-0.0001641266
158.2005,-0.000164024
158.3005,-0.0001639204
158.4005,-0.0001638337
158.5005,-0.0001637245
158.6005,-0.000163587
158.7005,-0.0001635041
158.8005,-0.0001633968
158.9005,-0.0001633139
159.0005,-0.0001632423
159.1005,-0.0001631199
159.2005,-0.0001630144
159.3005,-0.0001629052
159.4005,-0.0001628044
159.5005,-0.0001626905
159.6005,-0.0001625944
159.7005,-0.0001624993
159.8006,-0.0001623816
159.9006,-0.0001623015
160.0006,-0.0001622111
160.1006,-0.000162085
160.2006,-0.0001619531
160.3006,-0.0001618768
160.4006,-0.0001617808
160.5006,-0.0001616828
160.6006,-0.0001615886
160.7006,-0.0001614587
160.8006,-0.0001613711
160.9006,-0.0001612901
161.0006,-0.000161195
161.1006,-0.0001610717
161.2006,-0.000160984
161.3006,-0.0001608758
161.4007,-0.0001607788
161.5007,-0.0001606846
161.6007,-0.0001605876
161.7007,-0.0001604821
161.8007,-0.0001603927
161.9007,-0.0001602806
162.0007,-0.0001601695
162.1007,-0.0001601045
162.2007,-0.0001599952
162.3007,-0.0001598992
162.4007,-0.0001598069
162.5007,-0.000159709
162.6007,-0.0001595809
162.7007,-0.000159499
162.8007,-0.0001594019
162.9007,-0.0001592965
163.0007,-0.0001592155
163.1008,-0.0001591109
163.2008,-0.0001589706
163.3008,-0.0001589132
163.4008,-0.0001588162
163.5008,-0.0001587145
163.6008,-0.000158626
163.7008,-0.0001585243
163.8008,-0.000158416
163.9008,-0.0001583415
164.0008,-0.0001582389
164.1008,-0.0001581353
164.2008,-0.0001580402
164.3008,-0.000157931
164.4008,-0.0001578095
164.5008,-0.0001577907
164.6008,-0.000157672
164.7009,-0.0001575514
164.8009,-0.000157461
164.9009,-0.0001573744
165.0009,-0.0001572925
165.1009,-0.0001572049
165.2009,-0.000157073
165.3009,-0.0001569535
165.4009,-0.0001568894
165.5009,-0.0001568122
165.6009,-0.0001566964
165.7009,-0.0001566276
165.8009,-0.0001564901
165.9009,-0.0001563799
166.0009,-0.0001563008
166.1009,-0.000156201
166.2009,-0.0001560955
166.3009,-0.0001559948
166.401,-0.0001559307
166.501,-0.0001558102
166.601,-0.0001557518
166.701,-0.0001556736
166.801,-0.0001555945
166.901,-0.0001555738
167.001,-0.0001555456
167.101,-0.0001554674
167.201,-0.0001553582
167.301,-0.0001553271
167.401,-0.0001552386
167.501,-0.0001550775
167.601,-0.0001549645
167.701,-0.0001548157
167.801,-0.0001547696
167.901,-0.00015465
168.0011,-0.0001545803
168.1011,-0.0001544692
168.2011,-0.0001544437
168.3011,-0.0001543062
168.4011,-0.0001541885
168.5011,-0.0001541132
168.6011,-0.0001540237
168.7011,-0.0001539427
168.8011,-0.0001538702
168.9011,-0.000153793
169.0011,-0.0001537186
169.1011,-0.0001536593
169.2011,-0.0001535171
169.3011,-0.0001534333
169.4011,-0.0001533881
169.5011,-0.0001532835
169.6012,-0.0001532016
169.7012,-0.0001531121
169.8012,-0.0001530283
169.9012,-0.0001529398
170.0012,-0.0001528899
170.1012,-0.0001527957
170.2012,-0.0001527044
170.3012,-0.0001526196
170.4012,-0.0001525151
170.5012,-0.0001524266
170.6012,-0.0001523352
170.7012,-0.0001522438
170.8012,-0.0001521685
170.9012,-0.000152096
171.0012,-0.0001519698
171.1012,-0.0001518794
171.2012,-0.0001517739
171.3013,-0.0001516863
171.4013,-0.0001516138
171.5013,-0.0001515375
171.6013,-0.0001514264
171.7013,-0.0001513257
171.8013,-0.0001513012
171.9013,-0.0001511806
172.0013,-0.0001511053
172.1013,-0.0001509622
172.2013,-0.0001508765
172.3013,-0.0001507851
172.4013,-0.0001507013
172.5013,-0.0001506015
172.6013,-0.0001504885
172.7013,-0.0001504282
172.8013,-0.0001503246
172.9014,-0.0001502427
173.0014,-0.0001501711
173.1014,-0.0001500892
173.2014,-0.0001499997
173.3014,-0.0001499507
173.4014,-0.0001498406
173.5014,-0.0001497633
173.6014,-0.0001497803
173.7014,-0.0001496786
173.8014,-0.000149527
173.9014,-0.0001494704
174.0014,-0.000149494
174.1014,-0.0001493113
174.2014,-0.0001491832
174.3014,-0.0001490966
174.4014,-0.0001490231
174.5014,-0.0001489657
174.6015,-0.0001489421
174.7015,-0.0001488348
174.8015,-0.0001487067
174.9015,-0.0001487048
175.0015,-0.0001486389
175.1015,-0.000148475
175.2015,-0.0001483488
175.3015,-0.0001482519
175.4015,-0.0001482019
175.5015,-0.0001481351
175.6015,-0.0001480607
175.7015,-0.0001479872
175.8015,-0.0001479166
175.9015,-0.0001478432
176.0015,-0.0001477734
176.1015,-0.0001477179
176.2016,-0.0001476021
176.3016,-0.0001475098
176.4016,-0.0001474316
176.5016,-0.0001473619
176.6016,-0.0001472527
176.7016,-0.000147167
176.8016,-0.0001470907
176.9016,-0.0001470172
177.0016,-0.0001469504
177.1016,-0.000146827
177.2016,-0.0001467573
177.3016,-0.000146714
177.4016,-0.0001466038
177.5016,-0.0001465605
177.6016,-0.000146455
177.7016,-0.0001463496
177.8017,-0.0001462799
177.9017,-0.0001462017
178.0017,-0.0001460943
178.1017,-0.0001460124
178.2017,-0.0001459201
178.3017,-0.0001458316
178.4017,-0.0001457666
178.5017,-0.0001456866
178.6017,-0.000145582
178.7017,-0.0001454945
178.8017,-0.0001453994
178.9017,-0.0001453372
179.0017,-0.0001452675
179.1017,-0.0001451828
179.2017,-0.0001451046
179.3017,-0.0001450151
179.4017,-0.0001449181
179.5018,-0.0001448315
179.6018,-0.0001447505
179.7018,-0.0001446846
179.8018,-0.0001445942
179.9018,-0.0001445207
180.0018,-0.000144436
180.1018,-0.0001443747
180.2018,-0.000144306
180.3018,-0.0001442316
180.4018,-0.0001441374
180.5018,-0.0001440338
180.6018,-0.0001439754
180.7018,-0.000143838
180.8018,-0.0001437607
180.9018,-0.0001437155
181.0018,-0.0001435997
181.1019,-0.0001435196
181.2019,-0.0001434142
181.3019,-0.0001433322
181.4019,-0.0001432805
181.5019,-0.0001432211
181.6019,-0.0001431194
181.7019,-0.0001430036
181.8019,-0.0001429452
181.9019,-0.0001428595
182.0019,-0.0001427729
182.1019,-0.0001427107
182.2019,-0.0001426165
182.3019,-0.0001425516
182.4019,-0.0001424592
182.5019,-0.0001423519
182.6019,-0.00014227
182.702,-0.0001421994
182.802,-0.0001421249
182.902,-0.0001420336
183.002,-0.000141962
183.102,-0.0001418773
183.202,-0.0001417784
183.302,-0.0001417228
183.402,-0.0001416578
183.502,-0.0001415759
183.602,-0.0001414846
183.702,-0.0001414403
183.802,-0.00014138
183.902,-0.0001413103
184.002,-0.0001412538
184.102,-0.0001411493
184.202,-0.0001410504
184.302,-0.0001409704
184.4021,-0.0001409327
184.5021,-0.0001408715
184.6021,-0.0001407284
184.7021,-0.000140685
184.8021,-0.000140654
184.9021,-0.0001405278
185.0021,-0.0001404091
185.1021,-0.0001403583
185.2021,-0.0001402669
185.3021,-0.0001401341
185.4021,-0.0001400927
185.5021,-0.0001399844
185.6021,-0.0001398902
185.7021,-0.0001398761
185.8021,-0.0001398026
185.9021,-0.0001397386
186.0022,-0.000139652
186.1022,-0.000139555
186.2022,-0.000139489
186.3022,-0.0001394288
186.4022,-0.0001393506
186.5022,-0.0001392611
186.6022,-0.0001392112
186.7022,-0.0001391265
186.8022,-0.0001390417
186.9022,-0.0001389833
187.0022,-0.0001388939
187.1022,-0.0001388402
187.2022,-0.0001387658
187.3022,-0.0001386773
187.4022,-0.0001386151
187.5022,-0.0001385558
187.6022,-0.0001384315
187.7023,-0.0001383533
187.8023,-0.0001382987
187.9023,-0.000138213
188.0023,-0.0001381094
188.1023,-0.000138068
188.2023,-0.0001379964
188.3023,-0.0001379182
188.4023,-0.0001378664
188.5023,-0.0001377628
188.6023,-0.0001376771
188.7023,-0.0001375745
188.8023,-0.0001375406
188.9023,-0.0001374314
189.0023,-0.0001373777
189.1023,-0.0001372939
189.2023,-0.0001372468
189.3024,-0.0001372063
189.4024,-0.000137146
189.5024,-0.0001370565
189.6024,-0.0001369605
189.7024,-0.0001368899
189.8024,-0.0001368127
189.9024,-0.0001367307
190.0024,-0.0001366686
190.1024,-0.0001366121
190.2024,-0.000136533
190.3024,-0.0001364764
190.4024,-0.0001363823
190.5024,-0.000136306
190.6024,-0.0001362589
190.7024,-0.0001361271
190.8024,-0.0001360894
190.9025,-0.0001360602
191.0025,-0.000135999
191.1025,-0.0001359086
191.2025,-0.0001358455
191.3025,-0.0001357551
191.4025,-0.0001357136
191.5025,-0.00013561
191.6025,-0.0001354999
191.7025,-0.0001354198
191.8025,-0.0001354095
191.9025,-0.0001353341
192.0025,-0.0001352343
192.1025,-0.0001351486
192.2025,-0.0001350714
192.3025,-0.0001349932
192.4025,-0.0001349386
192.5025,-0.0001348661
192.6026,-0.0001347983
192.7026,-0.0001347163
192.8026,-0.0001346212
192.9026,-0.0001345609
193.0026,-0.0001345111
193.1026,-0.0001344442
193.2026,-0.0001343425
193.3026,-0.0001342681
193.4026,-0.0001342163
193.5026,-0.0001341419
193.6026,-0.0001340816
193.7026,-0.0001340044
193.8026,-0.0001339215
193.9026,-0.0001338782
194.0026,-0.0001337756
194.1026,-0.000133736
194.2027,-0.000133704
194.3027,-0.0001336352
194.4027,-0.0001335137
194.5027,-0.0001334356
194.6027,-0.0001334215
194.7027,-0.000133332
194.8027,-0.0001332585
194.9027,-0.0001331587
195.0027,-0.000133074
195.1027,-0.0001330156
195.2027,-0.0001329685
195.3027,-0.0001328715
195.4027,-0.0001328075
195.5027,-0.0001327039
195.6027,-0.0001326624
195.7027,-0.000132621
195.8027,-0.0001325193
195.9028,-0.0001324411
196.0028,-0.0001323761
196.1028,-0.0001322886
196.2028,-0.0001322603
196.3028,-0.0001322283
196.4028,-0.0001321511
196.5028,-0.0001320409
196.6028,-0.0001319655
196.7028,-0.0001319458
196.8028,-0.0001318469
196.9028,-0.0001317603
197.0028,-0.0001316896
197.1028,-0.0001316086
197.2028,-0.0001315267
197.3028,-0.0001314627
197.4028,-0.0001313741
197.5029,-0.0001313139
197.6029,-0.0001312517
197.7029,-0.0001311811
197.8029,-0.0001310954
197.9029,-0.0001310295
198.0029,-0.0001309739
198.1029,-0.0001309193
198.2029,-0.0001308392
198.3029,-0.0001307545
198.4029,-0.0001307225
198.5029,-0.0001306631
198.6029,-0.0001305379
198.7029,-0.0001305238
198.8029,-0.000130488
198.9029,-0.0001304409
199.0029,-0.0001303288
199.103,-0.0001302742
199.203,-0.0001301942
199.303,-0.0001301311
199.403,-0.0001300755
199.503,-0.0001299455
199.603,-0.0001298711
199.703,-0.0001298278
199.803,-0.0001297911
199.903,-0.0001296979
200.003,-0.0001296225
200.103,-0.0001295434
200.203,-0.0001294737
200.303,-0.0001294417
200.403,-0.0001293202
200.503,-0.0001292534
200.603,-0.000129292
200.703,-0.0001292797
200.8031,-0.0001291168
200.9031,-0.0001290443
201.0031,-0.0001290198
201.1031,-0.0001289464
201.2031,-0.0001288673
201.3031,-0.0001287655
201.4031,-0.0001286921
201.5031,-0.0001286121
201.6031,-0.000128548
201.7031,-0.0001284906
201.8031,-0.0001284388
201.9031,-0.0001283917
202.0031,-0.0001283126
202.1031,-0.0001282476
202.2031,-0.000128209
202.3031,-0.0001281336
202.4032,-0.0001280602
202.5032,-0.0001279914
202.6032,-0.0001279274
202.7032,-0.0001279086
202.8032,-0.0001278248
202.9032,-0.0001277522
203.0032,-0.0001277183
203.1032,-0.0001276703
203.2032,-0.0001275997
203.3032,-0.0001275611
203.4032,-0.0001274895
203.5032,-0.0001274057
203.6032,-0.0001273803
203.7032,-0.0001273078
203.8032,-0.0001272258
203.9032,-0.0001272145
204.0033,-0.0001271354
204.1033,-0.0001270525
204.2033,-0.0001270327
204.3033,-0.0001269866
204.4033,-0.0001269226
204.5033,-0.0001268623
204.6033,-0.0001267888
204.7033,-0.0001266947
204.8033,-0.0001266551
204.9033,-0.0001266175
205.0033,-0.0001264865
205.1033,-0.0001264084
205.2033,-0.0001263623
205.3033,-0.0001263123
205.4033,-0.0001262643
205.5033,-0.0001261899
205.6033,-0.0001261466
205.7034,-0.0001260411
205.8034,-0.0001259733
205.9034,-0.0001259225
206.0034,-0.0001258565
206.1034,-0.0001257991
206.2034,-0.0001257341
206.3034,-0.0001256748
206.4034,-0.0001256079
206.5034,-0.0001255166
206.6034,-0.0001254902
206.7034,-0.0001254478
206.8034,-0.0001253659
206.9034,-0.0001253235
207.0034,-0.0001252519
207.1034,-0.0001251615
207.2034,-0.0001251003
207.3035,-0.0001250598
207.4035,-0.0001250099
207.5035,-0.0001249581
207.6035,-0.000124895
207.7035,-0.0001248489
207.8035,-0.000124767
207.9035,-0.0001247227
208.0035,-0.0001246248
208.1035,-0.000124589
208.2035,-0.0001245249
208.3035,-0.0001244458
208.4035,-0.0001244195
208.5035,-0.0001243752
208.6035,-0.000124282
208.7035,-0.0001242264
208.8035,-0.0001241793
208.9035,-0.0001241068
209.0036,-0.0001240296
209.1036,-0.0001239994
209.2036,-0.0001239062
209.3036,-0.0001238271
209.4036,-0.0001238158
209.5036,-0.0001237932
209.6036,-0.0001237028
209.7036,-0.0001236237
209.8036,-0.0001235653
209.9036,-0.0001234777
210.0036,-0.0001234636
210.1036,-0.0001233647
210.2036,-0.0001232884
210.3036,-0.0001232216
210.4036,-0.0001231735
210.5036,-0.0001231255
210.6037,-0.0001230445
210.7037,-0.0001229899
210.8037,-0.0001229616
210.9037,-0.000122923
211.0037,-0.0001228477
211.1037,-0.0001227573
211.2037,-0.0001227206
211.3037,-0.0001226499
211.4037,-0.0001225511
211.5037,-0.0001225181
211.6037,-0.0001224701
211.7037,-0.0001223655
211.8037,-0.000122309
211.9037,-0.0001222845
212.0037,-0.0001222356
212.1037,-0.0001221423
212.2038,-0.0001220943
212.3038,-0.0001220171
212.4038,-0.0001219907
212.5038,-0.0001219097
212.6038,-0.0001218391
212.7038,-0.0001218269
212.8038,-0.0001217666
212.9038,-0.000121696
213.0038,-0.0001216451
213.1038,-0.000121566
213.2038,-0.0001214954
213.3038,-0.0001214398
213.4038,-0.0001214003
213.5038,-0.0001212835
213.6038,-0.0001212251
213.7038,-0.0001211705
213.8038,-0.0001211149
213.9039,-0.000121097
214.0039,-0.0001210094
214.1039,-0.0001209558
214.2039,-0.0001209124
214.3039,-0.0001208362
214.4039,-0.0001207881
214.5039,-0.0001207514
214.6039,-0.000120694
214.7039,-0.0001206073
214.8039,-0.0001205772
214.9039,-0.000120531
215.0039,-0.0001204792
215.1039,-0.0001204246
215.2039,-0.0001203587
215.3039,-0.0001202975
215.4039,-0.0001202598
215.504,-0.0001201986
215.604,-0.0001201346
215.704,-0.0001201063
215.804,-0.0001200338
215.904,-0.0001199491
216.004,-0.0001199133
216.104,-0.0001198709
216.204,-0.0001198087
216.304,-0.0001197522
216.404,-0.0001196835
216.504,-0.0001196176
216.604,-0.0001195752
216.704,-0.0001195356
216.804,-0.0001194339
216.904,-0.0001193737
217.004,-0.0001192983
217.104,-0.0001192588
217.2041,-0.0001192249
217.3041,-0.0001191618
217.4041,-0.0001190808
217.5041,-0.0001190186
217.6041,-0.0001189762
217.7041,-0.0001189245
217.8041,-0.0001188802
217.9041,-0.0001188322
218.0041,-0.0001187389
218.1041,-0.0001186937
218.2041,-0.0001186193
218.3041,-0.0001185694
218.4041,-0.0001185431
218.5041,-0.0001184922
218.6041,-0.0001184009
218.7041,-0.0001183434
218.8042,-0.000118317
218.9042,-0.0001182455
219.0042,-0.0001181899
219.1042,-0.0001181146
219.2042,-0.0001180468
219.3042,-0.0001180251
219.4042,-0.0001179827
219.5042,-0.0001178951
219.6042,-0.000117832
219.7042,-0.0001178028
219.8042,-0.0001177473
219.9042,-0.0001176955
220.0042,-0.0001176428
220.1042,-0.000117558
220.2042,-0.0001175373
220.3042,-0.0001174996
220.4043,-0.0001174252
220.5043,-0.0001174073
220.6043,-0.0001173414
220.7043,-0.0001172576
220.8043,-0.0001172114
220.9043,-0.0001171644
221.0043,-0.0001170824
221.1043,-0.0001170495
221.2043,-0.0001169826
221.3043,-0.0001169186
221.4043,-0.000116896
221.5043,-0.0001168216
221.6043,-0.0001167453
221.7043,-0.0001166841
221.8043,-0.0001166511
221.9043,-0.0001166012
222.0043,-0.0001165277
222.1044,-0.000116459
222.2044,-0.0001164223
222.3044,-0.0001163714
222.4044,-0.0001163611
222.5044,-0.0001162509
222.6044,-0.0001161991
222.7044,-0.0001162
222.8044,-0.00011612
222.9044,-0.0001160446
223.0044,-0.0001159853
223.1044,-0.0001159156
223.2044,-0.0001158648
223.3044,-0.0001158092
223.4044,-0.0001157452
223.5044,-0.0001157084
223.6044,-0.0001156679
223.7045,-0.0001155888
223.8045,-0.0001156096
223.9045,-0.0001155596
224.0045,-0.0001155041
224.1045,-0.0001154429
224.2045,-0.0001153977
224.3045,-0.0001153553
224.4045,-0.0001152997
224.5045,-0.0001152366
224.6045,-0.0001151782
224.7045,-0.0001151773
224.8045,-0.0001151142
224.9045,-0.0001150342
225.0045,-0.0001149532
225.1045,-0.0001149428
225.2045,-0.000114858
225.3046,-0.0001147997
225.4046,-0.0001147771
225.5046,-0.000114698
225.6046,-0.0001146641
225.7046,-0.0001146405
225.8046,-0.0001145831
225.9046,-0.0001145002
226.0046,-0.0001144315
226.1046,-0.0001144164
226.2046,-0.0001143523
226.3046,-0.0001142893
226.4046,-0.0001142356
226.5046,-0.0001142252
226.6046,-0.0001142064
226.7046,-0.0001141226
226.8046,-0.0001140679
226.9046,-0.0001140472
227.0047,-0.0001139954
227.1047,-0.0001139248
227.2047,-0.0001138626
227.3047,-0.0001138287
227.4047,-0.0001137468
227.5047,-0.0001137233
227.6047,-0.0001137025
227.7047,-0.0001136197
227.8047,-0.0001135641
227.9047,-0.0001135547
228.0047,-0.0001135038
228.1047,-0.0001134351
228.2047,-0.0001133729
228.3047,-0.0001132948
228.4047,-0.0001132703
228.5047,-0.0001132336
228.6048,-0.0001131441
228.7048,-0.0001130895
228.8048,-0.0001130424
228.9048,-0.0001130047
229.0048,-0.0001129671
229.1048,-0.0001129275
229.2048,-0.0001128258
229.3048,-0.0001127881
229.4048,-0.0001127542
229.5048,-0.0001127024
229.6048,-0.0001126488
229.7048,-0.0001126035
229.8048,-0.0001125405
229.9048,-0.0001124905
230.0048,-0.0001124595
230.1048,-0.000112403
230.2048,-0.0001123427
230.3049,-0.0001123342
230.4049,-0.0001122589
230.5049,-0.000112192
230.6049,-0.0001121393
230.7049,-0.000112111
230.8049,-0.0001120385
230.9049,-0.0001119961
231.0049,-0.0001119415
231.1049,-0.0001119462
231.2049,-0.0001119048
231.3049,-0.0001118078
231.4049,-0.000111772
231.5049,-0.0001117437
231.6049,-0.0001116778
231.7049,-0.0001116449
231.8049,-0.0001115723
231.905,-0.0001114697
232.005,-0.0001114405
232.105,-0.0001114076
232.205,-0.0001113614
232.305,-0.0001112795
232.405,-0.0001112173
232.505,-0.0001111684
232.605,-0.000111094
232.705,-0.0001110808
232.805,-0.0001110111
232.905,-0.0001109612
233.005,-0.0001109405
233.105,-0.0001109047
233.205,-0.0001108538
233.305,-0.0001108227
233.405,-0.0001107512
233.5051,-0.0001106947
233.6051,-0.0001106523
233.7051,-0.000110625
233.8051,-0.0001105515
233.9051,-0.0001105223
234.0051,-0.0001104611
234.1051,-0.0001104244
234.2051,-0.0001103905
234.3051,-0.0001103651
234.4051,-0.0001102878
234.5051,-0.0001102351
234.6051,-0.0001101965
234.7051,-0.0001101635
234.8051,-0.000110091
234.9051,-0.0001100336
235.0051,-0.0001099761
235.1051,-0.0001099432
235.2052,-0.0001099234
235.3052,-0.0001098424
235.4052,-0.0001098283
235.5052,-0.0001097708
235.6052,-0.0001097219
235.7052,-0.0001096814
235.8052,-0.0001096691
235.9052,-0.0001095759
236.0052,-0.0001095448
236.1052,-0.0001095006
236.2052,-0.0001094469
236.3052,-0.0001093762
236.4052,-0.0001093273
236.5052,-0.0001092858
236.6052,-0.0001092604
236.7052,-0.0001092067
236.8053,-0.0001091493
236.9053,-0.0001091022
237.0053,-0.0001090824
237.1053,-0.0001089939
237.2053,-0.0001089581
237.3053,-0.0001089261
237.4053,-0.0001088508
237.5053,-0.0001087999
237.6053,-0.0001087679
237.7053,-0.0001087217
237.8053,-0.0001086681
237.9053,-0.0001086257
238.0053,-0.0001085663
238.1053,-0.0001085588
238.2053,-0.0001085211
238.3053,-0.0001084402
238.4053,-0.0001083789
238.5054,-0.0001083874
238.6054,-0.0001083074
238.7054,-0.0001082575
238.8054,-0.0001081878
238.9054,-0.000108152
239.0054,-0.0001081068
239.1054,-0.0001080795
239.2054,-0.0001080117
239.3054,-0.0001079542
239.4054,-0.0001079476
239.5054,-0.0001079476
239.6054,-0.0001078591
239.7054,-0.0001078017
239.8054,-0.0001077744
239.9054,-0.0001077235
240.0054,-0.0001076764
240.1055,-0.0001076067
240.2055,-0.0001075549
240.3055,-0.0001075107
240.4055,-0.000107473
240.5055,-0.0001074259
240.6055,-0.0001073788
240.7055,-0.0001073251
240.8055,-0.0001072517
240.9055,-0.0001072442
241.0055,-0.000107199
241.1055,-0.0001071425
241.2055,-0.0001070925
241.3055,-0.0001070313
241.4055,-0.0001069663
241.5055,-0.0001069663
241.6055,-0.0001069193
241.7056,-0.0001068562
241.8056,-0.0001068091
241.9056,-0.0001067545
242.0056,-0.0001067158
242.1056,-0.000106698
242.2056,-0.0001066452
242.3056,-0.0001065614
242.4056,-0.0001065501
242.5056,-0.0001064898
242.6056,-0.0001064493
242.7056,-0.0001064296
242.8056,-0.0001063542
242.9056,-0.0001062968
243.0056,-0.0001062648
243.1056,-0.0001062261
243.2056,-0.0001061753
243.3056,-0.000106131
243.4057,-0.0001060548
243.5057,-0.0001060802
243.6057,-0.0001060613
243.7057,-0.000106003
243.8057,-0.0001059154
243.9057,-0.0001058749
244.0057,-0.0001058344
244.1057,-0.0001057816
244.2057,-0.0001057383
244.3057,-0.000105696
244.4057,-0.0001056555
244.5057,-0.0001056329
244.6057,-0.0001055905
244.7057,-0.000105534
244.8057,-0.0001054643
244.9057,-0.000105453
245.0058,-0.0001054059
245.1058,-0.0001053541
245.2058,-0.0001053249
245.3058,-0.0001052599
245.4058,-0.00010521
245.5058,-0.0001051742
245.6058,-0.000105114
245.7058,-0.0001050923
245.8058,-0.0001050179
245.9058,-0.0001049821
246.0058,-0.0001049661
246.1058,-0.0001049049
246.2058,-0.000104806
246.3058,-0.0001048013
246.4058,-0.0001048258
246.5058,-0.0001047919
246.6059,-0.0001047354
246.7059,-0.0001046789
246.8059,-0.0001046356
246.9059,-0.0001046101
247.0059,-0.0001045678
247.1059,-0.0001044802
247.2059,-0.0001044274
247.3059,-0.000104418
247.4059,-0.0001043455
247.5059,-0.0001042918
247.6059,-0.0001042768
247.7059,-0.0001042419
247.8059,-0.0001041788
247.9059,-0.0001041449
248.0059,-0.0001041138
248.1059,-0.0001040865
248.2059,-0.0001040526
248.306,-0.0001039867
248.406,-0.0001039651
248.506,-0.0001039519
248.606,-0.0001038558
248.706,-0.0001038012
248.806,-0.0001037974
248.906,-0.00010374
249.006,-0.0001036618
249.106,-0.0001036364
249.206,-0.0001036147
249.306,-0.0001035507
249.406,-0.0001034744
249.506,-0.0001034462
249.606,-0.0001033981
249.706,-0.0001033746
249.806,-0.0001033096
249.9061,-0.0001032512
250.0061,-0.0001032192
250.1061,-0.0001032088
250.2061,-0.0001031486
250.3061,-0.0001030977
250.4061,-0.0001030384
250.5061,-0.00010298
250.6061,-0.0001029668
250.7061,-0.0001029301
250.8061,-0.0001028679
250.9061,-0.0001028208
251.0061,-0.0001027719
251.1061,-0.0001027229
251.2061,-0.0001026918
251.3061,-0.0001026419
251.4061,-0.000102608
251.5061,-0.0001025779
251.6062,-0.0001025459
251.7062,-0.0001024696
251.8062,-0.0001024281
251.9062,-0.0001023839
252.0062,-0.0001023745
252.1062,-0.0001023189
252.2062,-0.0001022775
252.3062,-0.000102204
252.4062,-0.0001021776
252.5062,-0.0001021673
252.6062,-0.0001021023
252.7062,-0.0001020486
252.8062,-0.0001020373
252.9062,-0.0001020072
253.0062,-0.0001019658
253.1062,-0.000101929
253.2063,-0.0001018622
253.3063,-0.0001018028
253.4063,-0.0001017784
253.5063,-0.0001017284
253.6063,-0.000101703
253.7063,-0.0001016418
253.8063,-0.0001015957
253.9063,-0.0001015683
254.0063,-0.0001015184
254.1063,-0.0001014883
254.2063,-0.0001014422
254.3063,-0.0001014148
254.4063,-0.0001013555
254.5063,-0.0001012971
254.6063,-0.0001012642
254.7063,-0.0001012256
254.8064,-0.0001011973
254.9064,-0.0001011719
255.0064,-0.0001010956
255.1064,-0.0001010636
255.2064,-0.0001010664
255.3064,-0.000101008
255.4064,-0.0001009619
255.5064,-0.000100912
255.6064,-0.0001008733
255.7064,-0.0001008008
255.8064,-0.0001007829
255.9064,-0.0001007453
256.0064,-0.0001006954
256.1064,-0.000100668
256.2064,-0.0001006276
256.3064,-0.0001005758
256.4064,-0.0001005475
256.5064,-0.0001004769
256.6064,-0.0001004562
256.7065,-0.0001004279
256.8065,-0.0001003592
256.9065,-0.0001002914
257.0065,-0.0001002575
257.1065,-0.000100232
257.2065,-0.0001002188
257.3065,-0.0001001831
257.4065,-0.0001000955
257.5065,-0.0001000804
257.6065,-0.0001000785
257.7065,-0.0001000456
257.8065,-9.996834E-05
257.9065,-9.997588E-05
258.0065,-9.99382E-05
258.1065,-9.986852E-05
258.2065,-9.983178E-05
258.3065,-9.980542E-05
258.4066,-9.976869E-05
258.5066,-9.973668E-05
258.6066,-9.967075E-05
258.7066,-9.959353E-05
258.8066,-9.956152E-05
258.9066,-9.951254E-05
259.0066,-9.947865E-05
259.1066,-9.944945E-05
259.2066,-9.942685E-05
259.3066,-9.934021E-05
259.4066,-9.936752E-05
259.5066,-9.929782E-05
259.6066,-9.925451E-05
259.7066,-9.92159E-05
259.8066,-9.916033E-05
259.9066,-9.910477E-05
260.0067,-9.910006E-05
260.1067,-9.905298E-05
260.2067,-9.896728E-05
260.3067,-9.896917E-05
260.4067,-9.894562E-05
260.5067,-9.88863E-05
260.6067,-9.88345E-05
260.7067,-9.88166E-05
260.8067,-9.878459E-05
260.9067,-9.873844E-05
261.0067,-9.870454E-05
261.1067,-9.86584E-05
261.2067,-9.865934E-05
261.3067,-9.862731E-05
261.4067,-9.854162E-05
261.5067,-9.849831E-05
261.6068,-9.848511E-05
261.7068,-9.843332E-05
261.8068,-9.839847E-05
261.9068,-9.836175E-05
262.0068,-9.825909E-05
262.1068,-9.824592E-05
262.2068,-9.823461E-05
262.3068,-9.81734E-05
262.4068,-9.814514E-05
262.5068,-9.810277E-05
262.6068,-9.808676E-05
262.7068,-9.806322E-05
262.8068,-9.800766E-05
262.9068,-9.794645E-05
263.0068,-9.788899E-05
263.1068,-9.786922E-05
263.2068,-9.78212E-05
263.3069,-9.778164E-05
263.4069,-9.775998E-05
263.5069,-9.769312E-05
263.6069,-9.771007E-05
263.7069,-9.765733E-05
263.8069,-9.759895E-05
263.9069,-9.757258E-05
264.0069,-9.753113E-05
264.1069,-9.749064E-05
264.2069,-9.743697E-05
264.3069,-9.741907E-05
264.4069,-9.736351E-05
264.5069,-9.729664E-05
264.6069,-9.728724E-05
264.7069,-9.727122E-05
264.8069,-9.719872E-05
264.907,-9.716763E-05
265.007,-9.712902E-05
265.107,-9.711584E-05
265.207,-9.709795E-05
265.307,-9.703579E-05
265.407,-9.697646E-05
265.507,-9.694444E-05
265.607,-9.690395E-05
265.707,-9.68578E-05
265.807,-9.68239E-05
265.907,-9.676551E-05
266.007,-9.673255E-05
266.107,-9.669771E-05
266.207,-9.665062E-05
266.307,-9.662707E-05
266.407,-9.661201E-05
266.507,-9.654797E-05
266.6071,-9.65103E-05
266.7071,-9.645474E-05
266.8071,-9.642084E-05
266.9071,-9.641802E-05
267.0071,-9.636152E-05
267.1071,-9.629653E-05
267.2071,-9.62438E-05
267.3071,-9.624945E-05
267.4071,-9.620329E-05
267.5071,-9.615338E-05
267.6071,-9.611572E-05
267.7071,-9.607899E-05
267.8071,-9.605638E-05
267.9071,-9.601589E-05
268.0071,-9.592831E-05
268.1071,-9.594809E-05
268.2072,-9.59462E-05
268.3072,-9.590478E-05
268.4072,-9.586239E-05
268.5072,-9.584732E-05
268.6072,-9.58219E-05
268.7072,-9.57701E-05
268.8072,-9.570418E-05
268.9072,-9.568346E-05
269.0072,-9.563638E-05
269.1072,-9.558458E-05
269.2072,-9.555351E-05
269.3072,-9.549512E-05
269.4072,-9.546875E-05
269.5072,-9.544144E-05
269.6072,-9.536987E-05
269.7072,-9.534915E-05
269.8073,-9.532372E-05
269.9073,-9.524651E-05
270.0073,-9.523614E-05
270.1073,-9.518905E-05
270.2073,-9.516551E-05
270.3073,-9.515986E-05
270.4073,-9.506569E-05
270.5073,-9.505533E-05
270.6073,-9.503744E-05
270.7073,-9.501483E-05
270.8073,-9.495268E-05
270.9073,-9.491219E-05
271.0073,-9.48877E-05
271.1073,-9.48359E-05
271.2073,-9.482084E-05
271.3073,-9.475492E-05
271.4073,-9.470218E-05
271.5074,-9.469558E-05
271.6074,-9.464756E-05
271.7074,-9.460235E-05
271.8074,-9.454868E-05
271.9074,-9.452418E-05
272.0074,-9.448935E-05
272.1074,-9.447993E-05
272.2074,-9.443473E-05
272.3074,-9.434055E-05
272.4074,-9.436128E-05
272.5074,-9.433302E-05
272.6074,-9.42784E-05
272.7074,-9.424167E-05
272.8074,-9.420307E-05
272.9074,-9.415126E-05
273.0074,-9.412396E-05
273.1075,-9.408723E-05
273.2075,-9.403638E-05
273.3075,-9.40053E-05
273.4075,-9.398082E-05
273.5075,-9.393749E-05
273.6075,-9.392713E-05
273.7075,-9.390924E-05
273.8075,-9.382354E-05
273.9075,-9.379529E-05
274.0075,-9.37595E-05
274.1075,-9.371336E-05
274.2075,-9.369924E-05
274.3075,-9.367569E-05
274.4075,-9.360695E-05
274.5075,-9.357021E-05
274.6075,-9.353914E-05
274.7076,-9.349018E-05
274.8076,-9.346569E-05
274.9076,-9.345344E-05
275.0076,-9.337527E-05
275.1076,-9.336586E-05
275.2076,-9.332065E-05
275.3076,-9.330465E-05
275.4076,-9.324438E-05
275.5076,-9.322837E-05
275.6076,-9.317658E-05
275.7076,-9.313796E-05
275.8076,-9.30937E-05
275.9076,-9.305415E-05
276.0076,-9.303249E-05
276.1076,-9.301083E-05
276.2076,-9.294114E-05
276.3076,-9.291195E-05
276.4077,-9.287334E-05
276.5077,-9.286016E-05
276.6077,-9.280835E-05
276.7077,-9.278199E-05
276.8077,-9.273396E-05
276.9077,-9.270477E-05
277.0077,-9.269534E-05
277.1077,-9.26379E-05
277.2077,-9.259459E-05
277.3077,-9.258328E-05
277.4077,-9.256162E-05
277.5077,-9.250511E-05
277.6077,-9.24797E-05
277.7077,-9.243166E-05
277.8077,-9.237516E-05
277.9077,-9.236952E-05
278.0078,-9.232901E-05
278.1078,-9.2297E-05
278.2078,-9.227251E-05
278.3078,-9.224709E-05
278.4078,-9.219717E-05
278.5078,-9.21774E-05
278.6078,-9.211618E-05
278.7078,-9.206063E-05
278.8078,-9.202955E-05
278.9078,-9.199752E-05
279.0078,-9.194762E-05
279.1078,-9.194762E-05
279.2078,-9.186003E-05
279.3078,-9.182613E-05
279.4078,-9.183838E-05
279.5078,-9.179035E-05
279.6078,-9.173761E-05
279.7079,-9.168581E-05
279.8079,-9.165944E-05
279.9079,-9.16133E-05
280.0079,-9.158882E-05
280.1079,-9.153984E-05
280.2079,-9.150312E-05
280.3079,-9.147581E-05
280.4079,-9.146451E-05
280.5079,-9.139765E-05
280.6079,-9.140329E-05
280.7079,-9.13515E-05
280.8079,-9.130724E-05
280.9079,-9.129311E-05
281.0079,-9.123661E-05
281.1079,-9.1198E-05
281.2079,-9.118575E-05
281.308,-9.11236E-05
281.408,-9.107464E-05
281.508,-9.105579E-05
281.608,-9.102754E-05
281.708,-9.100871E-05
281.808,-9.097292E-05
281.908,-9.09296E-05
282.008,-9.085239E-05
282.108,-9.086933E-05
282.208,-9.083072E-05
282.308,-9.076858E-05
282.408,-9.075632E-05
282.508,-9.071772E-05
282.608,-9.069417E-05
282.708,-9.067816E-05
282.808,-9.061789E-05
282.9081,-9.055196E-05
283.0081,-9.055009E-05
283.1081,-9.051524E-05
283.2081,-9.048417E-05
283.3081,-9.045121E-05
283.4081,-9.040224E-05
283.5081,-9.036832E-05
283.6081,-9.035326E-05
283.7081,-9.029676E-05
283.8081,-9.026474E-05
283.9081,-9.023932E-05
284.0081,-9.023084E-05
284.1081,-9.017716E-05
284.2081,-9.015173E-05
284.3081,-9.012631E-05
284.4081,-9.006792E-05
284.5081,-9.003119E-05
284.6082,-9.000954E-05
284.7082,-8.996903E-05
284.8082,-8.993797E-05
284.9082,-8.990312E-05
285.0082,-8.987298E-05
285.1082,-8.988898E-05
285.2082,-8.986828E-05
285.3082,-8.977692E-05
285.4082,-8.975715E-05
285.5082,-8.973831E-05
285.6082,-8.970065E-05
285.7082,-8.963943E-05
285.8082,-8.961212E-05
285.9082,-8.954902E-05
286.0082,-8.955655E-05
286.1082,-8.953019E-05
286.2083,-8.946427E-05
286.3083,-8.943414E-05
286.4083,-8.943037E-05
286.5083,-8.940212E-05
286.6083,-8.936257E-05
286.7083,-8.929852E-05
286.8083,-8.922601E-05
286.9083,-8.925144E-05
287.0083,-8.921471E-05
287.1083,-8.919305E-05
287.2083,-8.915444E-05
287.3083,-8.911772E-05
287.4083,-8.905651E-05
287.5083,-8.900847E-05
287.6083,-8.902637E-05
287.7083,-8.897363E-05
287.8083,-8.892371E-05
287.9084,-8.889264E-05
288.0084,-8.882295E-05
288.1084,-8.881542E-05
288.2084,-8.878246E-05
288.3084,-8.87542E-05
288.4084,-8.869394E-05
288.5084,-8.866663E-05
288.6084,-8.86186E-05
288.7084,-8.862142E-05
288.8084,-8.859223E-05
288.9084,-8.853384E-05
289.0084,-8.850371E-05
289.1084,-8.845473E-05
289.2084,-8.84472E-05
289.3084,-8.845661E-05
289.4084,-8.839352E-05
289.5085,-8.833702E-05
289.6085,-8.830594E-05
289.7085,-8.828899E-05
289.8085,-8.823531E-05
289.9085,-8.823437E-05
290.0085,-8.81967E-05
290.1085,-8.81449E-05
290.2085,-8.81157E-05
290.3085,-8.810064E-05
290.4085,-8.805544E-05
290.5085,-8.804226E-05
290.6085,-8.800082E-05
290.7085,-8.795373E-05
290.8085,-8.793961E-05
290.9085,-8.792454E-05
291.0085,-8.786238E-05
291.1086,-8.783978E-05
291.2086,-8.780023E-05
291.3086,-8.778328E-05
291.4086,-8.77522E-05
291.5086,-8.770794E-05
291.6086,-8.76731E-05
291.7086,-8.76731E-05
291.8086,-8.764295E-05
291.9086,-8.757798E-05
292.0086,-8.756103E-05
292.1086,-8.752901E-05
292.2086,-8.751394E-05
292.3086,-8.748287E-05
292.4086,-8.745179E-05
292.5086,-8.73774E-05
292.6086,-8.738116E-05
292.7086,-8.735008E-05
292.8087,-8.728416E-05
292.9087,-8.725496E-05
293.0087,-8.724837E-05
293.1087,-8.720788E-05
293.2087,-8.718434E-05
293.3087,-8.715043E-05
293.4087,-8.709299E-05
293.5087,-8.70977E-05
293.6087,-8.706191E-05
293.7087,-8.701765E-05
293.8087,-8.698845E-05
293.9087,-8.694042E-05
294.0087,-8.692631E-05
294.1087,-8.690653E-05
294.2087,-8.687921E-05
294.3087,-8.680859E-05
294.4088,-8.67954E-05
294.5088,-8.679258E-05
294.6088,-8.67502E-05
294.7088,-8.672666E-05
294.8088,-8.668898E-05
294.9088,-8.668522E-05
295.0088,-8.666261E-05
295.1088,-8.663531E-05
295.2088,-8.657033E-05
295.3088,-8.652984E-05
295.4088,-8.65336E-05
295.5088,-8.64997E-05
295.6088,-8.646579E-05
295.7088,-8.643472E-05
295.8088,-8.639423E-05
295.9088,-8.638763E-05
296.0089,-8.634148E-05
296.1089,-8.631135E-05
296.2089,-8.626709E-05
296.3089,-8.628592E-05
296.4089,-8.624732E-05
296.5089,-8.61861E-05
296.6089,-8.617763E-05
296.7089,-8.614749E-05
296.8089,-8.609005E-05
296.9089,-8.607497E-05
297.0089,-8.601847E-05
297.1089,-8.599681E-05
297.2089,-8.602507E-05
297.3089,-8.605143E-05
297.4089,-8.596291E-05
297.5089,-8.592995E-05
297.6089,-8.593843E-05
297.709,-8.588946E-05
297.809,-8.584519E-05
297.909,-8.581035E-05
298.009,-8.578398E-05
298.109,-8.57303E-05
298.209,-8.571053E-05
298.309,-8.568416E-05
298.409,-8.564649E-05
298.509,-8.561636E-05
298.609,-8.557021E-05
298.709,-8.556362E-05
298.809,-8.552877E-05
298.909,-8.547604E-05
299.009,-8.545438E-05
299.109,-8.541859E-05
299.209,-8.539599E-05
299.3091,-8.538375E-05
299.4091,-8.535643E-05
299.5091,-8.529805E-05
299.6091,-8.52811E-05
299.7091,-8.526321E-05
299.8091,-8.525944E-05
299.9091,-8.524625E-05
300.0091,-8.515679E-05
300.1091,-8.513701E-05
300.2091,-8.52001E-05
300.3091,-8.516244E-05
300.4091,-8.507862E-05
300.5091,-8.506073E-05
300.6091,-8.503625E-05
300.7091,-8.499576E-05
300.8091,-8.497597E-05
300.9091,-8.4911E-05
301.0092,-8.490441E-05
301.1092,-8.492512E-05
301.2092,-8.489028E-05
301.3092,-8.483565E-05
301.4092,-8.482437E-05
301.5092,-8.481589E-05
301.6092,-8.474713E-05
301.7092,-8.474055E-05
301.8092,-8.471606E-05
301.9092,-8.467651E-05
302.0092,-8.463978E-05
302.1092,-8.462094E-05
302.2092,-8.460494E-05
302.3092,-8.456727E-05
302.4092,-8.452394E-05
302.5092,-8.448251E-05
302.6093,-8.446461E-05
302.7093,-8.44439E-05
302.8093,-8.440435E-05
302.9093,-8.437139E-05
303.0093,-8.43083E-05
303.1093,-8.43064E-05
303.2093,-8.430923E-05
303.3093,-8.424801E-05
303.4093,-8.419905E-05
303.5093,-8.418869E-05
303.6093,-8.416232E-05
303.7093,-8.411712E-05
303.8093,-8.410958E-05
303.9093,-8.40738E-05
304.0093,-8.402012E-05
304.1093,-8.401542E-05
304.2094,-8.39655E-05
304.3094,-8.39316E-05
304.4094,-8.393818E-05
304.5094,-8.388735E-05
304.6094,-8.385343E-05
304.7094,-8.38233E-05
304.8094,-8.380353E-05
304.9094,-8.377904E-05
305.0094,-8.375455E-05
305.1094,-8.367922E-05
305.2094,-8.367639E-05
305.3094,-8.370276E-05
305.4094,-8.369899E-05
305.5094,-8.36067E-05
305.6094,-8.356809E-05
305.7094,-8.355396E-05
305.8094,-8.353889E-05
305.9095,-8.351347E-05
306.0095,-8.346544E-05
306.1095,-8.340517E-05
306.2095,-8.340705E-05
306.3095,-8.339951E-05
306.4095,-8.337503E-05
306.5095,-8.331194E-05
306.6095,-8.329121E-05
306.7095,-8.326391E-05
306.8095,-8.327521E-05
306.9095,-8.32253E-05
307.0095,-8.317068E-05
307.1095,-8.316221E-05
307.2095,-8.311606E-05
307.3095,-8.308404E-05
307.4095,-8.309346E-05
307.5096,-8.304165E-05
307.6096,-8.299458E-05
307.7096,-8.301906E-05
307.8096,-8.30153E-05
307.9096,-8.294467E-05
308.0096,-8.291264E-05
308.1096,-8.289098E-05
308.2096,-8.285897E-05
308.3096,-8.283636E-05
308.4096,-8.28034E-05
308.5096,-8.276291E-05
308.6096,-8.275444E-05
308.7096,-8.272712E-05
308.8096,-8.268758E-05
308.9096,-8.266497E-05
309.0096,-8.262824E-05
309.1096,-8.258868E-05
309.2097,-8.258492E-05
309.3097,-8.254443E-05
309.4097,-8.251241E-05
309.5097,-8.250393E-05
309.6097,-8.246156E-05
309.7097,-8.239847E-05
309.8097,-8.242388E-05
309.9097,-8.240599E-05
310.0097,-8.235043E-05
310.1097,-8.233442E-05
310.2097,-8.230335E-05
310.3097,-8.225625E-05
310.4097,-8.225249E-05
310.5097,-8.222235E-05
310.6097,-8.217244E-05
310.7097,-8.215455E-05
310.8098,-8.214702E-05
310.9098,-8.207921E-05
311.0098,-8.20632E-05
311.1098,-8.208392E-05
311.2098,-8.19954E-05
311.3098,-8.198127E-05
311.4098,-8.199257E-05
311.5098,-8.199728E-05
311.6098,-8.19323E-05
311.7098,-8.188992E-05
311.8098,-8.186355E-05
311.9098,-8.181364E-05
312.0098,-8.18014E-05
312.1098,-8.178163E-05
312.2098,-8.174677E-05
312.3098,-8.171194E-05
312.4099,-8.16705E-05
312.5099,-8.16592E-05
312.6099,-8.163377E-05
312.7099,-8.159799E-05
312.8099,-8.156597E-05
312.9099,-8.156032E-05
313.0099,-8.149251E-05
313.1099,-8.148403E-05
313.2099,-8.146615E-05
313.3099,-8.142565E-05
313.4099,-8.136821E-05
313.5099,-8.137009E-05
313.6099,-8.133995E-05
313.7099,-8.130512E-05
313.8099,-8.129475E-05
313.9099,-8.122695E-05
314.0099,-8.12213E-05
314.11,-8.122788E-05
314.21,-8.115255E-05
314.31,-8.112995E-05
314.41,-8.118174E-05
314.51,-8.115349E-05
314.61,-8.110829E-05
314.71,-8.109323E-05
314.81,-8.10725E-05
314.91,-8.101599E-05
315.01,-8.101599E-05
315.11,-8.097738E-05
315.21,-8.092465E-05
315.31,-8.090865E-05
315.41,-8.090581E-05
315.51,-8.087944E-05
315.61,-8.085402E-05
315.7101,-8.081918E-05
315.8101,-8.079657E-05
315.9101,-8.075984E-05
316.0101,-8.070993E-05
316.1101,-8.068262E-05
316.2101,-8.069016E-05
316.3101,-8.064212E-05
316.4101,-8.060259E-05
316.5101,-8.05941E-05
316.6101,-8.057904E-05
316.7101,-8.05489E-05
316.8101,-8.051688E-05
316.9101,-8.047638E-05
317.0101,-8.045661E-05
317.1101,-8.048391E-05
317.2101,-8.043683E-05
317.3102,-8.03794E-05
317.4102,-8.044531E-05
317.5102,-8.046226E-05
317.6102,-8.039634E-05
317.7102,-8.03436E-05
317.8102,-8.033889E-05
317.9102,-8.030781E-05
318.0102,-8.027862E-05
318.1102,-8.025037E-05
318.2102,-8.023247E-05
318.3102,-8.018634E-05
318.4102,-8.01449E-05
318.5102,-8.016373E-05
318.6102,-8.015338E-05
318.7102,-8.010158E-05
318.8102,-8.003565E-05
318.9102,-8.00479E-05
319.0103,-8.003377E-05
319.1103,-7.998574E-05
319.2103,-7.996314E-05
319.3103,-7.992924E-05
319.4103,-7.989816E-05
319.5103,-7.987745E-05
319.6103,-7.986708E-05
319.7103,-7.984448E-05
319.8103,-7.98153E-05
319.9103,-7.978515E-05
320.0103,-7.976068E-05
320.1103,-7.975596E-05
320.2103,-7.972394E-05
320.3103,-7.97051E-05
320.4103,-7.967026E-05
320.5103,-7.963731E-05
320.6104,-7.963071E-05
320.7104,-7.959775E-05
320.8104,-7.957797E-05
320.9104,-7.955726E-05
321.0104,-7.952806E-05
321.1104,-7.948474E-05
321.2104,-7.947061E-05
321.3104,-7.947815E-05
321.4104,-7.941129E-05
321.5104,-7.939528E-05
321.6104,-7.938963E-05
321.7104,-7.937268E-05
321.8104,-7.935949E-05
321.9104,-7.932841E-05
322.0104,-7.930958E-05
322.1104,-7.925119E-05
322.2104,-7.925025E-05
322.3105,-7.925214E-05
322.4105,-7.920881E-05
322.5105,-7.918057E-05
322.6105,-7.912782E-05
322.7105,-7.914195E-05
322.8105,-7.912782E-05
322.9105,-7.909298E-05
323.0105,-7.903836E-05
323.1105,-7.903742E-05
323.2105,-7.899976E-05
323.3105,-7.896867E-05
323.4105,-7.89715E-05
323.5105,-7.890652E-05
323.6105,-7.888863E-05
323.7105,-7.889522E-05
323.8105,-7.886885E-05
323.9106,-7.878881E-05
324.0106,-7.877656E-05
324.1106,-7.878127E-05
324.2106,-7.875114E-05
324.3106,-7.875208E-05
324.4106,-7.87031E-05
324.5106,-7.8624E-05
324.6106,-7.864378E-05
324.7106,-7.861553E-05
324.8106,-7.857221E-05
324.9106,-7.857126E-05
325.0106,-7.8527E-05
325.1106,-7.847897E-05
325.2106,-7.848933E-05
325.3106,-7.846391E-05
325.4106,-7.842341E-05
325.5107,-7.839798E-05
325.6107,-7.83556E-05
325.7107,-7.837349E-05
325.8107,-7.836879E-05
325.9107,-7.829721E-05
326.0107,-7.825484E-05
326.1107,-7.825672E-05
326.2107,-7.822659E-05
326.3107,-7.819928E-05
326.4107,-7.817385E-05
326.5107,-7.817668E-05
326.6107,-7.814278E-05
326.7107,-7.813995E-05
326.8107,-7.80938E-05
326.9107,-7.805332E-05
327.0107,-7.804484E-05
327.1107,-7.803824E-05
327.2108,-7.796573E-05
327.3108,-7.794595E-05
327.4108,-7.792052E-05
327.5108,-7.787344E-05
327.6108,-7.787909E-05
327.7108,-7.785272E-05
327.8108,-7.78094E-05
327.9108,-7.776703E-05
328.0108,-7.773783E-05
328.1108,-7.77077E-05
328.2108,-7.770486E-05
328.3108,-7.767379E-05
328.4108,-7.7622E-05
328.5108,-7.759657E-05
328.6108,-7.758904E-05
328.7108,-7.754666E-05
328.8109,-7.753724E-05
328.9109,-7.751464E-05
329.0109,-7.746943E-05
329.1109,-7.744777E-05
329.2109,-7.74459E-05
329.3109,-7.740917E-05
329.4109,-7.738656E-05
329.5109,-7.73536E-05
329.6109,-7.731216E-05
329.7109,-7.73131E-05
329.8109,-7.730275E-05
329.9109,-7.722458E-05
330.0109,-7.727262E-05
330.1109,-7.726508E-05
330.2109,-7.720669E-05
330.3109,-7.716714E-05
330.4109,-7.716902E-05
330.511,-7.711158E-05
330.611,-7.709557E-05
330.711,-7.707861E-05
330.811,-7.701552E-05
330.911,-7.697786E-05
331.011,-7.699292E-05
331.111,-7.696561E-05
331.211,-7.695337E-05
331.311,-7.691381E-05
331.411,-7.68639E-05
331.511,-7.686202E-05
331.611,-7.687521E-05
331.711,-7.682529E-05
331.811,-7.679798E-05
331.911,-7.678291E-05
332.011,-7.676125E-05
332.1111,-7.672924E-05
332.2111,-7.671888E-05
332.3111,-7.668027E-05
332.4111,-7.662941E-05
332.5111,-7.660963E-05
332.6111,-7.660304E-05
332.7111,-7.656067E-05
332.8111,-7.654654E-05
332.9111,-7.651735E-05
333.0111,-7.650229E-05
333.1111,-7.649098E-05
333.2111,-7.644012E-05
333.3111,-7.644012E-05
333.4111,-7.641093E-05
333.5111,-7.641093E-05
333.6111,-7.636667E-05
333.7112,-7.637044E-05
333.8112,-7.63064E-05
333.9112,-7.627343E-05
334.0112,-7.627815E-05
334.1112,-7.62433E-05
334.2112,-7.621411E-05
334.3112,-7.620375E-05
334.4112,-7.619245E-05
334.5112,-7.615761E-05
334.6112,-7.613972E-05
334.7112,-7.609357E-05
334.8112,-7.609451E-05
334.9112,-7.610204E-05
335.0112,-7.607002E-05
335.1112,-7.600599E-05
335.2112,-7.599751E-05
335.3112,-7.599469E-05
335.4113,-7.596266E-05
335.5113,-7.5925E-05
335.6113,-7.589487E-05
335.7113,-7.584588E-05
335.8113,-7.58393E-05
335.9113,-7.583742E-05
336.0113,-7.576679E-05
336.1113,-7.575831E-05
336.2113,-7.575737E-05
336.3113,-7.57084E-05
336.4113,-7.569522E-05
336.5113,-7.56792E-05
336.6113,-7.565002E-05
336.7113,-7.564624E-05
336.8113,-7.5634E-05
336.9113,-7.562836E-05
337.0114,-7.558409E-05
337.1114,-7.554548E-05
337.2114,-7.550028E-05
337.3114,-7.550687E-05
337.4114,-7.548992E-05
337.5114,-7.546638E-05
337.6114,-7.542493E-05
337.7114,-7.543813E-05
337.8114,-7.545225E-05
337.9114,-7.542211E-05
338.0114,-7.536373E-05
338.1114,-7.534488E-05
338.2114,-7.530816E-05
338.3114,-7.532135E-05
338.4114,-7.527332E-05
338.5114,-7.524036E-05
338.6115,-7.521117E-05
338.7115,-7.519234E-05
338.8115,-7.516596E-05
338.9115,-7.516973E-05
339.0115,-7.517444E-05
339.1115,-7.512642E-05
339.2115,-7.508686E-05
339.3115,-7.508686E-05
339.4115,-7.506991E-05
339.5115,-7.504919E-05
339.6115,-7.500681E-05
339.7115,-7.49795E-05
339.8115,-7.499551E-05
339.9115,-7.496255E-05
340.0115,-7.49004E-05
340.1115,-7.490134E-05
340.2115,-7.488062E-05
340.3116,-7.485519E-05
340.4116,-7.482788E-05
340.5116,-7.481564E-05
340.6116,-7.477514E-05
340.7116,-7.476479E-05
340.8116,-7.472052E-05
340.9116,-7.468568E-05
341.0116,-7.467438E-05
341.1116,-7.468851E-05
341.2116,-7.463483E-05
341.3116,-7.461128E-05
341.4116,-7.459528E-05
341.5116,-7.45689E-05
341.6116,-7.456326E-05
341.7116,-7.45416E-05
341.8116,-7.450016E-05
341.9117,-7.447002E-05
342.0117,-7.445307E-05
342.1117,-7.444836E-05
342.2117,-7.443329E-05
342.3117,-7.439091E-05
342.4117,-7.435136E-05
342.5117,-7.434572E-05
342.6117,-7.434289E-05
342.7117,-7.430145E-05
342.8117,-7.426379E-05
342.9117,-7.423742E-05
343.0117,-7.420633E-05
343.1117,-7.422706E-05
343.2117,-7.418374E-05
343.3117,-7.412346E-05
343.4117,-7.415642E-05
343.5117,-7.41489E-05
343.6118,-7.410463E-05
343.7118,-7.407826E-05
343.8118,-7.405849E-05
343.9118,-7.402364E-05
344.0118,-7.403307E-05
344.1118,-7.398032E-05
344.2118,-7.393135E-05
344.3118,-7.393606E-05
344.4118,-7.394642E-05
344.5118,-7.38918E-05
344.6118,-7.389275E-05
344.7118,-7.383906E-05
344.8118,-7.380799E-05
344.9118,-7.380328E-05
345.0118,-7.379951E-05
345.1118,-7.374771E-05
345.2119,-7.372983E-05
345.3119,-7.369687E-05
345.4119,-7.367332E-05
345.5119,-7.366013E-05
345.6119,-7.367614E-05
345.7119,-7.360269E-05
345.8119,-7.357914E-05
345.9119,-7.356596E-05
346.0119,-7.353959E-05
346.1119,-7.355466E-05
346.2119,-7.352735E-05
346.3119,-7.347179E-05
346.4119,-7.345672E-05
346.5119,-7.346048E-05
346.6119,-7.341999E-05
346.7119,-7.339175E-05
346.812,-7.33616E-05
346.912,-7.331264E-05
347.012,-7.33277E-05
347.112,-7.330321E-05
347.212,-7.326743E-05
347.312,-7.3242E-05
347.412,-7.323918E-05
347.512,-7.318739E-05
347.612,-7.319774E-05
347.712,-7.316855E-05
347.812,-7.314124E-05
347.912,-7.310075E-05
348.012,-7.308945E-05
348.112,-7.306213E-05
348.212,-7.303859E-05
348.312,-7.302635E-05
348.412,-7.298208E-05
348.5121,-7.299527E-05
348.6121,-7.296042E-05
348.7121,-7.292747E-05
348.8121,-7.290675E-05
348.9121,-7.288509E-05
349.0121,-7.289545E-05
349.1121,-7.283894E-05
349.2121,-7.280221E-05
349.3121,-7.27815E-05
349.4121,-7.276266E-05
349.5121,-7.273535E-05
349.6121,-7.271746E-05
349.7121,-7.270804E-05
349.8121,-7.268168E-05
349.9121,-7.262234E-05
350.0121,-7.267508E-05
350.1122,-7.26619E-05
350.2122,-7.262234E-05
350.3122,-7.25762E-05
350.4122,-7.256113E-05
350.5122,-7.254795E-05
350.6122,-7.252064E-05
350.7122,-7.249239E-05
350.8122,-7.245943E-05
350.9122,-7.241893E-05
351.0122,-7.242081E-05
351.1122,-7.238973E-05
351.2122,-7.234831E-05
351.3122,-7.236148E-05
351.4122,-7.233794E-05
351.5122,-7.229086E-05
351.6122,-7.228614E-05
351.7122,-7.224754E-05
351.8123,-7.222682E-05
351.9123,-7.223058E-05
352.0123,-7.220705E-05
352.1123,-7.216373E-05
352.2123,-7.214583E-05
352.3123,-7.214677E-05
352.4123,-7.211192E-05
352.5123,-7.212041E-05
352.6123,-7.205731E-05
352.7123,-7.20413E-05
352.8123,-7.204695E-05
352.9123,-7.200834E-05
353.0123,-7.195654E-05
353.1123,-7.19782E-05
353.2123,-7.194335E-05
353.3123,-7.190663E-05
353.4124,-7.190851E-05
353.5124,-7.191322E-05
353.6124,-7.188968E-05
353.7124,-7.185483E-05
353.8124,-7.184166E-05
353.9124,-7.182376E-05
354.0124,-7.179457E-05
354.1124,-7.176443E-05
354.2124,-7.177196E-05
354.3124,-7.174277E-05
354.4124,-7.170981E-05
354.5124,-7.168815E-05
354.6124,-7.167403E-05
354.7124,-7.168249E-05
354.8124,-7.165048E-05
354.9124,-7.16486E-05
355.0125,-7.164012E-05
355.1125,-7.159586E-05
355.2125,-7.157797E-05
355.3125,-7.156291E-05
355.4125,-7.152617E-05
355.5125,-7.150733E-05
355.6125,-7.148756E-05
355.7125,-7.146213E-05
355.8125,-7.143482E-05
355.9125,-7.141222E-05
356.0125,-7.138585E-05
356.1125,-7.138208E-05
356.2125,-7.135572E-05
356.3125,-7.132653E-05
356.4125,-7.129544E-05
356.5125,-7.130581E-05
356.6125,-7.128414E-05
356.7126,-7.127378E-05
356.8126,-7.123235E-05
356.9126,-7.119375E-05
357.0126,-7.12041E-05
357.1126,-7.117585E-05
357.2126,-7.113158E-05
357.3126,-7.110051E-05
357.4126,-7.112217E-05
357.5126,-7.108356E-05
357.6126,-7.10619E-05
357.7126,-7.105437E-05
357.8126,-7.102423E-05
357.9126,-7.100162E-05
358.0126,-7.098656E-05
358.1126,-7.093759E-05
358.2126,-7.094042E-05
358.3127,-7.093852E-05
358.4127,-7.089427E-05
358.5127,-7.085E-05
358.6127,-7.084529E-05
358.7127,-7.084812E-05
358.8127,-7.078973E-05
358.9127,-7.077561E-05
359.0127,-7.078409E-05
359.1127,-7.079726E-05
359.2127,-7.076148E-05
359.3127,-7.075207E-05
359.4127,-7.077184E-05
359.5127,-7.075395E-05
359.6127,-7.068426E-05
359.7127,-7.064942E-05
359.8127,-7.065506E-05
359.9128,-7.060421E-05
360.0128,-7.055901E-05
360.1128,-7.054488E-05
360.2128,-7.054018E-05
360.3128,-7.050251E-05
360.4128,-7.045918E-05
360.5128,-7.045166E-05
360.6128,-7.042434E-05
360.7128,-7.044695E-05
360.8128,-7.042246E-05
360.9128,-7.036784E-05
361.0128,-7.03377E-05
361.1128,-7.032359E-05
361.2128,-7.030663E-05
361.3128,-7.031604E-05
361.4128,-7.025766E-05
361.5128,-7.023694E-05
361.6129,-7.023223E-05
361.7129,-7.021717E-05
361.8129,-7.01908E-05
361.9129,-7.017478E-05
362.0129,-7.014276E-05
362.1129,-7.011451E-05
362.2129,-7.012205E-05
362.3129,-7.010886E-05
362.4129,-7.002035E-05
362.5129,-7.00712E-05
362.6129,-7.006272E-05
362.7129,-7.001752E-05
362.8129,-6.997796E-05
362.9129,-6.996666E-05
363.0129,-6.995347E-05
363.1129,-6.992617E-05
363.213,-6.993088E-05
363.313,-6.986778E-05
363.413,-6.985742E-05
363.513,-6.985271E-05
363.613,-6.980751E-05
363.713,-6.981033E-05
363.813,-6.978585E-05
363.913,-6.97576E-05
364.013,-6.975477E-05
364.113,-6.972652E-05
364.213,-6.969544E-05
364.313,-6.969074E-05
364.413,-6.969168E-05
364.513,-6.965024E-05
364.613,-6.962765E-05
364.713,-6.96267E-05
364.813,-6.961351E-05
364.9131,-6.958997E-05
365.0131,-6.956643E-05
365.1131,-6.952216E-05
365.2131,-6.951464E-05
365.3131,-6.950709E-05
365.4131,-6.94666E-05
365.5131,-6.942893E-05
365.6131,-6.943082E-05
365.7131,-6.943647E-05
365.8131,-6.94214E-05
365.9131,-6.937902E-05
366.0131,-6.937714E-05
366.1131,-6.93197E-05
366.2131,-6.933005E-05
366.3131,-6.931216E-05
366.4131,-6.928767E-05
366.5132,-6.926884E-05
366.6132,-6.921893E-05
366.7132,-6.920574E-05
366.8132,-6.920763E-05
366.9132,-6.919632E-05
367.0132,-6.917185E-05
367.1132,-6.913417E-05
367.2132,-6.911722E-05
367.3132,-6.908332E-05
367.4132,-6.910875E-05
367.5132,-6.907955E-05
367.6132,-6.903247E-05
367.7132,-6.902211E-05
367.8132,-6.899291E-05
367.9132,-6.900045E-05
368.0132,-6.900045E-05
368.1133,-6.89543E-05
368.2133,-6.891474E-05
368.3133,-6.893735E-05
368.4133,-6.891757E-05
368.5133,-6.889121E-05
368.6133,-6.88799E-05
368.7133,-6.885824E-05
368.8133,-6.884224E-05
368.9133,-6.88639E-05
369.0133,-6.884788E-05
369.1133,-6.878009E-05
369.2133,-6.876407E-05
369.3133,-6.874335E-05
369.4133,-6.872923E-05
369.5133,-6.870945E-05
369.6133,-6.868403E-05
369.7133,-6.864071E-05
369.8134,-6.864918E-05
369.9134,-6.863788E-05
370.0134,-6.861811E-05
370.1134,-6.861811E-05
370.2134,-6.859456E-05
370.3134,-6.857007E-05
370.4134,-6.856443E-05
370.5134,-6.852392E-05
370.6134,-6.848061E-05
370.7134,-6.847779E-05
370.8134,-6.847685E-05
370.9134,-6.842034E-05
371.0134,-6.841658E-05
371.1134,-6.842976E-05
371.2134,-6.83968E-05
371.3134,-6.834029E-05
371.4135,-6.837325E-05
371.5135,-6.837514E-05
371.6135,-6.833558E-05
371.7135,-6.828285E-05
371.8135,-6.828379E-05
371.9135,-6.82772E-05
372.0135,-6.824141E-05
372.1135,-6.82141E-05
372.2135,-6.821599E-05
372.3135,-6.81802E-05
372.4135,-6.8135E-05
372.5135,-6.813594E-05
372.6135,-6.812275E-05
372.7135,-6.81058E-05
372.8135,-6.808132E-05
372.9135,-6.805213E-05
373.0135,-6.803611E-05
373.1136,-6.802952E-05
373.2136,-6.801257E-05
373.3136,-6.798902E-05
373.4136,-6.799562E-05
373.5136,-6.79862E-05
373.6136,-6.797679E-05
373.7136,-6.792687E-05
373.8136,-6.792405E-05
373.9136,-6.791558E-05
374.0136,-6.787413E-05
374.1136,-6.787884E-05
374.2136,-6.782234E-05
374.3136,-6.783176E-05
374.4136,-6.780162E-05
374.5136,-6.776961E-05
374.6136,-6.781104E-05
374.7137,-6.777996E-05
374.8137,-6.774136E-05
374.9137,-6.769991E-05
375.0137,-6.769332E-05
375.1137,-6.770086E-05
375.2137,-6.76679E-05
375.3137,-6.765754E-05
375.4137,-6.762552E-05
375.5137,-6.75982E-05
375.6137,-6.759255E-05
375.7137,-6.757184E-05
375.8137,-6.75709E-05
375.9137,-6.756902E-05
376.0137,-6.75144E-05
376.1137,-6.749367E-05
376.2137,-6.750309E-05
376.3138,-6.748803E-05
376.4138,-6.745224E-05
376.5138,-6.745506E-05
376.6138,-6.742587E-05
376.7138,-6.737219E-05
376.8138,-6.738256E-05
376.9138,-6.737879E-05
377.0138,-6.734677E-05
377.1138,-6.733264E-05
377.2138,-6.730721E-05
377.3138,-6.729968E-05
377.4138,-6.729027E-05
377.5138,-6.72573E-05
377.6138,-6.721775E-05
377.7138,-6.723471E-05
377.8138,-6.720927E-05
377.9138,-6.718291E-05
378.0139,-6.718008E-05
378.1139,-6.714524E-05
378.2139,-6.710004E-05
378.3139,-6.712075E-05
378.4139,-6.712546E-05
378.5139,-6.706424E-05
378.6139,-6.706519E-05
378.7139,-6.707084E-05
378.8139,-6.700869E-05
378.9139,-6.698891E-05
379.0139,-6.69955E-05
379.1139,-6.698986E-05
379.2139,-6.695689E-05
379.3139,-6.694841E-05
379.4139,-6.692582E-05
379.5139,-6.689851E-05
379.614,-6.689945E-05
379.714,-6.686554E-05
379.814,-6.682975E-05
379.914,-6.683353E-05
380.014,-6.680997E-05
380.114,-6.68015E-05
380.214,-6.678267E-05
380.314,-6.674312E-05
380.414,-6.674406E-05
380.514,-6.675253E-05
380.614,-6.66998E-05
380.714,-6.667249E-05
380.814,-6.668661E-05
380.914,-6.667343E-05
381.014,-6.666495E-05
381.114,-6.665366E-05
381.2141,-6.662634E-05
381.3141,-6.660185E-05
381.4141,-6.661692E-05
381.5141,-6.656042E-05
381.6141,-6.655571E-05
381.7141,-6.654535E-05
381.8141,-6.651616E-05
381.9141,-6.648979E-05
382.0141,-6.650203E-05
382.1141,-6.647661E-05
382.2141,-6.647096E-05
382.3141,-6.643611E-05
382.4141,-6.639185E-05
382.5141,-6.64267E-05
382.6141,-6.641445E-05
382.7141,-6.637772E-05
382.8141,-6.635419E-05
382.9142,-6.633911E-05
383.0142,-6.631087E-05
383.1142,-6.628921E-05
383.2142,-6.62845E-05
383.3142,-6.624118E-05
383.4142,-6.623647E-05
383.5142,-6.623082E-05
383.6142,-6.619974E-05
383.7142,-6.619786E-05
383.8142,-6.620351E-05
383.9142,-6.615359E-05
384.0142,-6.613381E-05
384.1142,-6.613476E-05
384.2142,-6.612911E-05
384.3142,-6.609521E-05
384.4142,-6.610744E-05
384.5143,-6.608485E-05
384.6143,-6.606225E-05
384.7143,-6.605282E-05
384.8143,-6.603116E-05
384.9143,-6.600103E-05
385.0143,-6.599727E-05
385.1143,-6.596713E-05
385.2143,-6.593134E-05
385.3143,-6.593888E-05
385.4143,-6.595489E-05
385.5143,-6.591628E-05
385.6143,-6.591062E-05
385.7143,-6.589179E-05
385.8143,-6.583529E-05
385.9143,-6.588614E-05
386.0143,-6.584941E-05
386.1143,-6.57929E-05
386.2144,-6.579667E-05
386.3144,-6.57929E-05
386.4144,-6.575713E-05
386.5144,-6.574018E-05
386.6144,-6.57025E-05
386.7144,-6.567237E-05
386.8144,-6.569686E-05
386.9144,-6.566295E-05
387.0144,-6.561398E-05
387.1144,-6.562528E-05
387.2144,-6.559514E-05
387.3144,-6.559326E-05
387.4144,-6.558291E-05
387.5144,-6.554617E-05
387.6144,-6.550569E-05
387.7144,-6.554805E-05
387.8145,-6.553205E-05
387.9145,-6.547931E-05
388.0145,-6.546142E-05
388.1145,-6.543411E-05
388.2145,-6.541998E-05
388.3145,-6.543882E-05
388.4145,-6.539268E-05
388.5145,-6.534652E-05
388.6145,-6.537572E-05
388.7145,-6.538797E-05
388.8145,-6.531075E-05
388.9145,-6.528908E-05
389.0145,-6.528531E-05
389.1145,-6.526365E-05
389.2145,-6.527684E-05
389.3145,-6.525141E-05
389.4146,-6.522034E-05
389.5146,-6.521657E-05
389.6146,-6.520715E-05
389.7146,-6.516383E-05
389.8146,-6.515535E-05
389.9146,-6.514123E-05
390.0146,-6.510262E-05
390.1146,-6.511392E-05
390.2146,-6.510921E-05
390.3146,-6.507437E-05
390.4146,-6.503293E-05
390.5146,-6.502728E-05
390.6146,-6.500468E-05
390.7146,-6.500939E-05
390.8146,-6.499056E-05
390.9146,-6.493781E-05
391.0146,-6.496701E-05
391.1147,-6.496513E-05
391.2147,-6.488697E-05
391.3147,-6.487567E-05
391.4147,-6.488508E-05
391.5147,-6.48832E-05
391.6147,-6.485965E-05
391.7147,-6.482293E-05
391.8147,-6.478431E-05
391.9147,-6.479091E-05
392.0147,-6.479279E-05
392.1147,-6.473346E-05
392.2147,-6.47184E-05
392.3147,-6.473157E-05
392.4147,-6.470804E-05
392.5147,-6.470804E-05
392.6147,-6.466849E-05
392.7148,-6.46261E-05
392.8148,-6.463834E-05
392.9148,-6.466189E-05
393.0148,-6.457148E-05
393.1148,-6.459597E-05
393.2148,-6.461857E-05
393.3148,-6.457243E-05
393.4148,-6.454229E-05
393.5148,-6.451404E-05
393.6148,-6.449426E-05
393.7148,-6.451686E-05
393.8148,-6.45065E-05
393.9148,-6.444247E-05
394.0148,-6.441798E-05
394.1148,-6.442929E-05
394.2148,-6.440104E-05
394.3148,-6.439255E-05
394.4149,-6.437561E-05
394.5149,-6.431533E-05
394.6149,-6.430873E-05
394.7149,-6.429933E-05
394.8149,-6.429744E-05
394.9149,-6.430121E-05
395.0149,-6.42626E-05
395.1149,-6.420515E-05
395.2149,-6.422398E-05
395.3149,-6.421174E-05
395.4149,-6.417314E-05
395.5149,-6.414865E-05
395.6149,-6.415336E-05
395.7149,-6.407895E-05
395.8149,-6.40912E-05
395.9149,-6.408367E-05
396.015,-6.404788E-05
396.115,-6.404694E-05
396.215,-6.400362E-05
396.315,-6.398479E-05
396.415,-6.398479E-05
396.515,-6.399985E-05
396.615,-6.392734E-05
396.715,-6.392922E-05
396.815,-6.393393E-05
396.915,-6.390286E-05
397.015,-6.38925E-05
397.115,-6.387837E-05
397.215,-6.388778E-05
397.315,-6.386801E-05
397.415,-6.385859E-05
397.515,-6.383505E-05
397.6151,-6.380397E-05
397.7151,-6.381245E-05
397.8151,-6.375594E-05
397.9151,-6.375689E-05
398.0151,-6.375407E-05
398.1151,-6.373994E-05
398.2151,-6.37211E-05
398.3151,-6.368249E-05
398.4151,-6.368155E-05
398.5151,-6.371545E-05
398.6151,-6.367496E-05
398.7151,-6.362599E-05
398.8151,-6.363258E-05
398.9151,-6.362222E-05
399.0151,-6.35676E-05
399.1151,-6.35723E-05
399.2151,-6.356477E-05
399.3152,-6.352145E-05
399.4152,-6.350733E-05
399.5152,-6.351392E-05
399.6152,-6.35045E-05
399.7152,-6.349886E-05
399.8152,-6.349038E-05
399.9152,-6.346401E-05
400.0152,-6.343481E-05
400.1152,-6.343105E-05
400.2152,-6.341127E-05
400.3152,-6.341127E-05
400.4152,-6.33736E-05
400.5152,-6.334346E-05
400.6152,-6.333217E-05
400.7152,-6.334535E-05
400.8152,-6.335288E-05
400.9153,-6.335288E-05
401.0153,-6.330392E-05
401.1153,-6.327567E-05
401.2153,-6.323517E-05
401.3153,-6.328696E-05
401.4153,-6.322104E-05
401.5153,-6.320315E-05
401.6153,-6.319656E-05
401.7153,-6.318713E-05
401.8153,-6.315795E-05
401.9153,-6.317113E-05
402.0153,-6.313252E-05
402.1153,-6.311556E-05
402.2153,-6.311086E-05
402.3153,-6.312592E-05
402.4153,-6.309296E-05
402.5154,-6.307319E-05
402.6154,-6.304965E-05
402.7154,-6.303081E-05
402.8154,-6.304965E-05
402.9154,-6.306565E-05
403.0154,-6.302611E-05
403.1154,-6.301009E-05
403.2154,-6.302234E-05
403.3154,-6.300445E-05
403.4154,-6.296112E-05
403.5154,-6.295359E-05
403.6154,-6.292346E-05
403.7154,-6.28905E-05
403.8154,-6.287825E-05
403.9154,-6.287637E-05
404.0154,-6.285754E-05
404.1154,-6.28208E-05
404.2155,-6.283022E-05
404.3155,-6.280574E-05
404.4155,-6.280856E-05
404.5155,-6.278596E-05
404.6155,-6.275112E-05
404.7155,-6.27238E-05
404.8155,-6.274076E-05
404.9155,-6.272851E-05
405.0155,-6.267578E-05
405.1155,-6.267295E-05
405.2155,-6.267389E-05
405.3155,-6.266824E-05
405.4155,-6.262399E-05
405.5155,-6.264094E-05
405.6155,-6.258161E-05
405.7155,-6.256653E-05
405.8156,-6.258349E-05
405.9156,-6.256371E-05
406.0156,-6.251851E-05
406.1156,-6.25204E-05
406.2156,-6.252322E-05
406.3156,-6.245165E-05
406.4156,-6.248838E-05
406.5156,-6.249873E-05
406.6156,-6.244505E-05
406.7156,-6.241775E-05
406.8156,-6.240267E-05
406.9156,-6.238384E-05
407.0156,-6.238573E-05
407.1156,-6.239326E-05
407.2156,-6.233958E-05
407.3156,-6.232828E-05
407.4156,-6.231604E-05
407.5157,-6.232263E-05
407.6157,-6.232169E-05
407.7157,-6.228779E-05
407.8157,-6.225953E-05
407.9157,-6.225671E-05
408.0157,-6.222846E-05
408.1157,-6.220868E-05
408.2157,-6.22294E-05
408.3157,-6.220209E-05
408.4157,-6.215877E-05
408.5157,-6.213617E-05
408.6157,-6.216348E-05
408.7157,-6.213334E-05
408.8157,-6.211545E-05
408.9157,-6.209756E-05
409.0157,-6.208626E-05
409.1158,-6.208343E-05
409.2158,-6.206836E-05
409.3158,-6.204576E-05
409.4158,-6.2042E-05
409.5158,-6.202693E-05
409.6158,-6.199208E-05
409.7158,-6.200715E-05
409.8158,-6.198361E-05
409.9158,-6.193275E-05
410.0158,-6.195912E-05
410.1158,-6.197325E-05
410.2158,-6.191203E-05
410.3158,-6.189696E-05
410.4158,-6.189037E-05
410.5158,-6.186965E-05
410.6158,-6.1848E-05
410.7159,-6.183575E-05
410.8159,-6.181974E-05
410.9159,-6.180656E-05
411.0159,-6.179997E-05
411.1159,-6.174629E-05
411.2159,-6.174912E-05
411.3159,-6.17557E-05
411.4159,-6.17218E-05
411.5159,-6.169167E-05
411.6159,-6.17058E-05
411.7159,-6.170203E-05
411.8159,-6.166247E-05
411.9159,-6.164835E-05
412.0159,-6.1654E-05
412.1159,-6.160503E-05
412.2159,-6.161538E-05
412.3159,-6.159467E-05
412.416,-6.156924E-05
412.516,-6.156265E-05
412.616,-6.154853E-05
412.716,-6.151557E-05
412.816,-6.151839E-05
412.916,-6.150332E-05
413.016,-6.149956E-05
413.116,-6.147224E-05
413.216,-6.144117E-05
413.316,-6.144871E-05
413.416,-6.14374E-05
413.516,-6.143928E-05
413.616,-6.139503E-05
413.716,-6.142987E-05
413.816,-6.137619E-05
413.916,-6.133946E-05
414.0161,-6.13357E-05
414.1161,-6.133475E-05
414.2161,-6.130744E-05
414.3161,-6.132345E-05
414.4161,-6.129802E-05
414.5161,-6.125189E-05
414.6161,-6.125847E-05
414.7161,-6.125847E-05
414.8161,-6.123681E-05
414.9161,-6.123305E-05
415.0161,-6.122551E-05
415.1161,-6.11822E-05
415.2161,-6.116995E-05
415.3161,-6.11756E-05
415.4161,-6.113322E-05
415.5161,-6.113699E-05
415.6161,-6.112004E-05
415.7162,-6.107201E-05
415.8162,-6.107295E-05
415.9162,-6.107766E-05
416.0162,-6.105223E-05
416.1162,-6.104093E-05
416.2162,-6.101268E-05
416.3162,-6.098631E-05
416.4162,-6.101174E-05
416.5162,-6.099008E-05
416.6162,-6.092604E-05
416.7162,-6.096748E-05
416.8162,-6.095806E-05
416.9162,-6.09185E-05
417.0162,-6.091662E-05
417.1162,-6.090627E-05
417.2162,-6.087048E-05
417.3163,-6.087236E-05
417.4163,-6.085636E-05
417.5163,-6.081868E-05
417.6163,-6.083281E-05
417.7163,-6.081398E-05
417.8163,-6.079703E-05
417.9163,-6.081492E-05
418.0163,-6.078196E-05
418.1163,-6.074994E-05
418.2163,-6.074241E-05
418.3163,-6.072169E-05
418.4163,-6.070662E-05
418.5163,-6.071133E-05
418.6163,-6.069343E-05
418.7163,-6.064164E-05
418.8163,-6.065859E-05
418.9164,-6.065012E-05
419.0164,-6.061056E-05
419.1164,-6.060209E-05
419.2164,-6.060586E-05
419.3164,-6.054558E-05
419.4164,-6.058514E-05
419.5164,-6.056253E-05
419.6164,-6.052298E-05
419.7164,-6.050415E-05
419.8164,-6.050415E-05
419.9164,-6.048342E-05
420.0164,-6.047212E-05
420.1164,-6.046271E-05
420.2164,-6.041845E-05
420.3164,-6.044764E-05
420.4164,-6.04128E-05
420.5164,-6.040526E-05
420.6165,-6.04015E-05
420.7165,-6.038455E-05
420.8165,-6.03384E-05
420.9165,-6.033275E-05
421.0165,-6.034311E-05
421.1165,-6.035253E-05
421.2165,-6.031674E-05
421.3165,-6.028849E-05
421.4165,-6.026683E-05
421.5165,-6.029037E-05
421.6165,-6.026212E-05
421.7165,-6.018584E-05
421.8165,-6.021504E-05
421.9165,-6.02527E-05
422.0165,-6.026871E-05
422.1165,-6.019244E-05
422.2166,-6.018961E-05
422.3166,-6.018678E-05
422.4166,-6.017548E-05
422.5166,-6.013781E-05
422.6166,-6.010014E-05
422.7166,-6.009638E-05
422.8166,-6.00766E-05
422.9166,-6.006907E-05
423.0166,-6.003799E-05
423.1166,-6.002386E-05
423.2166,-6.001539E-05
423.3166,-6.000126E-05
423.4166,-5.999467E-05
423.5166,-5.996642E-05
423.6166,-5.993534E-05
423.7166,-5.995229E-05
423.8167,-5.993816E-05
423.9167,-5.993346E-05
424.0167,-5.992216E-05
424.1167,-5.988543E-05
424.2167,-5.987319E-05
424.3167,-5.989578E-05
424.4167,-5.987695E-05
424.5167,-5.984399E-05
424.6167,-5.983081E-05
424.7167,-5.982705E-05
424.8167,-5.980915E-05
424.9167,-5.980821E-05
425.0167,-5.977336E-05
425.1167,-5.9747E-05
425.2167,-5.974982E-05
425.3167,-5.973098E-05
425.4167,-5.969991E-05
425.5168,-5.971874E-05
425.6168,-5.969802E-05
425.7168,-5.965753E-05
425.8168,-5.96613E-05
425.9168,-5.964435E-05
426.0168,-5.96095E-05
426.1168,-5.962551E-05
426.2168,-5.961138E-05
426.3168,-5.957277E-05
426.4168,-5.956336E-05
426.5168,-5.956995E-05
426.6168,-5.9569E-05
426.7168,-5.955865E-05
426.8168,-5.953699E-05
426.9168,-5.951439E-05
427.0168,-5.949555E-05
427.1169,-5.952192E-05
427.2169,-5.949838E-05
427.3169,-5.947295E-05
427.4169,-5.945412E-05
427.5169,-5.943811E-05
427.6169,-5.944376E-05
427.7169,-5.941739E-05
427.8169,-5.936277E-05
427.9169,-5.938913E-05
428.0169,-5.937595E-05
428.1169,-5.9359E-05
428.2169,-5.935994E-05
428.3169,-5.932698E-05
428.4169,-5.930344E-05
428.5169,-5.933734E-05
428.6169,-5.930815E-05
428.7169,-5.926389E-05
428.817,-5.9262E-05
428.917,-5.92733E-05
429.017,-5.924034E-05
429.117,-5.923093E-05
429.217,-5.91942E-05
429.317,-5.920079E-05
429.417,-5.922998E-05
429.517,-5.923752E-05
429.617,-5.918478E-05
429.717,-5.916877E-05
429.817,-5.919137E-05
429.917,-5.91716E-05
430.017,-5.916877E-05
430.117,-5.912451E-05
430.217,-5.909155E-05
430.317,-5.910097E-05
430.4171,-5.910944E-05
430.5171,-5.908966E-05
430.6171,-5.904917E-05
430.7171,-5.903881E-05
430.8171,-5.900302E-05
430.9171,-5.903034E-05
431.0171,-5.901056E-05
431.1171,-5.898231E-05
431.2171,-5.89663E-05
431.3171,-5.899643E-05
431.4171,-5.897571E-05
431.5171,-5.895688E-05
431.6171,-5.894087E-05
431.7171,-5.88806E-05
431.8171,-5.892863E-05
431.9171,-5.891073E-05
432.0172,-5.887778E-05
432.1172,-5.890038E-05
432.2172,-5.886553E-05
432.3172,-5.887872E-05
432.4172,-5.889661E-05
432.5172,-5.886082E-05
432.6172,-5.883069E-05
432.7172,-5.883728E-05
432.8172,-5.883728E-05
432.9172,-5.880338E-05
433.0172,-5.879585E-05
433.1172,-5.874876E-05
433.2172,-5.873275E-05
433.3172,-5.875252E-05
433.4172,-5.870826E-05
433.5172,-5.86979E-05
433.6172,-5.869885E-05
433.7173,-5.868943E-05
433.8173,-5.867154E-05
433.9173,-5.865835E-05
434.0173,-5.864894E-05
434.1173,-5.86075E-05
434.2173,-5.86367E-05
434.3173,-5.861975E-05
434.4173,-5.860467E-05
434.5173,-5.859526E-05
434.6173,-5.856041E-05
434.7173,-5.857925E-05
434.8173,-5.858772E-05
434.9173,-5.857266E-05
435.0173,-5.854911E-05
435.1173,-5.855382E-05
435.2173,-5.855006E-05
435.3174,-5.849261E-05
435.4174,-5.852933E-05
435.5174,-5.84879E-05
435.6174,-5.846906E-05
435.7174,-5.845023E-05
435.8174,-5.848131E-05
435.9174,-5.846436E-05
436.0174,-5.844364E-05
436.1174,-5.842857E-05
436.2174,-5.841633E-05
436.3174,-5.843799E-05
436.4174,-5.842386E-05
436.5174,-5.837301E-05
436.6174,-5.837113E-05
436.7174,-5.838148E-05
436.8174,-5.836736E-05
436.9174,-5.834852E-05
437.0175,-5.833722E-05
437.1175,-5.828449E-05
437.2175,-5.830049E-05
437.3175,-5.828449E-05
437.4175,-5.826659E-05
437.5175,-5.828449E-05
437.6175,-5.823269E-05
437.7175,-5.82082E-05
437.8175,-5.824399E-05
437.9175,-5.821762E-05
438.0175,-5.819879E-05
438.1175,-5.819031E-05
438.2175,-5.818843E-05
438.3175,-5.814134E-05
438.4175,-5.816771E-05
438.5175,-5.814699E-05
438.6176,-5.810085E-05
438.7176,-5.811026E-05
438.8176,-5.812533E-05
438.9176,-5.811874E-05
439.0176,-5.809802E-05
439.1176,-5.806035E-05
439.2176,-5.806318E-05
439.3176,-5.809049E-05
439.4176,-5.806789E-05
439.5176,-5.802928E-05
439.6176,-5.80208E-05
439.7176,-5.800668E-05
439.8176,-5.798031E-05
439.9176,-5.799066E-05
440.0176,-5.79869E-05
440.1176,-5.794546E-05
440.2177,-5.796618E-05
440.3177,-5.792663E-05
440.4177,-5.791062E-05
440.5177,-5.791532E-05
440.6177,-5.789555E-05
440.7177,-5.788143E-05
440.8177,-5.787578E-05
440.9177,-5.786541E-05
441.0177,-5.781456E-05
441.1177,-5.782869E-05
441.2177,-5.783998E-05
441.3177,-5.777972E-05
441.4177,-5.779007E-05
441.5177,-5.778349E-05
441.6177,-5.774205E-05
441.7177,-5.773734E-05
441.8177,-5.775806E-05
441.9178,-5.773263E-05
442.0178,-5.770343E-05
442.1178,-5.769213E-05
442.2178,-5.76733E-05
442.3178,-5.767707E-05
442.4178,-5.766765E-05
442.5178,-5.764505E-05
442.6178,-5.763563E-05
442.7178,-5.759796E-05
442.8178,-5.759325E-05
442.9178,-5.762621E-05
443.0178,-5.758666E-05
443.1178,-5.756689E-05
443.2178,-5.753204E-05
443.3178,-5.754617E-05
443.4178,-5.752451E-05
443.5179,-5.753769E-05
443.6179,-5.752639E-05
443.7179,-5.747648E-05
443.8179,-5.747083E-05
443.9179,-5.748966E-05
444.0179,-5.74793E-05
444.1179,-5.744917E-05
444.2179,-5.742751E-05
444.3179,-5.740491E-05
444.4179,-5.744728E-05
444.5179,-5.741903E-05
444.6179,-5.74115E-05
444.7179,-5.737571E-05
444.8179,-5.736629E-05
444.9179,-5.7355E-05
445.0179,-5.736253E-05
445.118,-5.735217E-05
445.218,-5.727307E-05
445.318,-5.73211E-05
445.418,-5.730226E-05
445.518,-5.729284E-05
445.618,-5.726835E-05
445.718,-5.72354E-05
445.818,-5.72175E-05
445.918,-5.724105E-05
446.018,-5.722315E-05
446.118,-5.717983E-05
446.218,-5.719396E-05
446.318,-5.718643E-05
446.418,-5.716288E-05
446.518,-5.715629E-05
446.618,-5.713369E-05
446.718,-5.711203E-05
446.8181,-5.712521E-05
446.9181,-5.710826E-05
447.0181,-5.705647E-05
447.1181,-5.708001E-05
447.2181,-5.706777E-05
447.3181,-5.705176E-05
447.4181,-5.703952E-05
447.5181,-5.702539E-05
447.6181,-5.70075E-05
447.7181,-5.701785E-05
447.8181,-5.700938E-05
447.9181,-5.6967E-05
448.0181,-5.697077E-05
448.1181,-5.695759E-05
448.2181,-5.695664E-05
448.3181,-5.698207E-05
448.4182,-5.692745E-05
448.5182,-5.693781E-05
448.6182,-5.690862E-05
448.7182,-5.688695E-05
448.8182,-5.689072E-05
448.9182,-5.689072E-05
449.0182,-5.684552E-05
449.1182,-5.681915E-05
449.2182,-5.68248E-05
449.3182,-5.680126E-05
449.4182,-5.678901E-05
449.5182,-5.677866E-05
449.6182,-5.676641E-05
449.7182,-5.672309E-05
449.8182,-5.672404E-05
449.9182,-5.670709E-05
450.0182,-5.669861E-05
450.1183,-5.671274E-05
450.2183,-5.665623E-05
450.3183,-5.663551E-05
450.4183,-5.665623E-05
450.5183,-5.665341E-05
450.6183,-5.662139E-05
450.7183,-5.659785E-05
450.8183,-5.659596E-05
450.9183,-5.657242E-05
451.0183,-5.656488E-05
451.1183,-5.656394E-05
451.2183,-5.653381E-05
451.3183,-5.652439E-05
451.4183,-5.651215E-05
451.5183,-5.64952E-05
451.6183,-5.648107E-05
451.7184,-5.650085E-05
451.8184,-5.646882E-05
451.9184,-5.645753E-05
452.0184,-5.642739E-05
452.1184,-5.640291E-05
452.2184,-5.641044E-05
452.3184,-5.640196E-05
452.4184,-5.63756E-05
452.5184,-5.634829E-05
452.6184,-5.636335E-05
452.7184,-5.629461E-05
452.8184,-5.630779E-05
452.9184,-5.632286E-05
453.0184,-5.629649E-05
453.1184,-5.629084E-05
453.2184,-5.628801E-05
453.3185,-5.627483E-05
453.4185,-5.624753E-05
453.5185,-5.626824E-05
453.6185,-5.625317E-05
453.7185,-5.62334E-05
453.8185,-5.620608E-05
453.9185,-5.620608E-05
454.0185,-5.618254E-05
454.1185,-5.618819E-05
454.2185,-5.61477E-05
454.3185,-5.616277E-05
454.4185,-5.614111E-05
454.5185,-5.610909E-05
454.6185,-5.609496E-05
454.7185,-5.610061E-05
454.8185,-5.611003E-05
454.9185,-5.608178E-05
455.0186,-5.60507E-05
455.1186,-5.603752E-05
455.2186,-5.601586E-05
455.3186,-5.603657E-05
455.4186,-5.601021E-05
455.5186,-5.597065E-05
455.6186,-5.602527E-05
455.7186,-5.607048E-05
455.8186,-5.602904E-05
455.9186,-5.598101E-05
456.0186,-5.600456E-05
456.1186,-5.598289E-05
456.2186,-5.597442E-05
456.3186,-5.594522E-05
456.4186,-5.594522E-05
456.5186,-5.591603E-05
456.6187,-5.590849E-05
456.7187,-5.58793E-05
456.8187,-5.588778E-05
456.9187,-5.585576E-05
457.0187,-5.583692E-05
457.1187,-5.581809E-05
457.2187,-5.580773E-05
457.3187,-5.580867E-05
457.4187,-5.580773E-05
457.5187,-5.577571E-05
457.6187,-5.573804E-05
457.7187,-5.576347E-05
457.8187,-5.5771E-05
457.9187,-5.5755E-05
458.0187,-5.571262E-05
458.1187,-5.570508E-05
458.2188,-5.56919E-05
458.3188,-5.570508E-05
458.4188,-5.568625E-05
458.5188,-5.564669E-05
458.6188,-5.564387E-05
458.7188,-5.562409E-05
458.8188,-5.563257E-05
458.9188,-5.560997E-05
459.0188,-5.560149E-05
459.1188,-5.556288E-05
459.2188,-5.558643E-05
459.3188,-5.554122E-05
459.4188,-5.554028E-05
459.5188,-5.554028E-05
459.6188,-5.551014E-05
459.7188,-5.549131E-05
459.8188,-5.55431E-05
459.9189,-5.55271E-05
460.0189,-5.549414E-05
460.1189,-5.546871E-05
460.2189,-5.54527E-05
460.3189,-5.544516E-05
460.4189,-5.54527E-05
460.5189,-5.543857E-05
460.6189,-5.542445E-05
460.7189,-5.540938E-05
460.8189,-5.537171E-05
460.9189,-5.539243E-05
461.0189,-5.538584E-05
461.1189,-5.536041E-05
461.2189,-5.534252E-05
461.3189,-5.533499E-05
461.4189,-5.531426E-05
461.519,-5.531615E-05
461.619,-5.532556E-05
461.719,-5.530202E-05
461.819,-5.526341E-05
461.919,-5.526435E-05
462.019,-5.524646E-05
462.119,-5.526153E-05
462.219,-5.523987E-05
462.319,-5.519749E-05
462.419,-5.518619E-05
462.519,-5.521067E-05
462.619,-5.516453E-05
462.719,-5.516735E-05
462.819,-5.518148E-05
462.919,-5.510802E-05
463.019,-5.512121E-05
463.119,-5.512874E-05
463.2191,-5.509578E-05
463.3191,-5.510237E-05
463.4191,-5.507977E-05
463.5191,-5.506847E-05
463.6191,-5.50261E-05
463.7191,-5.502892E-05
463.8191,-5.502798E-05
463.9191,-5.502798E-05
464.0191,-5.500444E-05
464.1191,-5.496582E-05
464.2191,-5.496676E-05
464.3191,-5.496488E-05
464.4191,-5.495829E-05
464.5191,-5.494605E-05
464.6191,-5.493757E-05
464.7191,-5.488766E-05
464.8192,-5.48839E-05
464.9192,-5.491779E-05
465.0192,-5.487542E-05
465.1192,-5.484622E-05
465.2192,-5.484434E-05
465.3192,-5.484811E-05
465.4192,-5.483963E-05
465.5192,-5.480291E-05
465.6192,-5.479819E-05
465.7192,-5.47803E-05
465.8192,-5.478784E-05
465.9192,-5.477277E-05
466.0192,-5.475205E-05
466.1192,-5.475393E-05
466.2192,-5.473604E-05
466.3192,-5.473227E-05
466.4193,-5.472568E-05
466.5193,-5.468801E-05
466.6193,-5.471156E-05
466.7193,-5.473039E-05
466.8193,-5.46786E-05
466.9193,-5.465317E-05
467.0193,-5.464281E-05
467.1193,-5.464187E-05
467.2193,-5.46155E-05
467.3193,-5.462021E-05
467.4193,-5.460137E-05
467.5193,-5.456747E-05
467.6193,-5.457312E-05
467.7193,-5.455617E-05
467.8193,-5.455805E-05
467.9193,-5.454393E-05
468.0193,-5.455711E-05
468.1194,-5.453168E-05
468.2194,-5.451003E-05
468.3194,-5.449873E-05
468.4194,-5.448742E-05
468.5194,-5.450626E-05
468.6194,-5.446671E-05
468.7194,-5.444693E-05
468.8194,-5.445541E-05
468.9194,-5.44441E-05
469.0194,-5.443563E-05
469.1194,-5.440738E-05
469.2194,-5.439984E-05
469.3194,-5.435464E-05
469.4194,-5.438007E-05
469.5194,-5.440549E-05
469.6194,-5.434711E-05
469.7195,-5.435181E-05
469.8195,-5.437065E-05
469.9195,-5.434522E-05
470.0195,-5.433204E-05
470.1195,-5.430661E-05
470.2195,-5.430002E-05
470.3195,-5.430096E-05
470.4195,-5.428119E-05
470.5195,-5.425199E-05
470.6195,-5.42341E-05
470.7195,-5.426235E-05
470.8195,-5.422374E-05
470.9195,-5.419737E-05
471.0195,-5.418889E-05
471.1195,-5.416159E-05
471.2195,-5.418513E-05
471.3195,-5.417195E-05
471.4196,-5.411732E-05
471.5196,-5.411921E-05
471.6196,-5.412674E-05
471.7196,-5.408531E-05
471.8196,-5.412486E-05
471.9196,-5.410038E-05
472.0196,-5.40693E-05
472.1196,-5.406835E-05
472.2196,-5.404858E-05
472.3196,-5.40401E-05
472.4196,-5.405234E-05
472.5196,-5.401562E-05
472.6196,-5.397607E-05
472.7196,-5.398266E-05
472.8196,-5.399866E-05
472.9196,-5.395723E-05
473.0197,-5.397324E-05
473.1197,-5.395064E-05
473.2197,-5.393086E-05
473.3197,-5.390638E-05
473.4197,-5.389884E-05
473.5197,-5.389507E-05
473.6197,-5.386494E-05
473.7197,-5.390732E-05
473.8197,-5.387624E-05
473.9197,-5.387059E-05
474.0197,-5.385646E-05
474.1197,-5.383575E-05
474.2197,-5.384611E-05
474.3197,-5.384516E-05
474.4197,-5.379055E-05
474.5197,-5.378207E-05
474.6198,-5.37896E-05
474.7198,-5.3767E-05
474.8198,-5.37783E-05
474.9198,-5.375852E-05
475.0198,-5.37218E-05
475.1198,-5.371614E-05
475.2198,-5.373969E-05
475.3198,-5.370767E-05
475.4198,-5.369543E-05
475.5198,-5.368507E-05
475.6198,-5.364552E-05
475.7198,-5.36813E-05
475.8198,-5.367565E-05
475.9198,-5.364269E-05
476.0198,-5.361726E-05
476.1198,-5.362292E-05
476.2198,-5.360219E-05
476.3199,-5.363422E-05
476.4199,-5.360219E-05
476.5199,-5.355605E-05
476.6199,-5.359089E-05
476.7199,-5.355888E-05
476.8199,-5.354381E-05
476.9199,-5.352874E-05
477.0199,-5.351744E-05
477.1199,-5.350897E-05
477.2199,-5.350708E-05
477.3199,-5.351744E-05
477.4199,-5.347224E-05
477.5199,-5.346659E-05
477.6199,-5.345435E-05
477.7199,-5.344964E-05
477.8199,-5.344304E-05
477.92,-5.342421E-05
478.02,-5.33856E-05
478.12,-5.341103E-05
478.22,-5.340443E-05
478.32,-5.33856E-05
478.42,-5.336488E-05
478.52,-5.336206E-05
478.62,-5.333474E-05
478.72,-5.336488E-05
478.82,-5.33225E-05
478.92,-5.329613E-05
479.02,-5.33225E-05
479.12,-5.331215E-05
479.22,-5.329708E-05
479.32,-5.330838E-05
479.42,-5.327918E-05
479.5201,-5.325658E-05
479.6201,-5.324434E-05
479.7201,-5.324622E-05
479.8201,-5.321797E-05
479.9201,-5.322645E-05
480.0201,-5.321138E-05
480.1201,-5.316806E-05
480.2201,-5.31916E-05
480.3201,-5.317842E-05
480.4201,-5.318124E-05
480.5201,-5.318218E-05
480.6201,-5.314358E-05
480.7201,-5.312756E-05
480.8201,-5.315393E-05
480.9201,-5.315299E-05
481.0201,-5.311909E-05
481.1201,-5.30833E-05
481.2202,-5.311815E-05
481.3202,-5.306165E-05
481.4202,-5.306729E-05
481.5202,-5.307954E-05
481.6202,-5.304375E-05
481.7202,-5.302586E-05
481.8202,-5.302586E-05
481.9202,-5.300043E-05
482.0202,-5.299101E-05
482.1202,-5.300702E-05
482.2202,-5.298254E-05
482.3202,-5.295899E-05
482.4202,-5.294204E-05
482.5202,-5.294016E-05
482.6202,-5.293451E-05
482.7202,-5.293451E-05
482.8203,-5.288083E-05
482.9203,-5.290814E-05
483.0203,-5.288742E-05
483.1203,-5.284128E-05
483.2203,-5.287235E-05
483.3203,-5.286011E-05
483.4203,-5.285823E-05
483.5203,-5.282527E-05
483.6203,-5.286388E-05
483.7203,-5.280266E-05
483.8203,-5.279702E-05
483.9203,-5.283186E-05
484.0203,-5.276782E-05
484.1203,-5.27537E-05
484.2203,-5.277536E-05
484.3203,-5.276311E-05
484.4203,-5.274616E-05
484.5204,-5.273675E-05
484.6204,-5.272545E-05
484.7204,-5.267836E-05
484.8204,-5.269249E-05
484.9204,-5.268307E-05
485.0204,-5.26793E-05
485.1204,-5.265388E-05
485.2204,-5.263786E-05
485.3204,-5.265952E-05
485.4204,-5.264446E-05
485.5204,-5.261055E-05
485.6204,-5.257853E-05
485.7204,-5.26049E-05
485.8204,-5.256818E-05
485.9204,-5.257759E-05
486.0204,-5.258419E-05
486.1205,-5.253239E-05
486.2205,-5.251921E-05
486.3205,-5.252674E-05
486.4205,-5.252391E-05
486.5205,-5.251638E-05
486.6205,-5.249849E-05
486.7205,-5.247306E-05
486.8205,-5.247024E-05
486.9205,-5.248813E-05
487.0205,-5.247871E-05
487.1205,-5.243822E-05
487.2205,-5.244858E-05
487.3205,-5.241562E-05
487.4205,-5.240902E-05
487.5205,-5.239113E-05
487.6205,-5.237512E-05
487.7206,-5.237795E-05
487.8206,-5.237795E-05
487.9206,-5.232898E-05
488.0206,-5.235534E-05
488.1206,-5.234028E-05
488.2206,-5.230261E-05
488.3206,-5.231391E-05
488.4206,-5.231862E-05
488.5206,-5.23092E-05
488.6206,-5.229601E-05
488.7206,-5.230073E-05
488.8206,-5.22979E-05
488.9206,-5.224705E-05
489.0206,-5.223951E-05
489.1206,-5.225081E-05
489.2206,-5.225458E-05
489.3206,-5.223009E-05
489.4207,-5.217077E-05
489.5207,-5.220843E-05
489.6207,-5.220843E-05
489.7207,-5.218583E-05
489.8207,-5.217265E-05
489.9207,-5.215664E-05
490.0207,-5.210861E-05
490.1207,-5.21331E-05
490.2207,-5.215099E-05
490.3207,-5.210767E-05
490.4207,-5.210767E-05
490.5207,-5.208319E-05
490.6207,-5.207848E-05
490.7207,-5.206623E-05
490.8207,-5.206435E-05
490.9207,-5.20474E-05
491.0208,-5.206717E-05
491.1208,-5.202009E-05
491.2208,-5.20135E-05
491.3208,-5.202197E-05
491.4208,-5.201726E-05
491.5208,-5.196829E-05
491.6208,-5.198619E-05
491.7208,-5.195323E-05
491.8208,-5.197206E-05
491.9208,-5.196076E-05
492.0208,-5.194946E-05
492.1208,-5.193156E-05
492.2208,-5.192309E-05
492.3208,-5.192874E-05
492.4208,-5.187789E-05
492.5208,-5.18826E-05
492.6208,-5.189201E-05
492.7209,-5.18873E-05
492.8209,-5.186565E-05
492.9209,-5.186659E-05
493.0209,-5.187506E-05
493.1209,-5.182609E-05
493.2209,-5.182138E-05
493.3209,-5.18308E-05
493.4209,-5.181385E-05
493.5209,-5.178748E-05
493.6209,-5.17856E-05
493.7209,-5.17969E-05
493.8209,-5.177618E-05
493.9209,-5.173474E-05
494.0209,-5.171967E-05
494.1209,-5.174322E-05
494.2209,-5.172438E-05
494.321,-5.171309E-05
494.421,-5.171214E-05
494.521,-5.166317E-05
494.621,-5.166694E-05
494.721,-5.168295E-05
494.821,-5.169143E-05
494.921,-5.164999E-05
495.021,-5.162079E-05
495.121,-5.16255E-05
495.221,-5.160761E-05
495.321,-5.16434E-05
495.421,-5.16142E-05
495.521,-5.158218E-05
495.621,-5.161326E-05
495.721,-5.157371E-05
495.821,-5.157842E-05
495.9211,-5.157559E-05
496.0211,-5.157559E-05
496.1211,-5.155016E-05
496.2211,-5.150402E-05
496.3211,-5.154075E-05
496.4211,-5.150873E-05
496.5211,-5.152851E-05
496.6211,-5.149554E-05
496.7211,-5.149648E-05
496.8211,-5.148707E-05
496.9211,-5.1472E-05
497.0211,-5.145787E-05
497.1211,-5.146352E-05
497.2211,-5.145882E-05
497.3211,-5.143056E-05
497.4211,-5.141927E-05
497.5211,-5.142021E-05
497.6212,-5.141079E-05
497.7212,-5.141927E-05
497.8212,-5.137406E-05
497.9212,-5.13298E-05
498.0212,-5.139666E-05
498.1212,-5.137123E-05
498.2212,-5.132321E-05
498.3212,-5.132603E-05
498.4212,-5.133263E-05
498.5212,-5.131285E-05
498.6212,-5.134298E-05
498.7212,-5.129872E-05
498.8212,-5.129872E-05
498.9212,-5.13072E-05
499.0212,-5.128459E-05
499.1212,-5.125917E-05
499.2213,-5.127141E-05
499.3213,-5.127047E-05
499.4213,-5.123092E-05
499.5213,-5.123469E-05
499.6213,-5.122903E-05
499.7213,-5.123092E-05
499.8213,-5.122809E-05
499.9213,-5.123469E-05
500.0213,-5.118854E-05
500.1213,-5.118571E-05
500.2213,-5.117441E-05
500.3213,-5.114334E-05
500.4213,-5.1165E-05
500.5213,-5.115181E-05
500.6213,-5.111414E-05
500.7213,-5.110943E-05
500.8214,-5.112262E-05
500.9214,-5.110661E-05
501.0214,-5.109908E-05
501.1214,-5.107647E-05
501.2214,-5.108589E-05
501.3214,-5.108024E-05
501.4214,-5.104728E-05
501.5214,-5.103409E-05
501.6214,-5.105482E-05
501.7214,-5.10567E-05
501.8214,-5.101526E-05
501.9214,-5.100113E-05
502.0214,-5.100584E-05
502.1214,-5.101056E-05
502.2214,-5.099831E-05
502.3214,-5.099266E-05
502.4214,-5.093804E-05
502.5215,-5.096064E-05
502.6215,-5.097759E-05
502.7215,-5.094087E-05
502.8215,-5.09145E-05
502.9215,-5.089755E-05
503.0215,-5.091826E-05
503.1215,-5.091638E-05
503.2215,-5.090037E-05
503.3215,-5.085799E-05
503.4215,-5.088342E-05
503.5215,-5.091073E-05
503.6215,-5.086741E-05
503.7215,-5.082692E-05
503.8215,-5.085517E-05
503.9215,-5.087589E-05
504.0215,-5.085988E-05
504.1216,-5.084575E-05
504.2216,-5.083916E-05
504.3216,-5.080337E-05
504.4216,-5.08062E-05
504.5216,-5.079678E-05
504.6216,-5.080808E-05
504.7216,-5.078171E-05
504.8216,-5.075911E-05
504.9216,-5.079772E-05
505.0216,-5.076382E-05
505.1216,-5.072615E-05
505.2216,-5.074498E-05
505.3216,-5.076099E-05
505.4216,-5.075251E-05
505.5216,-5.074781E-05
505.6216,-5.073368E-05
505.7216,-5.072521E-05
505.8217,-5.069884E-05
505.9217,-5.06979E-05
506.0217,-5.06979E-05
506.1217,-5.067718E-05
506.2217,-5.064705E-05
506.3217,-5.064422E-05
506.4217,-5.066023E-05
506.5217,-5.067059E-05
506.6217,-5.065552E-05
506.7217,-5.062539E-05
506.8217,-5.061691E-05
506.9217,-5.063104E-05
507.0217,-5.061502E-05
507.1217,-5.062727E-05
507.2217,-5.05896E-05
507.3217,-5.056794E-05
507.4218,-5.056605E-05
507.5218,-5.058771E-05
507.6218,-5.055287E-05
507.7218,-5.054722E-05
507.8218,-5.052367E-05
507.9218,-5.050861E-05
508.0218,-5.053027E-05
508.1218,-5.051803E-05
508.2218,-5.049637E-05
508.3218,-5.047E-05
508.4218,-5.046717E-05
508.5218,-5.045775E-05
508.6218,-5.047753E-05
508.7218,-5.04587E-05
508.8218,-5.043138E-05
508.9218,-5.041255E-05
509.0219,-5.041632E-05
509.1219,-5.042856E-05
509.2219,-5.040879E-05
509.3219,-5.039278E-05
509.4219,-5.036359E-05
509.5219,-5.038242E-05
509.6219,-5.037865E-05
509.7219,-5.037206E-05
509.8219,-5.035134E-05
509.9219,-5.035793E-05
510.0219,-5.032215E-05
510.1219,-5.033156E-05
510.2219,-5.031085E-05
510.3219,-5.03099E-05
510.4219,-5.031273E-05
510.5219,-5.026564E-05
510.6219,-5.026282E-05
510.722,-5.031273E-05
510.822,-5.032403E-05
510.922,-5.027788E-05
511.022,-5.024869E-05
511.122,-5.024963E-05
511.222,-5.025152E-05
511.322,-5.025152E-05
511.422,-5.021667E-05
511.522,-5.019972E-05
511.622,-5.021291E-05
511.722,-5.021102E-05
511.822,-5.016488E-05
511.922,-5.018748E-05
512.022,-5.019125E-05
512.122,-5.015734E-05
512.222,-5.013945E-05
512.322,-5.015452E-05
512.4219,-5.010837E-05
512.5219,-5.01225E-05
512.6219,-5.01338E-05
512.7219,-5.010084E-05
512.8218,-5.008671E-05
512.9218,-5.007636E-05
513.0218,-5.007165E-05
513.1218,-5.007447E-05
513.2217,-5.009331E-05
513.3217,-5.003586E-05
513.4217,-5.002079E-05
513.5217,-5.003398E-05
513.6216,-5.000855E-05
513.7216,-5.00368E-05
513.8216,-5.000478E-05
513.9216,-4.998407E-05
514.0215,-4.997465E-05
514.1215,-4.998501E-05
514.2215,-4.996147E-05
514.3215,-4.99511E-05
514.4214,-4.995676E-05
514.5214,-4.990967E-05
514.6214,-4.992944E-05
514.7214,-4.993792E-05
514.8214,-4.990684E-05
514.9213,-4.991438E-05
515.0213,-4.988047E-05
515.1213,-4.990402E-05
515.2213,-4.988236E-05
515.3212,-4.988142E-05
515.4212,-4.983998E-05
515.5212,-4.987483E-05
515.6212,-4.986635E-05
515.7211,-4.983809E-05
515.8211,-4.982491E-05
515.9211,-4.981079E-05
516.0211,-4.979195E-05
516.121,-4.981832E-05
516.221,-4.982491E-05
516.321,-4.976841E-05
516.421,-4.976276E-05
516.5209,-4.974486E-05
516.6209,-4.975522E-05
516.7209,-4.976088E-05
516.8209,-4.974486E-05
516.9208,-4.969495E-05
517.0208,-4.97119E-05
517.1208,-4.972415E-05
517.2208,-4.968931E-05
517.3207,-4.971285E-05
517.4207,-4.968083E-05
517.5207,-4.96554E-05
517.6207,-4.967047E-05
517.7206,-4.966199E-05
517.8206,-4.964504E-05
517.9206,-4.964128E-05
518.0206,-4.965446E-05
518.1205,-4.964504E-05
518.2205,-4.964033E-05
518.3205,-4.962903E-05
518.4205,-4.959795E-05
518.5204,-4.962527E-05
518.6204,-4.960455E-05
518.7204,-4.957441E-05
518.8204,-4.959042E-05
518.9203,-4.957535E-05
519.0203,-4.957629E-05
519.1203,-4.957535E-05
519.2203,-4.956123E-05
519.3203,-4.952733E-05
519.4202,-4.954522E-05
519.5202,-4.956029E-05
519.6202,-4.952356E-05
519.7202,-4.953957E-05
519.8201,-4.95132E-05
519.9201,-4.947459E-05
520.0201,-4.948871E-05
520.1201,-4.951132E-05
520.22,-4.94501E-05
520.32,-4.945952E-05
520.42,-4.947459E-05
520.52,-4.943975E-05
520.6199,-4.945387E-05
520.7199,-4.946046E-05
520.8199,-4.941244E-05
520.9199,-4.941526E-05
521.0198,-4.941714E-05
521.1198,-4.938983E-05
521.2198,-4.93823E-05
521.3198,-4.936723E-05
521.4197,-4.939643E-05
521.5197,-4.939454E-05
521.6197,-4.93597E-05
521.7197,-4.936158E-05
521.8196,-4.9371E-05
521.9196,-4.936064E-05
522.0196,-4.929377E-05
522.1196,-4.937006E-05
522.2195,-4.935781E-05
522.3195,-4.932297E-05
522.4195,-4.932391E-05
522.5195,-4.932674E-05
522.6194,-4.929943E-05
522.7194,-4.931544E-05
522.8194,-4.933427E-05
522.9194,-4.923162E-05
523.0193,-4.922408E-05
523.1193,-4.925611E-05
523.2193,-4.925705E-05
523.3193,-4.923916E-05
523.4193,-4.923633E-05
523.5192,-4.918925E-05
523.6192,-4.919584E-05
523.7192,-4.92222E-05
523.8192,-4.91883E-05
523.9191,-4.916194E-05
524.0191,-4.916947E-05
524.1191,-4.916664E-05
524.2191,-4.915629E-05
524.319,-4.914969E-05
524.419,-4.910731E-05
524.519,-4.911108E-05
524.619,-4.911768E-05
524.7189,-4.912426E-05
524.8189,-4.91026E-05
524.9189,-4.907341E-05
525.0189,-4.905175E-05
525.1188,-4.907341E-05
525.2188,-4.908754E-05
525.3188,-4.905928E-05
525.4188,-4.904233E-05
525.5187,-4.903103E-05
525.6187,-4.902162E-05
525.7187,-4.903292E-05
525.8187,-4.902915E-05
525.9186,-4.900372E-05
526.0186,-4.899713E-05
526.1186,-4.900372E-05
526.2186,-4.898677E-05
526.3185,-4.900089E-05
526.4185,-4.897924E-05
526.5185,-4.895381E-05
526.6185,-4.896794E-05
526.7184,-4.898112E-05
526.8184,-4.895005E-05
526.9184,-4.896229E-05
527.0184,-4.893592E-05
527.1183,-4.891144E-05
527.2183,-4.893027E-05
527.3183,-4.895098E-05
527.4183,-4.888977E-05
527.5182,-4.889637E-05
527.6182,-4.889542E-05
527.7182,-4.887471E-05
527.8182,-4.888977E-05
527.9182,-4.889072E-05
528.0181,-4.884363E-05
528.1181,-4.885399E-05
528.2181,-4.887188E-05
528.3181,-4.884268E-05
528.418,-4.887E-05
528.518,-4.883233E-05
528.618,-4.881067E-05
528.718,-4.883233E-05
528.8179,-4.884174E-05
528.9179,-4.879843E-05
529.0179,-4.881915E-05
529.1179,-4.879183E-05
529.2178,-4.877488E-05
529.3178,-4.877488E-05
529.4178,-4.878148E-05
529.5178,-4.873533E-05
529.6177,-4.874098E-05
529.7177,-4.874004E-05
529.8177,-4.870425E-05
529.9177,-4.872121E-05
530.0176,-4.874852E-05
530.1176,-4.869201E-05
530.2176,-4.86986E-05
530.3176,-4.869766E-05
530.4175,-4.867506E-05
530.5175,-4.871084E-05
530.6175,-4.870331E-05
530.7175,-4.86647E-05
530.8174,-4.867223E-05
530.9174,-4.866093E-05
531.0174,-4.865528E-05
531.1174,-4.865999E-05
531.2173,-4.86581E-05
531.3173,-4.861385E-05
531.4173,-4.861102E-05
531.5173,-4.85969E-05
531.6172,-4.859501E-05
531.7172,-4.863739E-05
531.8172,-4.861008E-05
531.9172,-4.857524E-05
532.0172,-4.860066E-05
532.1171,-4.860537E-05
532.2171,-4.856205E-05
532.3171,-4.857618E-05
532.4171,-4.858089E-05
532.517,-4.854698E-05
532.617,-4.853851E-05
532.717,-4.856676E-05
532.817,-4.853192E-05
532.9169,-4.855452E-05
533.0169,-4.853192E-05
533.1169,-4.85046E-05
533.2169,-4.850743E-05
533.3168,-4.852909E-05
533.4168,-4.847824E-05
533.5168,-4.849424E-05
533.6168,-4.848483E-05
533.7167,-4.84594E-05
533.8167,-4.846788E-05
533.9167,-4.846034E-05
534.0167,-4.844622E-05
534.1166,-4.846034E-05
534.2166,-4.843303E-05
534.3166,-4.841797E-05
534.4166,-4.840949E-05
534.5165,-4.842079E-05
534.6165,-4.842173E-05
534.7165,-4.841138E-05
534.8165,-4.838218E-05
534.9164,-4.836429E-05
535.0164,-4.839819E-05
535.1164,-4.839725E-05
535.2164,-4.835864E-05
535.3163,-4.834357E-05
535.4163,-4.834357E-05
535.5163,-4.832756E-05
535.6163,-4.835864E-05
535.7162,-4.832662E-05
535.8162,-4.831909E-05
535.9162,-4.831626E-05
536.0162,-4.830778E-05
536.1161,-4.828706E-05
536.2161,-4.828801E-05
536.3161,-4.829271E-05
536.4161,-4.8272E-05
536.5161,-4.826729E-05
536.616,-4.823715E-05
536.716,-4.82315E-05
536.816,-4.827011E-05
536.916,-4.826635E-05
537.0159,-4.822491E-05
537.1159,-4.82494E-05
537.2159,-4.821738E-05
537.3159,-4.819195E-05
537.4158,-4.821361E-05
537.5158,-4.818913E-05
537.6158,-4.815993E-05
537.7158,-4.820137E-05
537.8157,-4.817406E-05
537.9157,-4.814675E-05
538.0157,-4.818536E-05
538.1157,-4.8175E-05
538.2156,-4.814204E-05
538.3156,-4.816276E-05
538.4156,-4.81524E-05
538.5156,-4.813356E-05
538.6155,-4.815522E-05
538.7155,-4.814675E-05
538.8155,-4.811284E-05
538.9155,-4.814204E-05
539.0154,-4.811661E-05
539.1154,-4.807235E-05
539.2154,-4.810908E-05
539.3154,-4.813921E-05
539.4153,-4.808553E-05
539.5153,-4.809684E-05
539.6153,-4.808177E-05
539.7153,-4.803751E-05
539.8152,-4.806482E-05
539.9152,-4.80554E-05
540.0152,-4.803186E-05
540.1152,-4.803939E-05
540.2151,-4.801585E-05
540.3151,-4.79989E-05
540.4151,-4.80149E-05
540.5151,-4.80102E-05
540.6151,-4.796499E-05
540.715,-4.797252E-05
540.815,-4.799607E-05
540.915,-4.798383E-05
541.015,-4.796782E-05
541.1149,-4.796405E-05
541.2149,-4.790755E-05
541.3149,-4.793392E-05
541.4149,-4.794899E-05
541.5148,-4.791696E-05
541.6148,-4.791696E-05
541.7148,-4.787553E-05
541.8148,-4.788871E-05
541.9147,-4.790943E-05
542.0147,-4.788777E-05
542.1147,-4.787647E-05
542.2147,-4.786423E-05
542.3146,-4.786894E-05
542.4146,-4.785387E-05
542.5146,-4.78727E-05
542.6146,-4.786234E-05
542.7145,-4.783221E-05
542.8145,-4.783315E-05
542.9145,-4.783221E-05
543.0145,-4.784257E-05
543.1144,-4.782091E-05
543.2144,-4.781997E-05
543.3144,-4.776535E-05
543.4144,-4.777194E-05
543.5143,-4.779077E-05
543.6143,-4.777947E-05
543.7143,-4.778983E-05
543.8143,-4.772485E-05
543.9142,-4.773145E-05
544.0142,-4.776158E-05
544.1142,-4.776629E-05
544.2142,-4.775028E-05
544.3141,-4.772862E-05
544.4141,-4.773898E-05
544.5141,-4.774557E-05
544.6141,-4.776158E-05
544.7141,-4.771732E-05
544.814,-4.769095E-05
544.914,-4.772673E-05
545.014,-4.772485E-05
545.114,-4.769377E-05
545.2139,-4.769566E-05
545.3139,-4.765987E-05
545.4139,-4.76401E-05
545.5139,-4.765705E-05
545.6138,-4.766081E-05
545.7138,-4.76335E-05
545.8138,-4.762785E-05
545.9138,-4.764292E-05
546.0137,-4.761279E-05
546.1137,-4.759866E-05
546.2137,-4.764669E-05
546.3137,-4.75883E-05
546.4136,-4.758265E-05
546.5136,-4.759583E-05
546.6136,-4.760337E-05
546.7136,-4.76175E-05
546.8135,-4.75836E-05
546.9135,-4.754498E-05
547.0135,-4.755534E-05
547.1135,-4.759772E-05
547.2134,-4.755346E-05
547.3134,-4.753744E-05
547.4134,-4.756005E-05
547.5134,-4.75657E-05
547.6133,-4.756193E-05
547.7133,-4.751296E-05
547.8133,-4.751861E-05
547.9133,-4.750354E-05
548.0132,-4.751391E-05
548.1132,-4.74913E-05
548.2132,-4.749318E-05
548.3132,-4.748659E-05
548.4131,-4.748E-05
548.5131,-4.748283E-05
548.6131,-4.747906E-05
548.7131,-4.743386E-05
548.813,-4.746587E-05
548.913,-4.74461E-05
549.013,-4.741314E-05
549.113,-4.74348E-05
549.213,-4.743103E-05
549.3129,-4.742255E-05
549.4129,-4.742255E-05
549.5129,-4.742161E-05
549.6129,-4.741973E-05
549.7128,-4.740466E-05
549.8128,-4.74009E-05
549.9128,-4.736888E-05
550.0128,-4.738394E-05
550.1127,-4.738583E-05
550.2127,-4.738018E-05
550.3127,-4.735757E-05
550.4127,-4.735569E-05
550.5126,-4.73491E-05
550.6126,-4.733968E-05
550.7126,-4.733215E-05
550.8126,-4.733686E-05
550.9125,-4.730672E-05
551.0125,-4.733027E-05
551.1125,-4.731897E-05
551.2125,-4.732179E-05
551.3124,-4.730578E-05
551.4124,-4.729448E-05
551.5124,-4.727187E-05
551.6124,-4.728694E-05
551.7123,-4.728035E-05
551.8123,-4.724834E-05
551.9123,-4.726529E-05
552.0123,-4.723233E-05
552.1122,-4.72813E-05
552.2122,-4.73039E-05
552.3122,-4.72408E-05
552.4122,-4.723515E-05
552.5121,-4.724174E-05
552.6121,-4.723233E-05
552.7121,-4.721914E-05
552.8121,-4.720219E-05
552.912,-4.720973E-05
553.012,-4.71617E-05
553.112,-4.719842E-05
553.212,-4.717677E-05
553.312,-4.715699E-05
553.4119,-4.715981E-05
553.5119,-4.717017E-05
553.6119,-4.713062E-05
553.7119,-4.712026E-05
553.8118,-4.712309E-05
553.9118,-4.709766E-05
554.0118,-4.712214E-05
554.1118,-4.710519E-05
554.2117,-4.706281E-05
554.3117,-4.711932E-05
554.4117,-4.71099E-05
554.5117,-4.708636E-05
554.6116,-4.706376E-05
554.7116,-4.707317E-05
554.8116,-4.708259E-05
554.9116,-4.70873E-05
555.0115,-4.708353E-05
555.1115,-4.704775E-05
555.2115,-4.705434E-05
555.3115,-4.704492E-05
555.4114,-4.703456E-05
555.5114,-4.705999E-05
555.6114,-4.704869E-05
555.7114,-4.700349E-05
555.8113,-4.701008E-05
555.9113,-4.700725E-05
556.0113,-4.700443E-05
556.1113,-4.699689E-05
556.2112,-4.69903E-05
556.3112,-4.69498E-05
556.4112,-4.693756E-05
556.5112,-4.6979E-05
556.6111,-4.697335E-05
556.7111,-4.698465E-05
556.8111,-4.694133E-05
556.9111,-4.693568E-05
557.011,-4.694133E-05
557.111,-4.694886E-05
557.211,-4.691214E-05
557.311,-4.693286E-05
557.4109,-4.691496E-05
557.5109,-4.689236E-05
557.6109,-4.690743E-05
557.7109,-4.687352E-05
557.8109,-4.692061E-05
557.9108,-4.689142E-05
558.0108,-4.686882E-05
558.1108,-4.685564E-05
558.2108,-4.689048E-05
558.3107,-4.689142E-05
558.4107,-4.680101E-05
558.5107,-4.688577E-05
558.6107,-4.688954E-05
558.7106,-4.685281E-05
558.8106,-4.686505E-05
558.9106,-4.686505E-05
559.0106,-4.682926E-05
559.1105,-4.685469E-05
559.2105,-4.68594E-05
559.3105,-4.678971E-05
559.4105,-4.678688E-05
559.5104,-4.678218E-05
559.6104,-4.680666E-05
559.7104,-4.679725E-05
559.8104,-4.678218E-05
559.9103,-4.676994E-05
560.0103,-4.674639E-05
560.1103,-4.675487E-05
560.2103,-4.674828E-05
560.3102,-4.674639E-05
560.4102,-4.673415E-05
560.5102,-4.670402E-05
560.6102,-4.670778E-05
560.7101,-4.67059E-05
560.8101,-4.671249E-05
560.9101,-4.670213E-05
561.0101,-4.668612E-05
561.11,-4.66833E-05
561.21,-4.667106E-05
561.31,-4.670496E-05
561.41,-4.667388E-05
561.5099,-4.6672E-05
561.6099,-4.664563E-05
561.7099,-4.664092E-05
561.8099,-4.664092E-05
561.9099,-4.666164E-05
562.0098,-4.662397E-05
562.1098,-4.661643E-05
562.2098,-4.66202E-05
562.3098,-4.661267E-05
562.4097,-4.661549E-05
562.5097,-4.66089E-05
562.6097,-4.65863E-05
562.7097,-4.657971E-05
562.8096,-4.65863E-05
562.9096,-4.657311E-05
563.0096,-4.657594E-05
563.1096,-4.656934E-05
563.2095,-4.65524E-05
563.3095,-4.654769E-05
563.4095,-4.65571E-05
563.5095,-4.65298E-05
563.6094,-4.65185E-05
563.7094,-4.655899E-05
563.8094,-4.651567E-05
563.9094,-4.649966E-05
564.0093,-4.649966E-05
564.1093,-4.647235E-05
564.2093,-4.648553E-05
564.3093,-4.649118E-05
564.4092,-4.648271E-05
564.5092,-4.645163E-05
564.6092,-4.648647E-05
564.7092,-4.646387E-05
564.8091,-4.645257E-05
564.9091,-4.644504E-05
565.0091,-4.642997E-05
565.1091,-4.643939E-05
565.209,-4.644881E-05
565.309,-4.642903E-05
565.409,-4.641584E-05
565.509,-4.640643E-05
565.6089,-4.640078E-05
565.7089,-4.639701E-05
565.8089,-4.641114E-05
565.9089,-4.637535E-05
566.0089,-4.636499E-05
566.1088,-4.637347E-05
566.2088,-4.636405E-05
566.3088,-4.635275E-05
566.4088,-4.635463E-05
566.5087,-4.636688E-05
566.6087,-4.635934E-05
566.7087,-4.633862E-05
566.8087,-4.633297E-05
566.9086,-4.630754E-05
567.0086,-4.634333E-05
567.1086,-4.634992E-05
567.2086,-4.628777E-05
567.3085,-4.630189E-05
567.4085,-4.629342E-05
567.5085,-4.627741E-05
567.6085,-4.630472E-05
567.7084,-4.629342E-05
567.8084,-4.624633E-05
567.9084,-4.629625E-05
568.0084,-4.629907E-05
568.1083,-4.624822E-05
568.2083,-4.626329E-05
568.3083,-4.626988E-05
568.4083,-4.624068E-05
568.5082,-4.624539E-05
568.6082,-4.623032E-05
568.7082,-4.620584E-05
568.8082,-4.622279E-05
568.9081,-4.621055E-05
569.0081,-4.617382E-05
569.1081,-4.619454E-05
569.2081,-4.620301E-05
569.308,-4.615781E-05
569.408,-4.615781E-05
569.508,-4.617194E-05
569.608,-4.61644E-05
569.7079,-4.618512E-05
569.8079,-4.614463E-05
569.9079,-4.61418E-05
570.0079,-4.611826E-05
570.1078,-4.612862E-05
570.2078,-4.611826E-05
570.3078,-4.610884E-05
570.4078,-4.611543E-05
570.5078,-4.607117E-05
570.6077,-4.610978E-05
570.7077,-4.61079E-05
570.8077,-4.605799E-05
570.9077,-4.606081E-05
571.0076,-4.608718E-05
571.1076,-4.610225E-05
571.2076,-4.60853E-05
571.3076,-4.60448E-05
571.4075,-4.604857E-05
571.5075,-4.607494E-05
571.6075,-4.606835E-05
571.7075,-4.603256E-05
571.8074,-4.606269E-05
571.9074,-4.605799E-05
572.0074,-4.603916E-05
572.1074,-4.60401E-05
572.2073,-4.602879E-05
572.3073,-4.60222E-05
572.4073,-4.599772E-05
572.5073,-4.601373E-05
572.6072,-4.598265E-05
572.7072,-4.597512E-05
572.8072,-4.596475E-05
572.9072,-4.594686E-05
573.0071,-4.596569E-05
573.1071,-4.595063E-05
573.2071,-4.592803E-05
573.3071,-4.593744E-05
573.407,-4.592991E-05
573.507,-4.590261E-05
573.607,-4.590072E-05
573.707,-4.592237E-05
573.8069,-4.589884E-05
573.9069,-4.588E-05
574.0069,-4.589695E-05
574.1069,-4.588E-05
574.2068,-4.588094E-05
574.3068,-4.58913E-05
574.4068,-4.586587E-05
574.5068,-4.584986E-05
574.6068,-4.585834E-05
574.7067,-4.585551E-05
574.8067,-4.58282E-05
574.9067,-4.584986E-05
575.0067,-4.579995E-05
575.1066,-4.582161E-05
575.2066,-4.583103E-05
575.3066,-4.580654E-05
575.4066,-4.577735E-05
575.5065,-4.58056E-05
575.6065,-4.577829E-05
575.7065,-4.575475E-05
575.8065,-4.576699E-05
575.9064,-4.574439E-05
576.0064,-4.576511E-05
576.1064,-4.576605E-05
576.2064,-4.572838E-05
576.3063,-4.568977E-05
576.4063,-4.572556E-05
576.5063,-4.574534E-05
576.6063,-4.568412E-05
576.7062,-4.57039E-05
576.8062,-4.570766E-05
576.9062,-4.570484E-05
577.0062,-4.5686E-05
577.1061,-4.567187E-05
577.2061,-4.563515E-05
577.3061,-4.566246E-05
577.4061,-4.567565E-05
577.506,-4.565681E-05
577.606,-4.562385E-05
577.706,-4.56295E-05
577.806,-4.561914E-05
577.9059,-4.563703E-05
578.0059,-4.562385E-05
578.1059,-4.559465E-05
578.2059,-4.559089E-05
578.3058,-4.558053E-05
578.4058,-4.560125E-05
578.5058,-4.561537E-05
578.6058,-4.558335E-05
578.7057,-4.556829E-05
578.8057,-4.555134E-05
578.9057,-4.555134E-05
579.0057,-4.556452E-05
579.1057,-4.557676E-05
579.2056,-4.549954E-05
579.3056,-4.55099E-05
579.4056,-4.555699E-05
579.5056,-4.554192E-05
579.6055,-4.550896E-05
579.7055,-4.552026E-05
579.8055,-4.553627E-05
579.9055,-4.550896E-05
580.0054,-4.54986E-05
580.1054,-4.550519E-05
580.2054,-4.547882E-05
580.3054,-4.548259E-05
580.4053,-4.546187E-05
580.5053,-4.54468E-05
580.6053,-4.549107E-05
580.7053,-4.549295E-05
580.8052,-4.545622E-05
580.9052,-4.547506E-05
581.0052,-4.544586E-05
581.1052,-4.544021E-05
581.2051,-4.54308E-05
581.3051,-4.542891E-05
581.4051,-4.539218E-05
581.5051,-4.538465E-05
581.605,-4.541102E-05
581.705,-4.536581E-05
581.805,-4.538747E-05
581.905,-4.539218E-05
582.0049,-4.535357E-05
582.1049,-4.53564E-05
582.2049,-4.536299E-05
582.3049,-4.534792E-05
582.4048,-4.533945E-05
582.5048,-4.53225E-05
582.6048,-4.534886E-05
582.7048,-4.536393E-05
582.8047,-4.532532E-05
582.9047,-4.528483E-05
583.0047,-4.528671E-05
583.1047,-4.531873E-05
583.2047,-4.527917E-05
583.3046,-4.526976E-05
583.4046,-4.529707E-05
583.5046,-4.529424E-05
583.6046,-4.527447E-05
583.7045,-4.526788E-05
583.8045,-4.528388E-05
583.9045,-4.528483E-05
584.0045,-4.528294E-05
584.1044,-4.524245E-05
584.2044,-4.523585E-05
584.3044,-4.522738E-05
584.4044,-4.522361E-05
584.5043,-4.522267E-05
584.6043,-4.521891E-05
584.7043,-4.520949E-05
584.8043,-4.5185E-05
584.9042,-4.519631E-05
585.0042,-4.517558E-05
585.1042,-4.519819E-05
585.2042,-4.520007E-05
585.3041,-4.513886E-05
585.4041,-4.51445E-05
585.5041,-4.516805E-05
585.6041,-4.514545E-05
585.704,-4.515581E-05
585.804,-4.515298E-05
585.904,-4.509648E-05
586.004,-4.510778E-05
586.1039,-4.512567E-05
586.2039,-4.509836E-05
586.3039,-4.510966E-05
586.4039,-4.508047E-05
586.5038,-4.505787E-05
586.6038,-4.507953E-05
586.7038,-4.509459E-05
586.8038,-4.504657E-05
586.9037,-4.504563E-05
587.0037,-4.50654E-05
587.1037,-4.502868E-05
587.2037,-4.506729E-05
587.3036,-4.507293E-05
587.4036,-4.502397E-05
587.5036,-4.500419E-05
587.6036,-4.502302E-05
587.7036,-4.500231E-05
587.8035,-4.500607E-05
587.9035,-4.501926E-05
588.0035,-4.498347E-05
588.1035,-4.502962E-05
588.2034,-4.499289E-05
588.3034,-4.49863E-05
588.4034,-4.498253E-05
588.5034,-4.494015E-05
588.6033,-4.495616E-05
588.7033,-4.49684E-05
588.8033,-4.495993E-05
588.9033,-4.494392E-05
589.0032,-4.49345E-05
589.1032,-4.494392E-05
589.2032,-4.49119E-05
589.3032,-4.494298E-05
589.4031,-4.492603E-05
589.5031,-4.488836E-05
589.6031,-4.489212E-05
589.7031,-4.489872E-05
589.803,-4.487894E-05
589.903,-4.489872E-05
590.003,-4.487988E-05
590.103,-4.485163E-05
590.2029,-4.487706E-05
590.3029,-4.486105E-05
590.4029,-4.483562E-05
590.5029,-4.483562E-05
590.6028,-4.483845E-05
590.7028,-4.482903E-05
590.8028,-4.485822E-05
590.9028,-4.483751E-05
591.0027,-4.480171E-05
591.1027,-4.48262E-05
591.2027,-4.48149E-05
591.3027,-4.47923E-05
591.4026,-4.48036E-05
591.5026,-4.48036E-05
591.6026,-4.478288E-05
591.7026,-4.478759E-05
591.8026,-4.47923E-05
591.9025,-4.476311E-05
592.0025,-4.475369E-05
592.1025,-4.47923E-05
592.2025,-4.475369E-05
592.3024,-4.47405E-05
592.4024,-4.475086E-05
592.5024,-4.473203E-05
592.6024,-4.475369E-05
592.7023,-4.474427E-05
592.8023,-4.471979E-05
592.9023,-4.470472E-05
593.0023,-4.471507E-05
593.1022,-4.471602E-05
593.2022,-4.472261E-05
593.3022,-4.470284E-05
593.4022,-4.471131E-05
593.5021,-4.469248E-05
593.6021,-4.469719E-05
593.7021,-4.465575E-05
593.8021,-4.463503E-05
593.902,-4.466705E-05
594.002,-4.468588E-05
594.102,-4.466423E-05
594.202,-4.465104E-05
594.3019,-4.462373E-05
594.4019,-4.461431E-05
594.5019,-4.46388E-05
594.6019,-4.463691E-05
594.7018,-4.459077E-05
594.8018,-4.463409E-05
594.9018,-4.465293E-05
595.0018,-4.462844E-05
595.1017,-4.461243E-05
595.2017,-4.461431E-05
595.3017,-4.45823E-05
595.4017,-4.460489E-05
595.5016,-4.458889E-05
595.6016,-4.458324E-05
595.7016,-4.457005E-05
595.8016,-4.454745E-05
595.9016,-4.455781E-05
596.0015,-4.45823E-05
596.1015,-4.455404E-05
596.2015,-4.454745E-05
596.3015,-4.454274E-05
596.4014,-4.45305E-05
596.5014,-4.454557E-05
596.6014,-4.454933E-05
596.7014,-4.452767E-05
596.8013,-4.448906E-05
596.9013,-4.450507E-05
597.0013,-4.451261E-05
597.1013,-4.451449E-05
597.2012,-4.44853E-05
597.3012,-4.446364E-05
597.4012,-4.4474E-05
597.5012,-4.448059E-05
597.6011,-4.447023E-05
597.7011,-4.443538E-05
597.8011,-4.44674E-05
597.9011,-4.4474E-05
598.001,-4.446364E-05
598.101,-4.446835E-05
598.201,-4.445516E-05
598.301,-4.442691E-05
598.4009,-4.443632E-05
598.5009,-4.443538E-05
598.6009,-4.443726E-05
598.7009,-4.442973E-05
598.8008,-4.439018E-05
598.9008,-4.438735E-05
599.0008,-4.441937E-05
599.1008,-4.438735E-05
599.2007,-4.442314E-05
599.3007,-4.441278E-05
599.4007,-4.442314E-05
599.5007,-4.439772E-05
599.6006,-4.440431E-05
599.7006,-4.440996E-05
599.8006,-4.434874E-05
599.9006,-4.440054E-05
600.0005,-4.437982E-05
