EXPID. 0773
[电化学]: i-t : @ 0(V) X 600(sec)
起始电位 (V),0
静置时间 (秒),0
运行时间 (秒),600
记录间隔,0.1
电解液 信息:
HNO3,0.4
0.1,-0.01005814
0.2,-0.01005814
0.3,-0.01005814
0.4,-0.01005814
0.5,-0.01005814
0.6,-0.01005814
0.7,-0.01005814
0.8000001,-0.01005814
0.9000001,-0.01005814
1,-0.01005814
1.1,-0.01005814
1.2,-0.01005814
1.3,-8.767591E-05
1.4,0.003662119
1.5,0.002557443
1.6,-5.01969E-05
1.7,-0.003224483
1.8,-0.0041254
1.9,-0.004372953
2,-0.004410664
2.1,-0.004365271
2.2,-0.004272206
2.3,-0.004159297
2.4,-0.004057993
2.5,-0.00395811
2.6,-0.003857099
2.7,-0.00377281
2.799999,-0.003686774
2.899999,-0.003602651
2.999999,-0.003532487
3.099999,-0.003458459
3.199999,-0.003385474
3.299999,-0.003319097
3.399999,-0.003256334
3.499999,-0.003188381
3.599999,-0.003129175
3.699999,-0.003069703
3.799999,-0.003005392
3.899998,-0.002948436
3.999998,-0.002890241
4.099998,-0.002831733
4.199998,-0.002773117
4.299998,-0.002718692
4.399998,-0.002664157
4.499998,-0.002612954
4.599998,-0.002561981
4.699998,-0.002514401
4.799998,-0.002470774
4.899998,-0.002426917
4.999998,-0.002385804
5.099998,-0.002345656
5.199997,-0.002305036
5.299997,-0.0022678
5.399997,-0.002229593
5.499997,-0.002193979
5.599997,-0.002159728
5.699997,-0.002125941
5.799997,-0.002094234
5.899997,-0.002065354
5.999997,-0.002036675
6.099997,-0.002009239
6.199996,-0.001983873
6.299996,-0.001958753
6.399996,-0.001935466
6.499996,-0.001912994
6.599996,-0.001890913
6.699996,-0.001870033
6.799996,-0.001850421
6.899996,-0.001830774
6.999996,-0.001812458
7.099996,-0.001794849
7.199996,-0.00177698
7.299995,-0.001760693
7.399995,-0.001744993
7.499995,-0.001729054
7.599995,-0.001713967
7.699995,-0.001700074
7.799995,-0.001685622
7.899995,-0.001671514
7.999995,-0.001659179
8.099995,-0.001645985
8.199995,-0.001632902
8.299995,-0.001621068
8.399996,-0.001608733
8.499996,-0.001597033
8.599997,-0.001586482
8.699997,-0.001574493
8.799997,-0.001563642
8.899998,-0.001553647
8.999998,-0.001544206
9.099998,-0.001533724
9.199999,-0.00152414
9.299999,-0.001514308
9.4,-0.001505067
9.5,-0.001496541
9.6,-0.0014874
9.700001,-0.001478323
9.800001,-0.001470137
9.900002,-0.001461437
10,-0.001452858
10.1,-0.001445178
10.2,-0.001436918
10.3,-0.001428454
10.4,-0.001421548
10.5,-0.00141404
10.6,-0.001405866
10.7,-0.001398994
10.8,-0.001391629
10.90001,-0.001384034
11.00001,-0.00137733
11.10001,-0.001370475
11.20001,-0.001363282
11.30001,-0.001357163
11.40001,-0.001350014
11.50001,-0.001343799
11.60001,-0.001337758
11.70001,-0.001331137
11.80001,-0.001324918
11.90001,-0.001319053
12.00001,-0.001312649
12.10001,-0.001306675
12.20001,-0.001301009
12.30001,-0.001295151
12.40001,-0.001289075
12.50001,-0.001283866
12.60001,-0.001278169
12.70001,-0.001272386
12.80001,-0.001267455
12.90001,-0.001261553
13.00001,-0.001256421
13.10001,-0.00125116
13.20001,-0.001245881
13.30001,-0.001240764
13.40001,-0.001235705
13.50002,-0.001230341
13.60002,-0.001225729
13.70002,-0.001221003
13.80002,-0.001215983
13.90002,-0.001211306
14.00002,-0.001206612
14.10002,-0.001201561
14.20002,-0.001197287
14.30002,-0.001192858
14.40002,-0.001188055
14.50002,-0.00118369
14.60002,-0.001179437
14.70002,-0.001175095
14.80002,-0.001170972
14.90002,-0.001166653
15.00002,-0.001162464
15.10002,-0.001158429
15.20002,-0.00115428
15.30002,-0.001150281
15.40002,-0.001146257
15.50002,-0.001142153
15.60002,-0.00113846
15.70002,-0.001134949
15.80002,-0.001130951
15.90002,-0.001127049
16.00002,-0.00112335
16.10003,-0.001119676
16.20003,-0.00111582
16.30003,-0.001112149
16.40003,-0.001108358
16.50003,-0.001104573
16.60003,-0.00110105
16.70003,-0.001097494
16.80003,-0.00109382
16.90003,-0.001090405
17.00003,-0.001086864
17.10003,-0.001083219
17.20003,-0.001079793
17.30003,-0.001076317
17.40003,-0.001073173
17.50003,-0.001069857
17.60003,-0.001066615
17.70003,-0.001063377
17.80003,-0.001060376
17.90003,-0.001057043
18.00003,-0.001053707
18.10003,-0.001050633
18.20003,-0.001047411
18.30003,-0.001044195
18.40003,-0.001041271
18.50003,-0.001038091
18.60003,-0.00103491
18.70004,-0.001031868
18.80004,-0.001028682
18.90004,-0.001025846
19.00004,-0.001022663
19.10004,-0.001019771
19.20004,-0.001016741
19.30004,-0.001013992
19.40004,-0.001011048
19.50004,-0.00100824
19.60004,-0.001005445
19.70004,-0.001002421
19.80004,-0.0009998464
19.90004,-0.000996942
20.00004,-0.0009940434
20.10004,-0.0009912964
20.20004,-0.0009884316
20.30004,-0.0009857684
20.40004,-0.0009832106
20.50004,-0.0009804589
20.60004,-0.0009777646
20.70004,-0.0009751607
20.80004,-0.0009725898
20.90004,-0.0009699963
21.00004,-0.0009676834
21.10004,-0.0009648318
21.20004,-0.0009624267
21.30005,-0.0009599819
21.40005,-0.0009572227
21.50005,-0.0009548306
21.60005,-0.0009524123
21.70005,-0.0009496493
21.80005,-0.0009471131
21.90005,-0.0009450536
22.00005,-0.0009423329
22.10005,-0.0009399033
22.20005,-0.0009377995
22.30005,-0.0009350919
22.40005,-0.000932796
22.50005,-0.0009306479
22.60005,-0.000928271
22.70005,-0.0009261568
22.80005,-0.0009239531
22.90005,-0.0009214755
23.00005,-0.0009192661
23.10005,-0.0009171398
23.20005,-0.0009147289
23.30005,-0.0009126278
23.40005,-0.0009105589
23.50005,-0.0009082658
23.60005,-0.0009060141
23.70005,-0.0009038745
23.80005,-0.0009014712
23.90005,-0.0008993194
24.00006,-0.0008972164
24.10006,-0.0008949139
24.20006,-0.0008927122
24.30006,-0.0008906394
24.40006,-0.0008883284
24.50006,-0.0008862754
24.60006,-0.0008841236
24.70006,-0.0008818766
24.80006,-0.0008797982
24.90006,-0.0008777264
25.00006,-0.0008756706
25.10006,-0.0008735564
25.20006,-0.0008714158
25.30006,-0.0008692536
25.40006,-0.0008673127
25.50006,-0.0008653549
25.60006,-0.0008632567
25.70006,-0.0008612602
25.80006,-0.0008593353
25.90006,-0.0008573238
26.00006,-0.000855285
26.10006,-0.0008535258
26.20006,-0.0008514003
26.30006,-0.0008493539
26.40006,-0.0008476239
26.50006,-0.000845636
26.60007,-0.0008436291
26.70007,-0.0008417438
26.80007,-0.0008398999
26.90007,-0.000837958
27.00007,-0.0008361103
27.10007,-0.0008342626
27.20007,-0.0008324715
27.30007,-0.0008305287
27.40007,-0.0008286509
27.50007,-0.0008268474
27.60007,-0.0008250723
27.70007,-0.0008231945
27.80007,-0.00082144
27.90007,-0.0008195754
28.00007,-0.000817821
28.10007,-0.0008160374
28.20007,-0.0008143629
28.30007,-0.0008124569
28.40007,-0.0008107711
28.50007,-0.0008091457
28.60007,-0.0008073659
28.70007,-0.000805618
28.80007,-0.0008039653
28.90007,-0.0008022927
29.00007,-0.0008005722
29.10007,-0.000798896
29.20008,-0.0007972488
29.30008,-0.0007954756
29.40008,-0.0007937578
29.50008,-0.0007921635
29.60008,-0.0007906266
29.70008,-0.0007889447
29.80008,-0.0007873381
29.90008,-0.0007856957
30.00008,-0.000784026
30.10008,-0.0007824693
30.20008,-0.0007808863
30.30008,-0.0007792655
30.40008,-0.0007775939
30.50008,-0.0007761145
30.60008,-0.000774491
30.70008,-0.0007728778
30.80008,-0.0007714454
30.90008,-0.0007698199
31.00008,-0.0007682096
31.10008,-0.0007666708
31.20008,-0.0007651029
31.30008,-0.000763615
31.40008,-0.0007621929
31.50008,-0.000760623
31.60008,-0.0007591087
31.70008,-0.0007575295
31.80009,-0.0007560264
31.90009,-0.000754563
32.00008,-0.0007531109
32.10008,-0.0007516229
32.20008,-0.0007501802
32.30008,-0.0007487233
32.40008,-0.0007472542
32.50008,-0.0007457079
32.60007,-0.0007443226
32.70007,-0.0007428733
32.80007,-0.0007414362
32.90007,-0.000739985
33.00007,-0.000738562
33.10007,-0.000737155
33.20007,-0.0007357529
33.30006,-0.0007343497
33.40006,-0.0007328796
33.50006,-0.0007314623
33.60006,-0.000730093
33.70006,-0.0007286927
33.80006,-0.0007272735
33.90005,-0.0007259098
34.00005,-0.0007245085
34.10005,-0.0007231204
34.20005,-0.0007217766
34.30005,-0.0007203819
34.40005,-0.0007189515
34.50005,-0.0007176989
34.60004,-0.0007163495
34.70004,-0.0007149321
34.80004,-0.0007136316
34.90004,-0.0007123508
35.00004,-0.0007108912
35.10004,-0.000709601
35.20004,-0.0007082787
35.30003,-0.0007069274
35.40003,-0.0007055977
35.50003,-0.0007042311
35.60003,-0.000702909
35.70003,-0.0007015783
35.80003,-0.000700291
35.90002,-0.0006989735
36.00002,-0.0006976862
36.10002,-0.0006964497
36.20002,-0.0006951595
36.30002,-0.0006938779
36.40002,-0.0006926319
36.50002,-0.0006913681
36.60001,-0.0006900525
36.70001,-0.0006888678
36.80001,-0.0006875993
36.90001,-0.000686296
37.00001,-0.0006851301
37.10001,-0.0006838192
37.2,-0.0006825977
37.3,-0.0006813867
37.4,-0.0006802114
37.5,-0.0006789448
37.6,-0.0006777752
37.7,-0.0006765358
37.8,-0.0006752664
37.89999,-0.0006741598
37.99999,-0.0006729591
38.09999,-0.0006716878
38.19999,-0.0006705681
38.29999,-0.0006693467
38.39999,-0.0006681149
38.49998,-0.0006669641
38.59998,-0.0006658321
38.69998,-0.0006646023
38.79998,-0.0006635268
38.89998,-0.000662343
38.99998,-0.000661082
39.09998,-0.0006600009
39.19997,-0.0006588002
39.29997,-0.0006576127
39.39997,-0.0006565391
39.49997,-0.00065536
39.59997,-0.000654197
39.69997,-0.0006531395
39.79996,-0.0006520104
39.89996,-0.0006508454
39.99996,-0.0006498189
40.09996,-0.0006486361
40.19996,-0.0006475145
40.29996,-0.0006464673
40.39996,-0.000645243
40.49995,-0.0006441638
40.59995,-0.0006431882
40.69995,-0.0006420544
40.79995,-0.0006409073
40.89995,-0.0006398187
40.99995,-0.0006387687
41.09995,-0.0006376329
41.19994,-0.0006365292
41.29994,-0.0006354076
41.39994,-0.0006344112
41.49994,-0.0006333038
41.59994,-0.0006322801
41.69994,-0.0006311839
41.79993,-0.0006300812
41.89993,-0.0006291168
41.99993,-0.0006279886
42.09993,-0.0006269414
42.19993,-0.000625882
42.29993,-0.0006248235
42.39993,-0.0006237866
42.49992,-0.0006226961
42.59992,-0.000621711
42.69992,-0.0006206667
42.79992,-0.0006196204
42.89992,-0.0006186665
42.99992,-0.0006177548
43.09991,-0.0006166709
43.19991,-0.0006156444
43.29991,-0.000614633
43.39991,-0.0006135209
43.49991,-0.0006125527
43.59991,-0.0006115582
43.69991,-0.0006104894
43.7999,-0.0006095392
43.8999,-0.000608523
43.9999,-0.000607507
44.0999,-0.0006066001
44.1999,-0.0006056894
44.2999,-0.0006046346
44.39989,-0.0006035799
44.49989,-0.0006027267
44.59989,-0.0006016512
44.69989,-0.0006007152
44.79989,-0.0005997113
44.89989,-0.0005986594
44.99989,-0.0005978109
45.09988,-0.0005968937
45.19988,-0.0005960347
45.29988,-0.0005951627
45.39988,-0.0005942699
45.49988,-0.0005932284
45.59988,-0.0005922442
45.69987,-0.0005913939
45.79987,-0.0005903787
45.89987,-0.0005893843
45.99987,-0.0005884934
46.09987,-0.0005874819
46.19987,-0.0005865176
46.29987,-0.0005855844
46.39986,-0.0005847132
46.49986,-0.0005838421
46.59986,-0.0005828402
46.69986,-0.0005818759
46.79986,-0.0005809661
46.89986,-0.0005800488
46.99986,-0.000579141
47.09985,-0.0005782539
47.19985,-0.0005773546
47.29985,-0.0005764816
47.39985,-0.0005755596
47.49985,-0.0005747187
47.59985,-0.0005737459
47.69984,-0.0005728804
47.79984,-0.0005719932
47.89984,-0.0005710384
47.99984,-0.0005701494
48.09984,-0.000569249
48.19984,-0.000568443
48.29984,-0.0005675568
48.39983,-0.0005666574
48.49983,-0.0005658062
48.59983,-0.0005649425
48.69983,-0.0005640206
48.79983,-0.0005631514
48.89983,-0.0005622238
48.99982,-0.0005613668
49.09982,-0.0005604844
49.19982,-0.0005595663
49.29982,-0.0005587149
49.39982,-0.0005578485
49.49982,-0.0005569943
49.59982,-0.0005561986
49.69981,-0.0005554075
49.79981,-0.000554462
49.89981,-0.000553605
49.99981,-0.0005527519
50.09981,-0.0005519533
50.19981,-0.0005510944
50.2998,-0.0005501856
50.3998,-0.0005492505
50.4998,-0.0005484745
50.5998,-0.0005477136
50.6998,-0.000546883
50.7998,-0.0005460222
50.8998,-0.0005452726
50.99979,-0.0005443215
51.09979,-0.0005435511
51.19979,-0.0005427441
51.29979,-0.0005419021
51.39979,-0.0005411101
51.49979,-0.0005402927
51.59978,-0.000539465
51.69978,-0.0005387379
51.79978,-0.0005379365
51.89978,-0.0005370249
51.99978,-0.0005363092
52.09978,-0.0005355229
52.19978,-0.0005346857
52.29977,-0.0005338843
52.39977,-0.0005330649
52.49977,-0.0005322296
52.59977,-0.0005314696
52.69977,-0.0005307775
52.79977,-0.0005298819
52.89977,-0.0005290682
52.99976,-0.000528474
53.09976,-0.0005276066
53.19976,-0.0005267807
53.29976,-0.000525985
53.39976,-0.0005251225
53.49976,-0.0005243831
53.59975,-0.0005235695
53.69975,-0.0005228161
53.79975,-0.0005220843
53.89975,-0.00052125
53.99975,-0.000520426
54.09975,-0.0005197959
54.19975,-0.0005190218
54.29974,-0.0005182515
54.39974,-0.0005174322
54.49974,-0.0005167249
54.59974,-0.000515932
54.69974,-0.0005152154
54.79974,-0.0005145015
54.89973,-0.0005136841
54.99973,-0.000512894
55.09973,-0.0005122207
55.19973,-0.0005114719
55.29973,-0.0005106357
55.39973,-0.0005099002
55.49973,-0.0005091515
55.59972,-0.0005083972
55.69972,-0.0005077258
55.79972,-0.0005068962
55.89972,-0.000506204
55.99972,-0.0005055061
56.09972,-0.0005047866
56.19971,-0.0005041123
56.29971,-0.0005033514
56.39971,-0.0005026018
56.49971,-0.000501903
56.59971,-0.0005011996
56.69971,-0.0005004312
56.79971,-0.0004997842
56.8997,-0.0004990534
56.9997,-0.0004982868
57.0997,-0.0004975636
57.1997,-0.0004968554
57.2997,-0.0004961453
57.3997,-0.0004954908
57.49969,-0.0004947591
57.59969,-0.0004939662
57.69969,-0.0004932975
57.79969,-0.00049261
57.89969,-0.0004918943
57.99969,-0.0004911984
58.09969,-0.0004904864
58.19968,-0.0004897773
58.29968,-0.0004890701
58.39968,-0.0004883996
58.49968,-0.0004877017
58.59968,-0.0004870614
58.69968,-0.0004863268
58.79967,-0.0004856177
58.89967,-0.0004849566
58.99967,-0.0004842616
59.09967,-0.0004835609
59.19967,-0.0004829441
59.29967,-0.0004821898
59.39967,-0.0004814402
59.49966,-0.0004808431
59.59966,-0.0004801142
59.69966,-0.0004794409
59.79966,-0.0004787713
59.89966,-0.0004780923
59.99966,-0.0004774227
60.09966,-0.0004767711
60.19965,-0.0004761674
60.29965,-0.000475544
60.39965,-0.0004748462
60.49965,-0.0004741691
60.59965,-0.0004734562
60.69965,-0.0004727989
60.79964,-0.0004721377
60.89964,-0.0004715002
60.99964,-0.0004708344
61.09964,-0.0004701733
61.19964,-0.0004694821
61.29964,-0.0004688285
61.39964,-0.0004682371
61.49963,-0.0004675807
61.59963,-0.0004669441
61.69963,-0.0004662981
61.79963,-0.000465652
61.89963,-0.0004649674
61.99963,-0.0004643261
62.09962,-0.0004636669
62.19962,-0.0004630359
62.29962,-0.0004624539
62.39962,-0.0004618333
62.49962,-0.0004612429
62.59962,-0.0004608869
62.69962,-0.0004601985
62.79961,-0.0004594319
62.89961,-0.000458816
62.99961,-0.0004582161
63.09961,-0.0004575955
63.19961,-0.0004569966
63.29961,-0.0004563261
63.3996,-0.000455648
63.4996,-0.0004550058
63.5996,-0.0004544012
63.6996,-0.000453725
63.7996,-0.000453192
63.8996,-0.0004526222
63.9996,-0.0004519696
64.09959,-0.0004513509
64.19959,-0.0004507821
64.29959,-0.0004500918
64.39959,-0.0004495061
64.49959,-0.0004489024
64.59959,-0.0004482743
64.69958,-0.0004477479
64.79958,-0.0004471734
64.89958,-0.0004464906
64.99958,-0.0004458653
65.09958,-0.0004452702
65.19958,-0.0004446119
65.29958,-0.0004440695
65.39957,-0.0004434281
65.49957,-0.0004428047
65.59957,-0.0004423084
65.69957,-0.0004417603
65.79957,-0.0004412443
65.89957,-0.0004407564
65.99957,-0.0004401283
66.09956,-0.0004394588
66.19956,-0.0004388579
66.29956,-0.0004382957
66.39956,-0.000437741
66.49956,-0.0004371421
66.59956,-0.0004365996
66.69955,-0.0004361175
66.79955,-0.0004356353
66.89955,-0.0004352012
66.99955,-0.0004345193
67.09955,-0.0004339007
67.19955,-0.0004333337
67.29955,-0.0004327527
67.39954,-0.0004321603
67.49954,-0.0004315877
67.59954,-0.0004310152
67.69954,-0.0004304821
67.79954,-0.0004299049
67.89954,-0.0004292758
67.99953,-0.0004287268
68.09953,-0.0004281165
68.19953,-0.0004275421
68.29953,-0.0004270232
68.39953,-0.0004264497
68.49953,-0.000425894
68.59953,-0.000425329
68.69952,-0.0004247216
68.79952,-0.0004241791
68.89952,-0.0004236856
68.99952,-0.0004232205
69.09952,-0.0004226281
69.19952,-0.0004220235
69.29951,-0.0004214575
69.39951,-0.0004209396
69.49951,-0.0004203783
69.59951,-0.0004198575
69.69951,-0.0004192643
69.79951,-0.0004187378
69.89951,-0.0004181417
69.9995,-0.0004176171
70.0995,-0.0004170936
70.1995,-0.0004165464
70.2995,-0.0004159541
70.3995,-0.0004154333
70.4995,-0.0004148786
70.59949,-0.0004143437
70.69949,-0.0004138144
70.79949,-0.0004132862
70.89949,-0.000412738
70.99949,-0.0004122719
71.09949,-0.00041177
71.19949,-0.0004111983
71.29948,-0.000410655
71.39948,-0.0004100777
71.49948,-0.0004095635
71.59948,-0.000409151
71.69948,-0.0004086076
71.79948,-0.0004080529
71.89948,-0.0004075397
71.99947,-0.0004070227
72.09947,-0.0004065593
72.19947,-0.000406016
72.29947,-0.0004054199
72.39947,-0.0004048689
72.49947,-0.0004043547
72.59946,-0.0004038509
72.69946,-0.0004033207
72.79946,-0.0004027491
72.89946,-0.0004022255
72.99946,-0.0004017283
73.09946,-0.0004012395
73.19946,-0.00040073
73.29945,-0.0004002187
73.39945,-0.0003997365
73.49945,-0.0003992948
73.59945,-0.0003988146
73.69945,-0.0003982373
73.79945,-0.0003977165
73.89944,-0.0003972268
73.99944,-0.00039669
74.09944,-0.0003962069
74.19944,-0.0003957379
74.29944,-0.0003952275
74.39944,-0.0003947623
74.49944,-0.00039433
74.59943,-0.0003938507
74.69943,-0.0003932734
74.79943,-0.0003927837
74.89943,-0.0003923204
74.99943,-0.0003918128
75.09943,-0.0003912769
75.19942,-0.0003907976
75.29942,-0.0003903117
75.39942,-0.0003898154
75.49942,-0.0003893125
75.59942,-0.000388899
75.69942,-0.0003884216
75.79942,-0.000387946
75.89941,-0.0003874488
75.99941,-0.0003869977
76.09941,-0.0003864468
76.19941,-0.0003859778
76.29941,-0.0003855361
76.39941,-0.0003850803
76.4994,-0.000384633
76.5994,-0.0003841414
76.6994,-0.0003836301
76.7994,-0.0003831827
76.8994,-0.0003827119
76.9994,-0.0003822438
77.0994,-0.0003817692
77.19939,-0.0003812616
77.29939,-0.0003807898
77.39939,-0.0003803255
77.49939,-0.0003798952
77.59939,-0.0003793979
77.69939,-0.0003789327
77.79939,-0.0003784675
77.89938,-0.0003779882
77.99938,-0.0003775258
78.09938,-0.0003770747
78.19938,-0.0003766038
78.29938,-0.0003761339
78.39938,-0.0003756819
78.49937,-0.0003752496
78.59937,-0.0003747844
78.69937,-0.0003743399
78.79937,-0.0003739114
78.89937,-0.0003734481
78.99937,-0.0003729951
79.09937,-0.0003725327
79.19936,-0.0003721419
79.29936,-0.0003716757
79.39936,-0.000371171
79.49936,-0.0003707237
79.59936,-0.0003703404
79.69936,-0.0003698921
79.79935,-0.0003694608
79.89935,-0.0003690483
79.99935,-0.0003685369
80.09935,-0.0003681028
80.19935,-0.0003676762
80.29935,-0.0003671997
80.39935,-0.0003667364
80.49934,-0.0003663079
80.59934,-0.0003658549
80.69934,-0.0003654057
80.79934,-0.0003649847
80.89934,-0.0003645562
80.99934,-0.0003641052
81.09933,-0.0003636465
81.19933,-0.0003632021
81.29933,-0.0003627962
81.39933,-0.0003623903
81.49933,-0.0003619298
81.59933,-0.0003615051
81.69933,-0.0003610445
81.79932,-0.0003606189
81.89932,-0.0003602064
81.99932,-0.0003597666
82.09932,-0.0003593231
82.19932,-0.0003589162
82.29932,-0.0003584783
82.39931,-0.000358064
82.49931,-0.0003576628
82.59931,-0.0003572494
82.69931,-0.0003567983
82.79931,-0.0003563895
82.89931,-0.0003559921
82.99931,-0.0003555674
83.0993,-0.0003551286
83.1993,-0.0003547086
83.2993,-0.0003542679
83.3993,-0.0003539062
83.4993,-0.0003534862
83.5993,-0.0003530389
83.6993,-0.0003526697
83.79929,-0.0003522412
83.89929,-0.0003519229
83.99929,-0.0003514596
84.09929,-0.0003510151
84.19929,-0.0003505668
84.29929,-0.000350305
84.39928,-0.0003499396
84.49928,-0.0003495102
84.59928,-0.0003490855
84.69928,-0.0003486513
84.79928,-0.0003482247
84.89928,-0.0003478801
84.99928,-0.000347429
85.09927,-0.0003470174
85.19927,-0.0003467406
85.29927,-0.0003463384
85.39927,-0.0003459128
85.49927,-0.0003455031
85.59927,-0.0003451387
85.69926,-0.0003447045
85.79926,-0.0003443646
85.89926,-0.0003439408
85.99926,-0.0003435359
86.09926,-0.0003432298
86.19926,-0.0003428098
86.29926,-0.0003423389
86.39925,-0.0003419801
86.49925,-0.0003416656
86.59925,-0.0003413482
86.69925,-0.000340963
86.79925,-0.0003404865
86.89925,-0.0003400345
86.99924,-0.0003397171
87.09924,-0.0003393894
87.19924,-0.0003389148
87.29924,-0.0003385032
87.39924,-0.0003381473
87.49924,-0.00033778
87.59924,-0.0003373383
87.69923,-0.0003369371
87.79923,-0.0003365209
87.89923,-0.0003361772
87.99923,-0.0003357939
88.09923,-0.0003353795
88.19923,-0.0003349746
88.29922,-0.0003346045
88.39922,-0.0003342344
88.49922,-0.0003338605
88.59922,-0.0003335026
88.69922,-0.0003331006
88.79922,-0.0003326937
88.89922,-0.0003323311
88.99921,-0.0003319422
89.09921,-0.0003315872
89.19921,-0.0003312067
89.29921,-0.0003308319
89.39921,-0.0003304345
89.49921,-0.0003300738
89.59921,-0.000329699
89.6992,-0.000329295
89.7992,-0.0003289277
89.8992,-0.0003285604
89.9992,-0.0003282035
90.0992,-0.0003278363
90.1992,-0.0003274492
90.29919,-0.0003270697
90.39919,-0.000326725
90.49919,-0.0003263464
90.59919,-0.0003259669
90.69919,-0.0003256025
90.79919,-0.0003252456
90.89919,-0.0003248773
90.99918,-0.0003244846
91.09918,-0.0003240835
91.19918,-0.0003236861
91.29918,-0.0003233555
91.39918,-0.0003230033
91.49918,-0.0003226398
91.59917,-0.0003222923
91.69917,-0.0003219448
91.79917,-0.00032157
91.89917,-0.0003212065
91.99917,-0.000320891
92.09917,-0.0003205077
92.19917,-0.0003201498
92.29916,-0.0003197741
92.39916,-0.0003194134
92.49916,-0.0003190584
92.59916,-0.0003187382
92.69916,-0.0003183718
92.79916,-0.0003179951
92.89915,-0.0003176401
92.99915,-0.0003173105
93.09915,-0.0003169659
93.19915,-0.0003165882
93.29915,-0.0003162925
93.39915,-0.0003159384
93.49915,-0.0003155457
93.59914,-0.0003152001
93.69914,-0.0003148828
93.79914,-0.0003145343
93.89914,-0.0003141538
93.99914,-0.0003138384
94.09914,-0.00031344
94.19913,-0.0003131123
94.29913,-0.0003128486
94.39913,-0.0003124851
94.49913,-0.0003121178
94.59913,-0.0003118372
94.69913,-0.0003114614
94.79913,-0.0003110932
94.89912,-0.0003107787
94.99912,-0.0003104528
95.09912,-0.0003101195
95.19912,-0.0003097748
95.29912,-0.0003093943
95.39912,-0.0003090421
95.49911,-0.0003087747
95.59911,-0.0003084102
95.69911,-0.000308074
95.79911,-0.0003077623
95.89911,-0.000307427
95.99911,-0.0003070918
96.09911,-0.0003067452
96.1991,-0.000306394
96.2991,-0.0003060672
96.3991,-0.0003057696
96.4991,-0.0003054212
96.5991,-0.0003050963
96.6991,-0.0003047601
96.7991,-0.0003044446
96.89909,-0.0003041357
96.99909,-0.0003038918
97.09909,-0.0003035028
97.19909,-0.0003031582
97.29909,-0.0003028465
97.39909,-0.0003025141
97.49908,-0.0003022004
97.59908,-0.0003018379
97.69908,-0.0003015347
97.79908,-0.0003012069
97.89908,-0.000300898
97.99908,-0.0003005769
98.09908,-0.0003002218
98.19907,-0.0002999214
98.29907,-0.0002996126
98.39907,-0.0002993423
98.49907,-0.0002990287
98.59907,-0.0002987104
98.69907,-0.0002983535
98.79906,-0.0002980446
98.89906,-0.0002977649
98.99906,-0.0002974324
99.09906,-0.0002970887
99.19906,-0.0002967732
99.29906,-0.000296454
99.39906,-0.0002961715
99.49905,-0.0002958777
99.59905,-0.0002955518
99.69905,-0.0002952561
99.79905,-0.0002949472
99.89905,-0.0002946214
99.99905,-0.0002942692
100.099,-0.0002939772
100.199,-0.0002936712
100.299,-0.0002934037
100.399,-0.0002931184
100.499,-0.0002927615
100.599,-0.0002924102
100.699,-0.0002921701
100.799,-0.000291864
100.899,-0.0002915796
100.999,-0.0002912387
101.099,-0.0002909223
101.199,-0.0002906086
101.299,-0.000290344
101.399,-0.0002900314
101.499,-0.0002897714
101.599,-0.0002895294
101.699,-0.0002892055
101.799,-0.0002888373
101.899,-0.000288519
101.999,-0.0002882157
102.099,-0.0002878626
102.199,-0.0002875575
102.299,-0.0002872721
102.399,-0.000286967
102.499,-0.0002866694
102.599,-0.0002863605
102.699,-0.0002860827
102.799,-0.0002857889
102.899,-0.0002854998
102.999,-0.0002851965
103.099,-0.0002849187
103.199,-0.0002846164
103.299,-0.0002843744
103.399,-0.0002841192
103.499,-0.0002838348
103.599,-0.0002835598
103.699,-0.0002832764
103.799,-0.0002829901
103.899,-0.000282716
103.999,-0.0002824175
104.099,-0.000282087
104.199,-0.0002818261
104.299,-0.000281553
104.399,-0.0002812526
104.499,-0.0002809531
104.599,-0.0002806743
104.699,-0.0002803843
104.799,-0.0002801686
104.899,-0.000279905
104.999,-0.0002796318
105.099,-0.0002793785
105.199,-0.0002790602
105.299,-0.0002787203
105.399,-0.0002783756
105.499,-0.0002780902
105.599,-0.0002778764
105.699,-0.000277576
105.799,-0.0002772992
105.899,-0.0002770298
105.999,-0.0002768227
106.099,-0.0002765232
106.199,-0.0002761814
106.299,-0.0002759205
106.3989,-0.0002756436
106.4989,-0.0002753687
106.5989,-0.0002750852
106.6989,-0.0002748027
106.7989,-0.0002745211
106.8989,-0.0002742574
106.9989,-0.0002740417
107.0989,-0.0002737781
107.1989,-0.000273472
107.2989,-0.0002731979
107.3989,-0.0002729022
107.4989,-0.0002726828
107.5989,-0.0002723843
107.6989,-0.0002720895
107.7989,-0.0002718164
107.8989,-0.00027158
107.9989,-0.0002712994
108.0989,-0.0002709905
108.1989,-0.0002707315
108.2989,-0.0002704358
108.3989,-0.0002702098
108.4989,-0.0002699885
108.5989,-0.0002697211
108.6989,-0.0002694273
108.7989,-0.0002691362
108.8989,-0.0002688387
108.9989,-0.000268527
109.0989,-0.0002682755
109.1989,-0.0002679873
109.2989,-0.0002676898
109.3989,-0.000267443
109.4989,-0.0002671511
109.5989,-0.0002669157
109.6989,-0.0002666765
109.7989,-0.0002663968
109.8989,-0.0002661481
109.9989,-0.000265875
110.0989,-0.0002656405
110.1989,-0.0002653515
110.2989,-0.0002650972
110.3989,-0.0002648335
110.4989,-0.0002645595
110.5989,-0.0002643428
110.6989,-0.0002641319
110.7989,-0.0002638673
110.8989,-0.0002635527
110.9989,-0.0002633145
111.0989,-0.0002630583
111.1989,-0.0002628106
111.2989,-0.0002625121
111.3989,-0.0002622607
111.4989,-0.0002620667
111.5989,-0.0002617851
111.6989,-0.0002615289
111.7989,-0.0002612596
111.8989,-0.000261011
111.9989,-0.0002607859
112.0989,-0.0002605429
112.1989,-0.000260284
112.2989,-0.0002600137
112.3989,-0.000259751
112.4989,-0.0002595127
112.5989,-0.0002592424
112.6989,-0.0002589966
112.7989,-0.000258749
112.8988,-0.0002584815
112.9988,-0.0002582301
113.0988,-0.0002579833
113.1988,-0.0002576905
113.2988,-0.0002574672
113.3988,-0.0002573043
113.4988,-0.000257068
113.5988,-0.0002568354
113.6988,-0.0002567911
113.7988,-0.0002564144
113.8988,-0.0002560443
113.9988,-0.0002558164
114.0988,-0.000255532
114.1988,-0.000255274
114.2988,-0.0002550592
114.3988,-0.0002548276
114.4988,-0.0002545385
114.5988,-0.0002542654
114.6988,-0.0002540459
114.7988,-0.000253835
114.8988,-0.0002536034
114.9988,-0.0002533641
115.0988,-0.0002530976
115.1988,-0.0002528547
115.2988,-0.0002526371
115.3988,-0.0002524102
115.4988,-0.0002521747
115.5988,-0.0002518884
115.6988,-0.0002516427
115.7988,-0.0002514327
115.8988,-0.0002511718
115.9988,-0.000250926
116.0988,-0.000250683
116.1988,-0.0002504269
116.2988,-0.00025023
116.3988,-0.0002499833
116.4988,-0.0002497846
116.5988,-0.0002494993
116.6988,-0.0002492535
116.7988,-0.000249019
116.8988,-0.0002487836
116.9988,-0.0002485434
117.0988,-0.0002483089
117.1988,-0.0002480895
117.2988,-0.0002478446
117.3988,-0.000247612
117.4988,-0.0002473719
117.5988,-0.0002471337
117.6988,-0.0002469208
117.7988,-0.0002467287
117.8988,-0.000246449
117.9988,-0.0002461542
118.0988,-0.0002459301
118.1988,-0.0002457163
118.2988,-0.0002454423
118.3988,-0.0002452379
118.4988,-0.0002450213
118.5988,-0.0002447558
118.6988,-0.0002445062
118.7988,-0.0002443056
118.8988,-0.0002440523
118.9988,-0.0002438065
119.0988,-0.00024362
119.1988,-0.0002433837
119.2988,-0.0002431379
119.3988,-0.0002429345
119.4987,-0.0002426792
119.5987,-0.0002424269
119.6987,-0.0002422442
119.7987,-0.0002420116
119.8987,-0.0002418025
119.9987,-0.0002415793
120.0987,-0.0002413458
120.1987,-0.0002410972
120.2987,-0.0002408966
120.3987,-0.0002406385
120.4987,-0.0002404182
120.5987,-0.00024021
120.6987,-0.0002399699
120.7987,-0.0002397608
120.8987,-0.0002395565
120.9987,-0.0002393653
121.0987,-0.0002390997
121.1987,-0.0002388756
121.2987,-0.0002386844
121.3987,-0.0002384349
121.4987,-0.0002382324
121.5987,-0.0002380177
121.6987,-0.0002377512
121.7987,-0.0002375713
121.8987,-0.0002373349
121.9987,-0.0002371259
122.0987,-0.0002369017
122.1987,-0.0002367445
122.2987,-0.0002364902
122.3987,-0.0002362585
122.4987,-0.0002359977
122.5987,-0.0002357726
122.6987,-0.0002355843
122.7987,-0.0002353799
122.8987,-0.0002351492
122.9987,-0.000234941
123.0987,-0.0002347028
123.1987,-0.0002345022
123.2987,-0.0002343204
123.3987,-0.0002340455
123.4987,-0.0002338402
123.5987,-0.0002336471
123.6987,-0.0002334606
123.7987,-0.0002332337
123.8987,-0.0002329992
123.9987,-0.0002327911
124.0987,-0.0002325528
124.1987,-0.0002324059
124.2987,-0.0002321498
124.3987,-0.0002319171
124.4987,-0.0002316996
124.5987,-0.0002314981
124.6987,-0.0002312692
124.7987,-0.0002310818
124.8987,-0.0002308925
124.9987,-0.0002306712
125.0987,-0.0002304509
125.1987,-0.0002302578
125.2987,-0.0002300299
125.3987,-0.0002298783
125.4987,-0.0002296523
125.5987,-0.0002293933
125.6987,-0.0002291776
125.7987,-0.00022901
125.8987,-0.0002287868
125.9986,-0.0002285957
126.0986,-0.000228397
126.1986,-0.0002281606
126.2986,-0.0002279882
126.3986,-0.0002278253
126.4986,-0.0002276229
126.5986,-0.0002273827
126.6986,-0.0002271802
126.7986,-0.0002269787
126.8986,-0.0002268196
126.9986,-0.0002265832
127.0986,-0.0002263393
127.1986,-0.0002261556
127.2986,-0.0002259494
127.3986,-0.0002258373
127.4986,-0.000225649
127.5986,-0.0002254418
127.6986,-0.0002251856
127.7986,-0.0002249898
127.8986,-0.0002247911
127.9986,-0.0002245707
128.0986,-0.0002243428
128.1986,-0.0002241375
128.2986,-0.000223935
128.3986,-0.0002237429
128.4986,-0.0002235376
128.5986,-0.0002233389
128.6987,-0.0002231638
128.7987,-0.0002229509
128.8987,-0.0002227324
128.9987,-0.0002226044
129.0987,-0.0002223944
129.1987,-0.0002221853
129.2987,-0.000222012
129.3987,-0.0002218397
129.4987,-0.000221705
129.5987,-0.0002215496
129.6987,-0.0002212916
129.7987,-0.0002210383
129.8987,-0.0002208556
129.9987,-0.0002206371
130.0987,-0.0002204572
130.1987,-0.0002202491
130.2988,-0.0002199967
130.3988,-0.0002198432
130.4988,-0.0002197283
130.5988,-0.0002195569
130.6988,-0.0002193027
130.7988,-0.000219119
130.8988,-0.000218942
130.9988,-0.0002187159
131.0988,-0.0002185191
131.1988,-0.0002182894
131.2988,-0.000218101
131.3988,-0.0002179522
131.4988,-0.000217745
131.5988,-0.0002175736
131.6988,-0.0002174041
131.7988,-0.0002172346
131.8988,-0.0002170557
131.9989,-0.00021684
132.0989,-0.0002166008
132.1989,-0.0002164266
132.2989,-0.0002162439
132.3989,-0.0002160518
132.4989,-0.0002158634
132.5989,-0.0002156742
132.6989,-0.0002154679
132.7989,-0.0002152852
132.8989,-0.0002151176
132.9989,-0.0002149462
133.0989,-0.0002147701
133.1989,-0.0002145883
133.2989,-0.0002144151
133.3989,-0.0002142324
133.4989,-0.0002140073
133.599,-0.0002138566
133.699,-0.0002136975
133.799,-0.0002134922
133.899,-0.0002133274
133.999,-0.0002131098
134.099,-0.0002129243
134.199,-0.000212752
134.299,-0.0002125627
134.399,-0.0002123809
134.499,-0.0002122435
134.599,-0.0002120523
134.699,-0.0002118027
134.799,-0.0002116332
134.899,-0.0002114411
134.999,-0.0002112499
135.099,-0.0002111011
135.1991,-0.0002108817
135.2991,-0.0002106999
135.3991,-0.0002105483
135.4991,-0.0002103242
135.5991,-0.0002101528
135.6991,-0.0002099965
135.7991,-0.0002098175
135.8991,-0.0002096254
135.9991,-0.0002094032
136.0991,-0.0002092412
136.1991,-0.0002090745
136.2991,-0.0002088956
136.3991,-0.0002086959
136.4991,-0.0002085311
136.5991,-0.0002083447
136.6991,-0.0002081526
136.7991,-0.0002079868
136.8992,-0.0002078013
136.9992,-0.0002076176
137.0992,-0.0002074321
137.1992,-0.000207272
137.2992,-0.0002070893
137.3992,-0.0002069198
137.4992,-0.0002067419
137.5992,-0.0002065516
137.6992,-0.0002063651
137.7992,-0.0002062258
137.8992,-0.0002060591
137.9992,-0.0002058274
138.0992,-0.000205673
138.1992,-0.0002055214
138.2992,-0.0002053471
138.3992,-0.0002051569
138.4993,-0.0002049742
138.5993,-0.0002047915
138.6993,-0.000204638
138.7993,-0.0002044563
138.8993,-0.0002042698
138.9993,-0.0002040984
139.0993,-0.0002039411
139.1993,-0.0002037424
139.2993,-0.0002035852
139.3993,-0.0002034317
139.4993,-0.0002032838
139.5993,-0.0002030766
139.6993,-0.0002029222
139.7993,-0.000202748
139.8993,-0.0002026058
139.9993,-0.0002024184
140.0993,-0.0002022441
140.1994,-0.0002020709
140.2994,-0.0002018665
140.3994,-0.0002017554
140.4994,-0.0002016056
140.5994,-0.0002014352
140.6994,-0.0002012676
140.7994,-0.0002010943
140.8994,-0.0002009116
140.9994,-0.0002007562
141.0994,-0.0002005829
141.1994,-0.0002004134
141.2994,-0.0002002486
141.3994,-0.0002000819
141.4994,-0.0001998747
141.5994,-0.0001997052
141.6994,-0.0001995611
141.7995,-0.0001994058
141.8995,-0.0001992061
141.9995,-0.0001990394
142.0995,-0.0001988699
142.1995,-0.0001987399
142.2995,-0.0001985761
142.3995,-0.0001984075
142.4995,-0.0001982606
142.5995,-0.000198092
142.6995,-0.000197915
142.7995,-0.0001977323
142.8995,-0.0001975731
142.9995,-0.0001974262
143.0995,-0.0001972652
143.1995,-0.0001970947
143.2995,-0.000196897
143.3996,-0.0001967538
143.4996,-0.0001966229
143.5996,-0.0001964402
143.6996,-0.00019625
143.7996,-0.0001960946
143.8996,-0.000195959
143.9996,-0.0001957989
144.0996,-0.0001956614
144.1996,-0.0001954656
144.2996,-0.0001953092
144.3996,-0.0001951859
144.4996,-0.0001949881
144.5996,-0.0001948289
144.6996,-0.0001946783
144.7996,-0.000194504
144.8996,-0.0001943468
144.9996,-0.0001941801
145.0997,-0.0001940181
145.1997,-0.0001938458
145.2997,-0.0001936989
145.3997,-0.0001935369
145.4997,-0.0001934126
145.5997,-0.0001932515
145.6997,-0.0001930754
145.7997,-0.0001929248
145.8997,-0.0001927562
145.9997,-0.0001926027
146.0997,-0.0001924737
146.1997,-0.0001923023
146.2997,-0.0001921205
146.3997,-0.0001919793
146.4997,-0.000191854
146.5997,-0.000191693
146.6998,-0.0001915706
146.7998,-0.0001913728
146.8998,-0.0001912089
146.9998,-0.0001910799
147.0998,-0.000190932
147.1998,-0.0001907673
147.2998,-0.0001906467
147.3998,-0.0001905036
147.4998,-0.0001903407
147.5998,-0.0001901966
147.6998,-0.0001900374
147.7998,-0.000189817
147.8998,-0.0001896956
147.9998,-0.000189543
148.0998,-0.0001893697
148.1998,-0.0001892021
148.2999,-0.0001890495
148.3999,-0.0001888913
148.4999,-0.0001887661
148.5999,-0.0001886201
148.6999,-0.0001884694
148.7999,-0.0001882962
148.8999,-0.0001881652
148.9999,-0.0001880296
149.0999,-0.0001878921
149.1999,-0.0001877396
149.2999,-0.0001875607
149.3999,-0.0001874109
149.4999,-0.0001872866
149.5999,-0.0001871472
149.6999,-0.0001870041
149.7999,-0.0001868506
149.8999,-0.000186683
150,-0.0001865794
150.1,-0.0001864183
150.2,-0.0001862733
150.3,-0.0001861377
150.4,-0.0001859889
150.5,-0.0001858194
150.6,-0.0001856857
150.7,-0.0001855463
150.8,-0.0001853843
150.9,-0.0001852704
151,-0.0001851225
151.1,-0.0001849681
151.2,-0.0001847901
151.3,-0.0001846601
151.4,-0.0001845104
151.5,-0.0001843578
151.6001,-0.00018421
151.7001,-0.0001841036
151.8001,-0.0001839322
151.9001,-0.0001837815
152.0001,-0.000183628
152.1001,-0.0001834933
152.2001,-0.0001833756
152.3001,-0.000183224
152.4001,-0.0001830771
152.5001,-0.0001829556
152.6001,-0.0001827927
152.7001,-0.0001826307
152.8001,-0.0001825384
152.9001,-0.0001823859
153.0001,-0.0001822173
153.1001,-0.0001821542
153.2001,-0.0001820025
153.3002,-0.0001818217
153.4002,-0.000181657
153.5002,-0.0001815044
153.6002,-0.0001813528
153.7002,-0.0001812379
153.8002,-0.0001810674
153.9002,-0.0001809177
154.0002,-0.0001807821
154.1002,-0.0001806691
154.2002,-0.0001805071
154.3002,-0.0001803715
154.4002,-0.0001802038
154.5002,-0.0001800419
154.6002,-0.0001799355
154.7002,-0.0001798121
154.8002,-0.0001796652
154.9003,-0.000179507
155.0003,-0.0001793638
155.1003,-0.0001792263
155.2003,-0.0001790945
155.3003,-0.0001789711
155.4003,-0.000178844
155.5003,-0.0001786952
155.6003,-0.0001785332
155.7003,-0.0001783872
155.8003,-0.0001782667
155.9003,-0.000178116
156.0003,-0.000178004
156.1003,-0.0001778429
156.2003,-0.0001776951
156.3003,-0.0001775567
156.4003,-0.0001774408
156.5004,-0.0001772892
156.6004,-0.0001771385
156.7004,-0.000177018
156.8004,-0.0001768918
156.9004,-0.0001767628
157.0004,-0.0001766479
157.1004,-0.0001764802
157.2004,-0.0001763597
157.3004,-0.0001762448
157.4004,-0.0001760866
157.5004,-0.0001759463
157.6004,-0.0001758276
157.7004,-0.0001756911
157.8004,-0.0001755724
157.9004,-0.0001754641
158.0004,-0.0001753059
158.1004,-0.0001751534
158.2005,-0.0001750375
158.3005,-0.0001748708
158.4005,-0.0001747409
158.5005,-0.0001746062
158.6005,-0.0001744536
158.7005,-0.0001743322
158.8005,-0.000174238
158.9005,-0.000174092
159.0005,-0.000173947
159.1005,-0.000173817
159.2005,-0.0001737106
159.3005,-0.0001735712
159.4005,-0.0001734592
159.5005,-0.0001733358
159.6005,-0.0001731861
159.7005,-0.0001730618
159.8006,-0.0001729045
159.9006,-0.0001727293
160.0006,-0.0001726483
160.1006,-0.0001724977
160.2006,-0.0001723508
160.3006,-0.0001722575
160.4006,-0.0001721125
160.5006,-0.0001719957
160.6006,-0.000171894
160.7006,-0.0001717396
160.8006,-0.0001715804
160.9006,-0.0001714891
161.0006,-0.0001713535
161.1006,-0.000171216
161.2006,-0.0001710935
161.3006,-0.0001709608
161.4007,-0.000170795
161.5007,-0.0001707055
161.6007,-0.0001705539
161.7007,-0.0001704127
161.8007,-0.0001702893
161.9007,-0.0001701725
162.0007,-0.000170003
162.1007,-0.0001698806
162.2007,-0.0001697666
162.3007,-0.000169648
162.4007,-0.0001694907
162.5007,-0.0001693702
162.6007,-0.0001692129
162.7007,-0.0001690989
162.8007,-0.0001689963
162.9007,-0.0001688654
163.0007,-0.0001687204
163.1008,-0.0001685933
163.2008,-0.0001684727
163.3008,-0.0001683757
163.4008,-0.0001682392
163.5008,-0.0001680612
163.6008,-0.0001679566
163.7008,-0.0001678389
163.8008,-0.0001676826
163.9008,-0.0001675696
164.0008,-0.0001674264
164.1008,-0.0001672993
164.2008,-0.0001671835
164.3008,-0.0001670545
164.4008,-0.0001669104
164.5008,-0.0001667861
164.6008,-0.0001666872
164.7009,-0.0001665488
164.8009,-0.0001664254
164.9009,-0.0001663011
165.0009,-0.0001661674
165.1009,-0.0001660383
165.2009,-0.0001659244
165.3009,-0.0001657812
165.4009,-0.0001656993
165.5009,-0.0001655769
165.6009,-0.000165397
165.7009,-0.0001652859
165.8009,-0.0001652049
165.9009,-0.0001650815
166.0009,-0.0001649356
166.1009,-0.0001648254
166.2009,-0.0001646869
166.3009,-0.0001645805
166.401,-0.0001644769
166.501,-0.000164346
166.601,-0.0001641841
166.701,-0.0001640899
166.801,-0.0001639985
166.901,-0.0001638658
167.001,-0.0001637612
167.101,-0.0001635898
167.201,-0.0001634796
167.301,-0.0001634288
167.401,-0.0001633064
167.501,-0.0001631491
167.601,-0.0001630323
167.701,-0.0001629165
167.801,-0.0001628242
167.901,-0.0001627074
168.0011,-0.0001625784
168.1011,-0.0001624296
168.2011,-0.0001623053
168.3011,-0.0001621782
168.4011,-0.0001620567
168.5011,-0.0001619361
168.6011,-0.0001618156
168.7011,-0.000161712
168.8011,-0.0001615962
168.9011,-0.0001614549
169.0011,-0.0001613165
169.1011,-0.0001612468
169.2011,-0.000161131
169.3011,-0.0001609727
169.4011,-0.0001608522
169.5011,-0.0001607637
169.6012,-0.0001606215
169.7012,-0.0001605113
169.8012,-0.0001603879
169.9012,-0.0001602778
170.0012,-0.0001601676
170.1012,-0.0001600565
170.2012,-0.0001599359
170.3012,-0.0001598182
170.4012,-0.0001596722
170.5012,-0.0001595555
170.6012,-0.0001594537
170.7012,-0.0001593162
170.8012,-0.0001592061
170.9012,-0.0001590996
171.0012,-0.0001589782
171.1012,-0.0001588501
171.2012,-0.0001587606
171.3013,-0.0001586307
171.4013,-0.0001584894
171.5013,-0.0001583924
171.6013,-0.000158286
171.7013,-0.0001581645
171.8013,-0.000158044
171.9013,-0.0001579093
172.0013,-0.0001578472
172.1013,-0.0001577379
172.2013,-0.0001576146
172.3013,-0.0001574836
172.4013,-0.0001573763
172.5013,-0.0001572529
172.6013,-0.0001571314
172.7013,-0.0001570504
172.8013,-0.0001569148
172.9014,-0.0001567773
173.0014,-0.0001566785
173.1014,-0.0001565504
173.2014,-0.0001564336
173.3014,-0.0001563366
173.4014,-0.0001562029
173.5014,-0.0001560908
173.6014,-0.0001559797
173.7014,-0.0001558705
173.8014,-0.0001557603
173.9014,-0.0001556586
174.0014,-0.0001555456
174.1014,-0.0001554137
174.2014,-0.0001553299
174.3014,-0.0001552225
174.4014,-0.0001550945
174.5014,-0.0001549956
174.6015,-0.0001549155
174.7015,-0.0001548129
174.8015,-0.0001546396
174.9015,-0.000154536
175.0015,-0.0001544174
175.1015,-0.0001543128
175.2015,-0.0001541735
175.3015,-0.0001540783
175.4015,-0.00015397
175.5015,-0.0001538589
175.6015,-0.0001537374
175.7015,-0.0001536433
175.8015,-0.0001535255
175.9015,-0.0001534361
176.0015,-0.0001533391
176.1015,-0.0001532119
176.2016,-0.0001530876
176.3016,-0.000153001
176.4016,-0.0001529059
176.5016,-0.0001527919
176.6016,-0.000152677
176.7016,-0.0001525876
176.8016,-0.0001524586
176.9016,-0.00015237
177.0016,-0.0001522627
177.1016,-0.0001521431
177.2016,-0.0001520357
177.3016,-0.0001519133
177.4016,-0.0001517899
177.5016,-0.000151724
177.6016,-0.0001516317
177.7016,-0.0001514952
177.8017,-0.0001513822
177.9017,-0.0001513012
178.0017,-0.0001511967
178.1017,-0.0001510545
178.2017,-0.0001509499
178.3017,-0.0001508539
178.4017,-0.0001507258
178.5017,-0.0001506542
178.6017,-0.0001504885
178.7017,-0.0001503886
178.8017,-0.0001503058
178.9017,-0.0001502144
179.0017,-0.0001500929
179.1017,-0.0001500016
179.2017,-0.0001498895
179.3017,-0.0001498019
179.4017,-0.0001497181
179.5018,-0.0001495919
179.6018,-0.0001494808
179.7018,-0.0001494177
179.8018,-0.0001493028
179.9018,-0.0001491936
180.0018,-0.0001490825
180.1018,-0.0001489553
180.2018,-0.0001488197
180.3018,-0.0001487651
180.4018,-0.0001486587
180.5018,-0.0001485419
180.6018,-0.0001484543
180.7018,-0.000148331
180.8018,-0.0001482396
180.9018,-0.0001481793
181.0018,-0.0001480268
181.1019,-0.000147926
181.2019,-0.0001478432
181.3019,-0.0001477386
181.4019,-0.000147619
181.5019,-0.0001475446
181.6019,-0.0001474721
181.7019,-0.0001473723
181.8019,-0.0001472998
181.9019,-0.000147151
182.0019,-0.0001470455
182.1019,-0.0001469391
182.2019,-0.0001468647
182.3019,-0.000146762
182.4019,-0.0001466773
182.5019,-0.0001465661
182.6019,-0.0001464513
182.702,-0.0001463759
182.802,-0.0001462864
182.902,-0.0001461904
183.002,-0.0001460576
183.102,-0.0001460058
183.202,-0.0001458994
183.302,-0.0001457836
183.402,-0.0001456828
183.502,-0.0001455472
183.602,-0.0001454304
183.702,-0.0001453701
183.802,-0.0001452788
183.902,-0.0001452082
184.002,-0.0001450801
184.102,-0.0001449887
184.202,-0.0001448861
184.302,-0.0001447985
184.4021,-0.0001446469
184.5021,-0.0001445527
184.6021,-0.0001444755
184.7021,-0.0001443851
184.8021,-0.0001442947
184.9021,-0.0001442128
185.0021,-0.0001441233
185.1021,-0.0001440423
185.2021,-0.0001439463
185.3021,-0.0001438436
185.4021,-0.0001437428
185.5021,-0.000143659
185.6021,-0.0001435206
185.7021,-0.0001434179
185.8021,-0.0001433388
185.9021,-0.0001432277
186.0022,-0.0001430893
186.1022,-0.0001430271
186.2022,-0.00014298
186.3022,-0.0001428689
186.4022,-0.0001427324
186.5022,-0.0001426759
186.6022,-0.0001425666
186.7022,-0.0001424706
186.8022,-0.0001423161
186.9022,-0.0001422634
187.0022,-0.0001421579
187.1022,-0.0001420731
187.2022,-0.0001419573
187.3022,-0.0001419084
187.4022,-0.0001418208
187.5022,-0.0001417143
187.6022,-0.0001416315
187.7023,-0.0001415204
187.8023,-0.0001414187
187.9023,-0.0001413584
188.0023,-0.0001412256
188.1023,-0.0001411418
188.2023,-0.000141026
188.3023,-0.0001409318
188.4023,-0.0001408461
188.5023,-0.0001407481
188.6023,-0.0001406445
188.7023,-0.0001405363
188.8023,-0.0001404581
188.9023,-0.0001403733
189.0023,-0.0001402782
189.1023,-0.0001401709
189.2023,-0.0001400588
189.3024,-0.0001399929
189.4024,-0.0001399298
189.5024,-0.000139829
189.6024,-0.0001397245
189.7024,-0.0001396322
189.8024,-0.0001395182
189.9024,-0.000139442
190.0024,-0.0001393713
190.1024,-0.0001392536
190.2024,-0.0001391491
190.3024,-0.0001391142
190.4024,-0.0001389975
190.5024,-0.0001389014
190.6024,-0.0001388138
190.7024,-0.0001387159
190.8024,-0.0001386161
190.9025,-0.0001385558
191.0025,-0.0001384362
191.1025,-0.0001383486
191.2025,-0.000138262
191.3025,-0.0001381678
191.4025,-0.0001380689
191.5025,-0.0001380002
191.6025,-0.0001378966
191.7025,-0.0001377826
191.8025,-0.0001377045
191.9025,-0.0001375981
192.0025,-0.0001375312
192.1025,-0.0001374314
192.2025,-0.0001373118
192.3025,-0.0001372647
192.4025,-0.0001371846
192.5025,-0.0001370594
192.6026,-0.0001369464
192.7026,-0.0001368776
192.8026,-0.0001367966
192.9026,-0.0001366996
193.0026,-0.000136613
193.1026,-0.0001364934
193.2026,-0.0001364294
193.3026,-0.0001363625
193.4026,-0.0001362467
193.5026,-0.0001361544
193.6026,-0.000136095
193.7026,-0.0001360508
193.8026,-0.0001359472
193.9026,-0.0001358389
194.0026,-0.0001357268
194.1026,-0.0001356439
194.2027,-0.0001355404
194.3027,-0.0001354462
194.4027,-0.0001353652
194.5027,-0.0001352729
194.6027,-0.0001351486
194.7027,-0.0001350921
194.8027,-0.0001350149
194.9027,-0.0001349339
195.0027,-0.0001348134
195.1027,-0.0001347295
195.2027,-0.0001346316
195.3027,-0.0001345525
195.4027,-0.0001344715
195.5027,-0.0001343848
195.6027,-0.0001342973
195.7027,-0.0001341956
195.8027,-0.0001341061
195.9028,-0.0001340383
196.0028,-0.0001339601
196.1028,-0.0001338707
196.2028,-0.0001337577
196.3028,-0.0001336908
196.4028,-0.0001335947
196.5028,-0.0001335307
196.6028,-0.0001334591
196.7028,-0.0001333556
196.8028,-0.0001332491
196.9028,-0.0001331907
197.0028,-0.0001331116
197.1028,-0.0001330193
197.2028,-0.0001329158
197.3028,-0.0001328395
197.4028,-0.0001327397
197.5029,-0.0001326643
197.6029,-0.000132556
197.7029,-0.0001324854
197.8029,-0.0001324035
197.9029,-0.0001322895
198.0029,-0.0001322076
198.1029,-0.0001321407
198.2029,-0.0001320409
198.3029,-0.0001319618
198.4029,-0.0001318855
198.5029,-0.00013178
198.6029,-0.0001317339
198.7029,-0.0001316359
198.8029,-0.0001315465
198.9029,-0.0001314448
199.0029,-0.0001313817
199.103,-0.0001312875
199.203,-0.0001312423
199.303,-0.0001311453
199.403,-0.0001310389
199.503,-0.0001309598
199.603,-0.0001309052
199.703,-0.0001308166
199.803,-0.0001307262
199.903,-0.0001306528
200.003,-0.0001305407
200.103,-0.0001304578
200.203,-0.000130391
200.303,-0.0001303288
200.403,-0.0001302478
200.503,-0.0001301979
200.603,-0.0001300811
200.703,-0.0001299888
200.8031,-0.0001299182
200.9031,-0.0001298278
201.0031,-0.0001297628
201.1031,-0.0001296734
201.2031,-0.0001295528
201.3031,-0.0001295067
201.4031,-0.0001294078
201.5031,-0.0001293296
201.6031,-0.0001292355
201.7031,-0.0001291517
201.8031,-0.0001290716
201.9031,-0.0001290038
202.0031,-0.0001289379
202.1031,-0.0001288296
202.2031,-0.0001287693
202.3031,-0.0001287034
202.4032,-0.0001285838
202.5032,-0.0001285264
202.6032,-0.0001284454
202.7032,-0.0001283813
202.8032,-0.0001282937
202.9032,-0.0001282269
203.0032,-0.0001281139
203.1032,-0.0001280592
203.2032,-0.0001279858
203.3032,-0.000127886
203.4032,-0.0001278087
203.5032,-0.0001277777
203.6032,-0.0001277061
203.7032,-0.0001276449
203.8032,-0.0001275404
203.9032,-0.0001274744
204.0033,-0.0001274217
204.1033,-0.0001273878
204.2033,-0.0001272974
204.3033,-0.0001272042
204.4033,-0.0001271618
204.5033,-0.0001270751
204.6033,-0.0001270139
204.7033,-0.0001269273
204.8033,-0.0001268407
204.9033,-0.0001267681
205.0033,-0.0001267031
205.1033,-0.0001266052
205.2033,-0.0001265233
205.3033,-0.0001264771
205.4033,-0.00012635
205.5033,-0.0001263048
205.6033,-0.0001263001
205.7034,-0.0001261937
205.8034,-0.0001260929
205.9034,-0.0001259874
206.0034,-0.0001259083
206.1034,-0.0001258471
206.2034,-0.0001257803
206.3034,-0.0001256522
206.4034,-0.0001255891
206.5034,-0.0001255175
206.6034,-0.0001254422
206.7034,-0.0001253725
206.8034,-0.0001252858
206.9034,-0.0001251823
207.0034,-0.0001251239
207.1034,-0.0001250674
207.2034,-0.0001249628
207.3035,-0.0001248818
207.4035,-0.0001248357
207.5035,-0.0001247359
207.6035,-0.0001246671
207.7035,-0.000124621
207.8035,-0.0001245183
207.9035,-0.0001244562
208.0035,-0.000124411
208.1035,-0.0001242999
208.2035,-0.0001242264
208.3035,-0.0001241624
208.4035,-0.0001240832
208.5035,-0.0001240315
208.6035,-0.000123975
208.7035,-0.0001238657
208.8035,-0.0001237706
208.9035,-0.0001236877
209.0036,-0.0001236086
209.1036,-0.0001235427
209.2036,-0.0001234579
209.3036,-0.0001233779
209.4036,-0.000123295
209.5036,-0.000123247
209.6036,-0.0001231735
209.7036,-0.0001231133
209.8036,-0.0001230474
209.9036,-0.0001229607
210.0036,-0.0001228665
210.1036,-0.0001227959
210.2036,-0.0001227366
210.3036,-0.000122649
210.4036,-0.0001225831
210.5036,-0.0001224786
210.6037,-0.0001224126
210.7037,-0.0001224107
210.8037,-0.0001223646
210.9037,-0.0001222318
211.0037,-0.0001221311
211.1037,-0.0001220717
211.2037,-0.0001220133
211.3037,-0.000121938
211.4037,-0.0001218523
211.5037,-0.0001218024
211.6037,-0.0001217534
211.7037,-0.0001217459
211.8037,-0.0001215896
211.9037,-0.0001215199
212.0037,-0.0001214897
212.1037,-0.0001213946
212.2038,-0.0001213023
212.3038,-0.0001212176
212.4038,-0.0001211074
212.5038,-0.0001210546
212.6038,-0.0001209859
212.7038,-0.0001208974
212.8038,-0.0001208503
212.9038,-0.0001207947
213.0038,-0.0001207439
213.1038,-0.0001206657
213.2038,-0.0001205951
213.3038,-0.0001205235
213.4038,-0.0001204576
213.5038,-0.0001203964
213.6038,-0.0001203069
213.7038,-0.0001202485
213.8038,-0.0001201911
213.9039,-0.0001200978
214.0039,-0.0001200461
214.1039,-0.0001199585
214.2039,-0.0001198888
214.3039,-0.000119836
214.4039,-0.0001197833
214.5039,-0.0001196825
214.6039,-0.0001196166
214.7039,-0.0001195592
214.8039,-0.0001194829
214.9039,-0.000119417
215.0039,-0.0001193256
215.1039,-0.0001192607
215.2039,-0.0001192362
215.3039,-0.0001191439
215.4039,-0.0001190761
215.504,-0.0001190036
215.604,-0.0001189386
215.704,-0.0001188491
215.804,-0.0001187587
215.904,-0.0001187126
216.004,-0.0001186514
216.104,-0.0001185685
216.204,-0.0001185129
216.304,-0.0001184272
216.404,-0.0001183651
216.504,-0.000118333
216.604,-0.0001182144
216.704,-0.00011814
216.804,-0.0001180562
216.904,-0.0001179855
217.004,-0.0001179403
217.104,-0.0001178791
217.2041,-0.0001177915
217.3041,-0.0001177266
217.4041,-0.0001176795
217.5041,-0.0001175815
217.6041,-0.0001175411
217.7041,-0.0001174874
217.8041,-0.0001173979
217.9041,-0.0001173169
218.0041,-0.0001172774
218.1041,-0.0001172406
218.2041,-0.0001171182
218.3041,-0.0001170787
218.4041,-0.0001169798
218.5041,-0.0001169336
218.6041,-0.0001168969
218.7041,-0.0001167943
218.8042,-0.0001166944
218.9042,-0.0001166502
219.0042,-0.0001165795
219.1042,-0.0001165259
219.2042,-0.0001164477
219.3042,-0.0001163403
219.4042,-0.0001163064
219.5042,-0.000116265
219.6042,-0.0001161652
219.7042,-0.0001160635
219.8042,-0.0001160851
219.9042,-0.000116007
220.0042,-0.0001159448
220.1042,-0.000115893
220.2042,-0.0001158101
220.3042,-0.0001157301
220.4043,-0.0001157084
220.5043,-0.0001156133
220.6043,-0.0001155361
220.7043,-0.0001154843
220.8043,-0.000115393
220.9043,-0.0001153204
221.0043,-0.000115263
221.1043,-0.0001152027
221.2043,-0.0001151566
221.3043,-0.0001150737
221.4043,-0.0001150125
221.5043,-0.0001149372
221.6043,-0.00011494
221.7043,-0.0001148618
221.8043,-0.0001147573
221.9043,-0.0001146848
222.0043,-0.0001146047
222.1044,-0.0001145624
222.2044,-0.0001145162
222.3044,-0.0001144286
222.4044,-0.000114358
222.5044,-0.0001143222
222.6044,-0.0001142666
222.7044,-0.0001141696
222.8044,-0.0001141273
222.9044,-0.0001140604
223.0044,-0.0001139766
223.1044,-0.0001139606
223.2044,-0.000113889
223.3044,-0.0001138137
223.4044,-0.0001137261
223.5044,-0.000113679
223.6044,-0.000113598
223.7045,-0.0001135594
223.8045,-0.0001134812
223.9045,-0.0001133946
224.0045,-0.0001133551
224.1045,-0.0001133117
224.2045,-0.0001132571
224.3045,-0.0001131827
224.4045,-0.0001130904
224.5045,-0.0001130085
224.6045,-0.0001129774
224.7045,-0.0001129143
224.8045,-0.000112838
224.9045,-0.000112791
225.0045,-0.0001127166
225.1045,-0.0001126685
225.2045,-0.0001126158
225.3046,-0.000112547
225.4046,-0.0001124698
225.5046,-0.0001124133
225.6046,-0.00011237
225.7046,-0.00011229
225.8046,-0.0001122495
225.9046,-0.0001121581
226.0046,-0.0001120997
226.1046,-0.0001120696
226.2046,-0.000111983
226.3046,-0.000111917
226.4046,-0.0001118445
226.5046,-0.0001117899
226.6046,-0.0001117409
226.7046,-0.0001116402
226.8046,-0.0001115818
226.9046,-0.0001115017
227.0047,-0.0001114706
227.1047,-0.0001114311
227.2047,-0.0001113313
227.3047,-0.0001112766
227.4047,-0.0001112183
227.5047,-0.0001111674
227.6047,-0.0001111147
227.7047,-0.0001110553
227.8047,-0.0001110111
227.9047,-0.0001109339
228.0047,-0.0001108632
228.1047,-0.0001107606
228.2047,-0.0001106918
228.3047,-0.0001106551
228.4047,-0.0001105911
228.5047,-0.0001105402
228.6048,-0.0001104658
228.7048,-0.0001104065
228.8048,-0.0001103707
228.9048,-0.000110317
229.0048,-0.0001102379
229.1048,-0.0001101871
229.2048,-0.0001101221
229.3048,-0.0001100496
229.4048,-0.0001100345
229.5048,-0.0001099827
229.6048,-0.0001099017
229.7048,-0.0001098367
229.8048,-0.0001097878
229.9048,-0.0001097228
230.0048,-0.0001096682
230.1048,-0.000109639
230.2048,-0.0001095467
230.3049,-0.0001094874
230.4049,-0.0001094516
230.5049,-0.0001093791
230.6049,-0.0001093452
230.7049,-0.0001092962
230.8049,-0.0001092463
230.9049,-0.0001091719
231.0049,-0.0001091257
231.1049,-0.000109056
231.2049,-0.0001089817
231.3049,-0.000108944
231.4049,-0.0001088733
231.5049,-0.0001088112
231.6049,-0.0001087594
231.7049,-0.000108701
231.8049,-0.0001086407
231.905,-0.0001085786
232.005,-0.0001085183
232.105,-0.0001084769
232.205,-0.0001084138
232.305,-0.0001083535
232.405,-0.0001082829
232.505,-0.000108249
232.605,-0.0001082047
232.705,-0.0001081548
232.805,-0.0001080945
232.905,-0.0001079957
233.005,-0.0001079627
233.105,-0.0001079269
233.205,-0.0001078497
233.305,-0.0001077809
233.405,-0.0001077762
233.5051,-0.0001077602
233.6051,-0.0001076726
233.7051,-0.0001076086
233.8051,-0.0001075427
233.9051,-0.0001074758
234.0051,-0.0001074061
234.1051,-0.000107312
234.2051,-0.0001072931
234.3051,-0.0001072715
234.4051,-0.000107215
234.5051,-0.0001071585
234.6051,-0.0001070756
234.7051,-0.00010702
234.8051,-0.0001069871
234.9051,-0.00010694
235.0051,-0.0001068599
235.1051,-0.0001067949
235.2052,-0.0001067554
235.3052,-0.0001066904
235.4052,-0.0001066471
235.5052,-0.0001066132
235.6052,-0.0001065407
235.7052,-0.0001064663
235.8052,-0.0001064333
235.9052,-0.0001063834
236.0052,-0.0001063288
236.1052,-0.0001062723
236.2052,-0.0001061838
236.3052,-0.0001061433
236.4052,-0.0001061131
236.5052,-0.0001060679
236.6052,-0.0001060058
236.7052,-0.000105921
236.8053,-0.000105857
236.9053,-0.0001058043
237.0053,-0.0001057779
237.1053,-0.000105695
237.2053,-0.0001056338
237.3053,-0.0001055801
237.4053,-0.0001055443
237.5053,-0.0001054925
237.6053,-0.0001054549
237.7053,-0.0001053598
237.8053,-0.000105291
237.9053,-0.0001052439
238.0053,-0.0001052025
238.1053,-0.0001051658
238.2053,-0.0001051074
238.3053,-0.0001050245
238.4053,-0.0001049915
238.5054,-0.0001049661
238.6054,-0.0001049134
238.7054,-0.0001048418
238.8054,-0.0001047759
238.9054,-0.0001047288
239.0054,-0.0001046582
239.1054,-0.0001046214
239.2054,-0.0001045715
239.3054,-0.0001045113
239.4054,-0.0001044962
239.5054,-0.0001044246
239.6054,-0.00010437
239.7054,-0.0001043314
239.8054,-0.0001042504
239.9054,-0.000104224
240.0054,-0.0001041798
240.1055,-0.0001041129
240.2055,-0.0001040441
240.3055,-0.000103999
240.4055,-0.0001039396
240.5055,-0.0001038878
240.6055,-0.0001038332
240.7055,-0.0001037626
240.8055,-0.0001036976
240.9055,-0.0001036929
241.0055,-0.000103643
241.1055,-0.0001035639
241.2055,-0.0001035083
241.3055,-0.000103449
241.4055,-0.0001033689
241.5055,-0.0001033746
241.6055,-0.0001032927
241.7056,-0.000103223
241.8056,-0.0001032041
241.9056,-0.0001031523
242.0056,-0.0001031071
242.1056,-0.0001030478
242.2056,-0.0001029969
242.3056,-0.0001029291
242.4056,-0.0001028821
242.5056,-0.0001028378
242.6056,-0.0001027681
242.7056,-0.000102722
242.8056,-0.0001026645
242.9056,-0.0001026118
243.0056,-0.0001025788
243.1056,-0.0001025233
243.2056,-0.0001024498
243.3056,-0.0001024159
243.4057,-0.0001023726
243.5057,-0.0001023104
243.6057,-0.0001022728
243.7057,-0.0001022059
243.8057,-0.0001021456
243.9057,-0.0001021174
244.0057,-0.0001020712
244.1057,-0.0001020147
244.2057,-0.0001019337
244.3057,-0.0001018989
244.4057,-0.0001018461
244.5057,-0.000101816
244.6057,-0.0001017661
244.7057,-0.0001016842
244.8057,-0.0001016522
244.9057,-0.0001016192
245.0058,-0.0001015439
245.1058,-0.0001014779
245.2058,-0.0001014629
245.3058,-0.0001013988
245.4058,-0.0001013668
245.5058,-0.000101283
245.6058,-0.000101235
245.7058,-0.0001012293
245.8058,-0.0001011709
245.9058,-0.0001010994
246.0058,-0.0001010504
246.1058,-0.0001010005
246.2058,-0.0001009487
246.3058,-0.0001008988
246.4058,-0.0001008639
246.5058,-0.000100814
246.6059,-0.000100765
246.7059,-0.0001007349
246.8059,-0.0001006398
246.9059,-0.0001006134
247.0059,-0.0001005569
247.1059,-0.0001004948
247.2059,-0.0001004477
247.3059,-0.0001004062
247.4059,-0.0001003658
247.5059,-0.0001002998
247.6059,-0.0001002678
247.7059,-0.0001002075
247.8059,-0.0001001567
247.9059,-0.0001001002
248.0059,-0.0001000465
248.1059,-0.0001000286
248.2059,-9.996739E-05
248.306,-9.988358E-05
248.406,-9.985062E-05
248.506,-9.983838E-05
248.606,-9.977716E-05
248.706,-9.970184E-05
248.806,-9.965663E-05
248.906,-9.960389E-05
249.006,-9.954174E-05
249.106,-9.952101E-05
249.206,-9.946357E-05
249.306,-9.940424E-05
249.406,-9.935716E-05
249.506,-9.931007E-05
249.606,-9.92611E-05
249.706,-9.92385E-05
249.806,-9.914338E-05
249.9061,-9.908876E-05
250.0061,-9.906146E-05
250.1061,-9.900683E-05
250.2061,-9.898988E-05
250.3061,-9.896257E-05
250.4061,-9.888441E-05
250.5061,-9.880813E-05
250.6061,-9.879588E-05
250.7061,-9.875822E-05
250.8061,-9.870454E-05
250.9061,-9.865274E-05
251.0061,-9.858212E-05
251.1061,-9.856328E-05
251.2061,-9.853408E-05
251.3061,-9.84644E-05
251.4061,-9.840318E-05
251.5061,-9.840224E-05
251.6062,-9.836457E-05
251.7062,-9.832314E-05
251.8062,-9.824686E-05
251.9062,-9.818658E-05
252.0062,-9.816964E-05
252.1062,-9.815834E-05
252.2062,-9.803497E-05
252.3062,-9.800388E-05
252.4062,-9.805003E-05
252.5062,-9.799824E-05
252.6062,-9.790596E-05
252.7062,-9.788335E-05
252.8062,-9.786733E-05
252.9062,-9.778824E-05
253.0062,-9.774679E-05
253.1062,-9.767427E-05
253.2063,-9.759706E-05
253.3063,-9.75867E-05
253.4063,-9.751607E-05
253.5063,-9.745392E-05
253.6063,-9.742002E-05
253.7063,-9.737387E-05
253.8063,-9.735315E-05
253.9063,-9.728347E-05
254.0063,-9.724955E-05
254.1063,-9.718929E-05
254.2063,-9.715821E-05
254.3063,-9.712526E-05
254.4063,-9.71083E-05
254.5063,-9.705934E-05
254.6063,-9.702543E-05
254.7063,-9.694821E-05
254.8064,-9.687758E-05
254.9064,-9.685026E-05
255.0064,-9.678058E-05
255.1064,-9.673914E-05
255.2064,-9.670524E-05
255.3064,-9.666003E-05
255.4064,-9.664403E-05
255.5064,-9.659035E-05
255.6064,-9.65216E-05
255.7064,-9.649053E-05
255.8064,-9.644627E-05
255.9064,-9.640859E-05
256.0064,-9.638506E-05
256.1064,-9.629842E-05
256.2064,-9.626734E-05
256.3064,-9.624474E-05
256.4064,-9.621083E-05
256.5064,-9.612514E-05
256.6064,-9.612419E-05
256.7065,-9.609971E-05
256.8065,-9.598576E-05
256.9065,-9.596128E-05
257.0065,-9.596128E-05
257.1065,-9.59189E-05
257.2065,-9.587935E-05
257.3065,-9.581342E-05
257.4065,-9.577387E-05
257.5065,-9.572961E-05
257.6065,-9.568346E-05
257.7065,-9.561754E-05
257.8065,-9.556858E-05
257.9065,-9.554879E-05
258.0065,-9.550076E-05
258.1065,-9.545085E-05
258.2065,-9.542448E-05
258.3065,-9.536609E-05
258.4066,-9.529076E-05
258.5066,-9.527287E-05
258.6066,-9.521448E-05
258.7066,-9.517116E-05
258.8066,-9.512784E-05
258.9066,-9.505438E-05
259.0066,-9.503272E-05
259.1066,-9.501766E-05
259.2066,-9.49668E-05
259.3066,-9.48943E-05
259.4066,-9.487546E-05
259.5066,-9.482649E-05
259.6066,-9.477563E-05
259.7066,-9.474267E-05
259.8066,-9.47003E-05
259.9066,-9.464002E-05
260.0067,-9.461271E-05
260.1067,-9.455714E-05
260.2067,-9.452985E-05
260.3067,-9.448369E-05
260.4067,-9.442437E-05
260.5067,-9.441495E-05
260.6067,-9.437634E-05
260.7067,-9.42897E-05
260.8067,-9.425674E-05
260.9067,-9.42379E-05
261.0067,-9.419929E-05
261.1067,-9.413431E-05
261.2067,-9.413149E-05
261.3067,-9.409006E-05
261.4067,-9.402884E-05
261.5067,-9.399965E-05
261.6068,-9.394033E-05
261.7068,-9.391677E-05
261.8068,-9.385461E-05
261.9068,-9.381036E-05
262.0068,-9.378211E-05
262.1068,-9.375009E-05
262.2068,-9.368982E-05
262.3068,-9.362201E-05
262.4068,-9.360506E-05
262.5068,-9.356362E-05
262.6068,-9.348452E-05
262.7068,-9.347134E-05
262.8068,-9.343273E-05
262.9068,-9.341013E-05
263.0068,-9.33734E-05
263.1068,-9.330842E-05
263.2068,-9.324438E-05
263.3069,-9.324533E-05
263.4069,-9.3202E-05
263.5069,-9.314267E-05
263.6069,-9.310877E-05
263.7069,-9.30438E-05
263.8069,-9.300706E-05
263.9069,-9.297034E-05
264.0069,-9.293455E-05
264.1069,-9.288934E-05
264.2069,-9.286486E-05
264.3069,-9.287711E-05
264.4069,-9.278765E-05
264.5069,-9.274244E-05
264.6069,-9.267558E-05
264.7069,-9.262284E-05
264.8069,-9.261248E-05
264.907,-9.255126E-05
265.007,-9.249194E-05
265.107,-9.24731E-05
265.207,-9.241283E-05
265.307,-9.238552E-05
265.407,-9.232054E-05
265.507,-9.229041E-05
265.607,-9.224426E-05
265.707,-9.223579E-05
265.807,-9.218964E-05
265.907,-9.211713E-05
266.007,-9.208511E-05
266.107,-9.204179E-05
266.207,-9.198341E-05
266.307,-9.195138E-05
266.407,-9.190336E-05
266.507,-9.185814E-05
266.6071,-9.181671E-05
266.7071,-9.177717E-05
266.8071,-9.1715E-05
266.9071,-9.168957E-05
267.0071,-9.165661E-05
267.1071,-9.161141E-05
267.2071,-9.155586E-05
267.3071,-9.149653E-05
267.4071,-9.150407E-05
267.5071,-9.144473E-05
267.6071,-9.138823E-05
267.7071,-9.13449E-05
267.8071,-9.130347E-05
267.9071,-9.12771E-05
268.0071,-9.11801E-05
268.1071,-9.119329E-05
268.2072,-9.118953E-05
268.3072,-9.114244E-05
268.4072,-9.109723E-05
268.5072,-9.106992E-05
268.6072,-9.104639E-05
268.7072,-9.098798E-05
268.8072,-9.096162E-05
268.9072,-9.088252E-05
269.0072,-9.087216E-05
269.1072,-9.084955E-05
269.2072,-9.079304E-05
269.3072,-9.072713E-05
269.4072,-9.072336E-05
269.5072,-9.068663E-05
269.6072,-9.064614E-05
269.7072,-9.058587E-05
269.8073,-9.052843E-05
269.9073,-9.05143E-05
270.0073,-9.051147E-05
270.1073,-9.041731E-05
270.2073,-9.035703E-05
270.3073,-9.034762E-05
270.4073,-9.030711E-05
270.5073,-9.026474E-05
270.6073,-9.022142E-05
270.7073,-9.016397E-05
270.8073,-9.015362E-05
270.9073,-9.015456E-05
271.0073,-9.008299E-05
271.1073,-9.00293E-05
271.2073,-9.002271E-05
271.3073,-8.99841E-05
271.4073,-8.995114E-05
271.5074,-8.992854E-05
271.6074,-8.986828E-05
271.7074,-8.979764E-05
271.8074,-8.98033E-05
271.9074,-8.977034E-05
272.0074,-8.968652E-05
272.1074,-8.964979E-05
272.2074,-8.962437E-05
272.3074,-8.959235E-05
272.4074,-8.954243E-05
272.5074,-8.947934E-05
272.6074,-8.942566E-05
272.7074,-8.94379E-05
272.8074,-8.939364E-05
272.9074,-8.933619E-05
273.0074,-8.930888E-05
273.1075,-8.92665E-05
273.2075,-8.92439E-05
273.3075,-8.920341E-05
273.4075,-8.915162E-05
273.5075,-8.912336E-05
273.6075,-8.911865E-05
273.7075,-8.907721E-05
273.8075,-8.900094E-05
273.9075,-8.896044E-05
274.0075,-8.893973E-05
274.1075,-8.887475E-05
274.2075,-8.886345E-05
274.3075,-8.881166E-05
274.4075,-8.876174E-05
274.5075,-8.873442E-05
274.6075,-8.868829E-05
274.7076,-8.86346E-05
274.8076,-8.8628E-05
274.9076,-8.859223E-05
275.0076,-8.85216E-05
275.1076,-8.849241E-05
275.2076,-8.84811E-05
275.3076,-8.8418E-05
275.4076,-8.838787E-05
275.5076,-8.834738E-05
275.6076,-8.830499E-05
275.7076,-8.826638E-05
275.8076,-8.826073E-05
275.9076,-8.820611E-05
276.0076,-8.817598E-05
276.1076,-8.813737E-05
276.2076,-8.807804E-05
276.3076,-8.805732E-05
276.4077,-8.802813E-05
276.5077,-8.795845E-05
276.6077,-8.795373E-05
276.7077,-8.792265E-05
276.8077,-8.792265E-05
276.9077,-8.790665E-05
277.0077,-8.783413E-05
277.1077,-8.776633E-05
277.2077,-8.776256E-05
277.3077,-8.773713E-05
277.4077,-8.765897E-05
277.5077,-8.763449E-05
277.6077,-8.759588E-05
277.7077,-8.754879E-05
277.8077,-8.752994E-05
277.9077,-8.748663E-05
278.0078,-8.744802E-05
278.1078,-8.742919E-05
278.2078,-8.741695E-05
278.3078,-8.734444E-05
278.4078,-8.732465E-05
278.5078,-8.729169E-05
278.6078,-8.726344E-05
278.7078,-8.720412E-05
278.8078,-8.719187E-05
278.9078,-8.71137E-05
279.0078,-8.70864E-05
279.1078,-8.705438E-05
279.2078,-8.701294E-05
279.3078,-8.696115E-05
279.4078,-8.690558E-05
279.5078,-8.68698E-05
279.6078,-8.684155E-05
279.7079,-8.682365E-05
279.8079,-8.676244E-05
279.9079,-8.67276E-05
280.0079,-8.668993E-05
280.1079,-8.665132E-05
280.2079,-8.662872E-05
280.3079,-8.660329E-05
280.4079,-8.655809E-05
280.5079,-8.653737E-05
280.6079,-8.653266E-05
280.7079,-8.646862E-05
280.8079,-8.644132E-05
280.9079,-8.640646E-05
281.0079,-8.637727E-05
281.1079,-8.634526E-05
281.2079,-8.62944E-05
281.308,-8.623601E-05
281.408,-8.622095E-05
281.508,-8.620776E-05
281.608,-8.613808E-05
281.708,-8.609852E-05
281.808,-8.611171E-05
281.908,-8.608628E-05
282.008,-8.60439E-05
282.108,-8.59874E-05
282.208,-8.594878E-05
282.308,-8.591771E-05
282.408,-8.597045E-05
282.508,-8.587344E-05
282.608,-8.58499E-05
282.708,-8.581788E-05
282.808,-8.57708E-05
282.9081,-8.572559E-05
283.0081,-8.57077E-05
283.1081,-8.564837E-05
283.2081,-8.558245E-05
283.3081,-8.556832E-05
283.4081,-8.552313E-05
283.5081,-8.549017E-05
283.6081,-8.54459E-05
283.7081,-8.543648E-05
283.8081,-8.540635E-05
283.9081,-8.538093E-05
284.0081,-8.534797E-05
284.1081,-8.52811E-05
284.2081,-8.528581E-05
284.3081,-8.526038E-05
284.4081,-8.522459E-05
284.5081,-8.519822E-05
284.6082,-8.51662E-05
284.7082,-8.512571E-05
284.8082,-8.510405E-05
284.9082,-8.501083E-05
285.0082,-8.5008E-05
285.1082,-8.499763E-05
285.2082,-8.49788E-05
285.3082,-8.490817E-05
285.4082,-8.487804E-05
285.5082,-8.486203E-05
285.6082,-8.482059E-05
285.7082,-8.479328E-05
285.8082,-8.474525E-05
285.9082,-8.470852E-05
286.0082,-8.46831E-05
286.1082,-8.462942E-05
286.2083,-8.460399E-05
286.3083,-8.459081E-05
286.4083,-8.454937E-05
286.5083,-8.449852E-05
286.6083,-8.445897E-05
286.7083,-8.444578E-05
286.8083,-8.439587E-05
286.9083,-8.43695E-05
287.0083,-8.432147E-05
287.1083,-8.427062E-05
287.2083,-8.429134E-05
287.3083,-8.422731E-05
287.4083,-8.418116E-05
287.5083,-8.414631E-05
287.6083,-8.412465E-05
287.7083,-8.409358E-05
287.8083,-8.406344E-05
287.9084,-8.399846E-05
288.0084,-8.402578E-05
288.1084,-8.400788E-05
288.2084,-8.401353E-05
288.3084,-8.391936E-05
288.4084,-8.385909E-05
288.5084,-8.385249E-05
288.6084,-8.380164E-05
288.7084,-8.377338E-05
288.8084,-8.373854E-05
288.9084,-8.369146E-05
289.0084,-8.36858E-05
289.1084,-8.363307E-05
289.2084,-8.358598E-05
289.3084,-8.357091E-05
289.4084,-8.35502E-05
289.5085,-8.350217E-05
289.6085,-8.348522E-05
289.7085,-8.345414E-05
289.8085,-8.342588E-05
289.9085,-8.338445E-05
290.0085,-8.335149E-05
290.1085,-8.330252E-05
290.2085,-8.328086E-05
290.3085,-8.324508E-05
290.4085,-8.321965E-05
290.5085,-8.318198E-05
290.6085,-8.314619E-05
290.7085,-8.308027E-05
290.8085,-8.308497E-05
290.9085,-8.30605E-05
291.0085,-8.297103E-05
291.1086,-8.299458E-05
291.2086,-8.297386E-05
291.3086,-8.292112E-05
291.4086,-8.287403E-05
291.5086,-8.282977E-05
291.6086,-8.282601E-05
291.7086,-8.27987E-05
291.8086,-8.275349E-05
291.9086,-8.270358E-05
292.0086,-8.27064E-05
292.1086,-8.269228E-05
292.2086,-8.263389E-05
292.3086,-8.263672E-05
292.4086,-8.259623E-05
292.5086,-8.256231E-05
292.6086,-8.252936E-05
292.7086,-8.24851E-05
292.8087,-8.242671E-05
292.9087,-8.2422E-05
293.0087,-8.240694E-05
293.1087,-8.234196E-05
293.2087,-8.229863E-05
293.3087,-8.23203E-05
293.4087,-8.232218E-05
293.5087,-8.22845E-05
293.6087,-8.227603E-05
293.7087,-8.221859E-05
293.8087,-8.216679E-05
293.9087,-8.215643E-05
294.0087,-8.209523E-05
294.1087,-8.20359E-05
294.2087,-8.202177E-05
294.3087,-8.197186E-05
294.4088,-8.194454E-05
294.5088,-8.191817E-05
294.6088,-8.187674E-05
294.7088,-8.188239E-05
294.8088,-8.186827E-05
294.9088,-8.181364E-05
295.0088,-8.176185E-05
295.1088,-8.173171E-05
295.2088,-8.1727E-05
295.3088,-8.168275E-05
295.4088,-8.167145E-05
295.5088,-8.163943E-05
295.6088,-8.156785E-05
295.7088,-8.157821E-05
295.8088,-8.154337E-05
295.9088,-8.148592E-05
296.0089,-8.144919E-05
296.1089,-8.143883E-05
296.2089,-8.142659E-05
296.3089,-8.14021E-05
296.4089,-8.133619E-05
296.5089,-8.128345E-05
296.6089,-8.128157E-05
296.7089,-8.127874E-05
296.8089,-8.120717E-05
296.9089,-8.116008E-05
297.0089,-8.113842E-05
297.1089,-8.111865E-05
297.2089,-8.110452E-05
297.3089,-8.103672E-05
297.4089,-8.099528E-05
297.5089,-8.099151E-05
297.6089,-8.095478E-05
297.709,-8.092276E-05
297.809,-8.090393E-05
297.909,-8.087944E-05
298.009,-8.0822E-05
298.109,-8.078433E-05
298.209,-8.077492E-05
298.309,-8.072688E-05
298.409,-8.073066E-05
298.509,-8.072029E-05
298.609,-8.064119E-05
298.709,-8.061765E-05
298.809,-8.061011E-05
298.909,-8.056114E-05
299.009,-8.053665E-05
299.109,-8.048863E-05
299.209,-8.044248E-05
299.3091,-8.043023E-05
299.4091,-8.041612E-05
299.5091,-8.037845E-05
299.6091,-8.033324E-05
299.7091,-8.029652E-05
299.8091,-8.02645E-05
299.9091,-8.025132E-05
300.0091,-8.022965E-05
300.1091,-8.017974E-05
300.2091,-8.015526E-05
300.3091,-8.014112E-05
300.4091,-8.009687E-05
300.5091,-8.007426E-05
300.6091,-8.00705E-05
300.7091,-7.999704E-05
300.8091,-7.996973E-05
300.9091,-7.997632E-05
301.0092,-7.992924E-05
301.1092,-7.990758E-05
301.2092,-7.988592E-05
301.3092,-7.990099E-05
301.4092,-7.984071E-05
301.5092,-7.982377E-05
301.6092,-7.977479E-05
301.7092,-7.973713E-05
301.8092,-7.974183E-05
301.9092,-7.968251E-05
302.0092,-7.967497E-05
302.1092,-7.964483E-05
302.2092,-7.957044E-05
302.3092,-7.956196E-05
302.4092,-7.955631E-05
302.5092,-7.948945E-05
302.6093,-7.948663E-05
302.7093,-7.947627E-05
302.8093,-7.942635E-05
302.9093,-7.936797E-05
303.0093,-7.935383E-05
303.1093,-7.932087E-05
303.2093,-7.927661E-05
303.3093,-7.929074E-05
303.4093,-7.924742E-05
303.5093,-7.918715E-05
303.6093,-7.916927E-05
303.7093,-7.915419E-05
303.8093,-7.913818E-05
303.9093,-7.908545E-05
304.0093,-7.904496E-05
304.1093,-7.90233E-05
304.2094,-7.901293E-05
304.3094,-7.897621E-05
304.4094,-7.893288E-05
304.5094,-7.890087E-05
304.6094,-7.888486E-05
304.7094,-7.885566E-05
304.8094,-7.884248E-05
304.9094,-7.87954E-05
305.0094,-7.874265E-05
305.1094,-7.87502E-05
305.2094,-7.872571E-05
305.3094,-7.868427E-05
305.4094,-7.866638E-05
305.5094,-7.861364E-05
305.6094,-7.862212E-05
305.7094,-7.860139E-05
305.8094,-7.854772E-05
305.9095,-7.85157E-05
306.0095,-7.848933E-05
306.1095,-7.845072E-05
306.2095,-7.843188E-05
306.3095,-7.842811E-05
306.4095,-7.837444E-05
306.5095,-7.837726E-05
306.6095,-7.833583E-05
306.7095,-7.831417E-05
306.8095,-7.827838E-05
306.9095,-7.826143E-05
307.0095,-7.823601E-05
307.1095,-7.820022E-05
307.2095,-7.821341E-05
307.3095,-7.817103E-05
307.4095,-7.812488E-05
307.5096,-7.810228E-05
307.6096,-7.805613E-05
307.7096,-7.801847E-05
307.8096,-7.800811E-05
307.9096,-7.79629E-05
308.0096,-7.794877E-05
308.1096,-7.791864E-05
308.2096,-7.78659E-05
308.3096,-7.784519E-05
308.4096,-7.785743E-05
308.5096,-7.787721E-05
308.6096,-7.779904E-05
308.7096,-7.775384E-05
308.8096,-7.77303E-05
308.9096,-7.769827E-05
309.0096,-7.772371E-05
309.1096,-7.765966E-05
309.2097,-7.75994E-05
309.3097,-7.758715E-05
309.4097,-7.754195E-05
309.5097,-7.753347E-05
309.6097,-7.750899E-05
309.7097,-7.751276E-05
309.8097,-7.746756E-05
309.9097,-7.741764E-05
310.0097,-7.740917E-05
310.1097,-7.737245E-05
310.2097,-7.735737E-05
310.3097,-7.73084E-05
310.4097,-7.726037E-05
310.5097,-7.726791E-05
310.6097,-7.723778E-05
310.7097,-7.721517E-05
310.8098,-7.716808E-05
310.9098,-7.711817E-05
311.0098,-7.710875E-05
311.1098,-7.710875E-05
311.2098,-7.705884E-05
311.3098,-7.700516E-05
311.4098,-7.701269E-05
311.5098,-7.700611E-05
311.6098,-7.695431E-05
311.7098,-7.695526E-05
311.8098,-7.68997E-05
311.9098,-7.686485E-05
312.0098,-7.689121E-05
312.1098,-7.68705E-05
312.2098,-7.678856E-05
312.3098,-7.678009E-05
312.4099,-7.67782E-05
312.5099,-7.67443E-05
312.6099,-7.670664E-05
312.7099,-7.667273E-05
312.8099,-7.664542E-05
312.9099,-7.662376E-05
313.0099,-7.660775E-05
313.1099,-7.655879E-05
313.2099,-7.652675E-05
313.3099,-7.649192E-05
313.4099,-7.643823E-05
313.5099,-7.642694E-05
313.6099,-7.643259E-05
313.7099,-7.637044E-05
313.8099,-7.633936E-05
313.9099,-7.631487E-05
314.0099,-7.627815E-05
314.11,-7.628286E-05
314.21,-7.624047E-05
314.31,-7.621504E-05
314.41,-7.616514E-05
314.51,-7.619245E-05
314.61,-7.614913E-05
314.71,-7.612747E-05
314.81,-7.611993E-05
314.91,-7.606907E-05
315.01,-7.606343E-05
315.11,-7.60512E-05
315.21,-7.600128E-05
315.31,-7.594007E-05
315.41,-7.59523E-05
315.51,-7.590804E-05
315.61,-7.589392E-05
315.7101,-7.587132E-05
315.8101,-7.583553E-05
315.9101,-7.580446E-05
316.0101,-7.581105E-05
316.1101,-7.575078E-05
316.2101,-7.573665E-05
316.3101,-7.572441E-05
316.4101,-7.568015E-05
316.5101,-7.562741E-05
316.6101,-7.564624E-05
316.7101,-7.561987E-05
316.8101,-7.557938E-05
316.9101,-7.554831E-05
317.0101,-7.550875E-05
317.1101,-7.550687E-05
317.2101,-7.549839E-05
317.3102,-7.54287E-05
317.4102,-7.541553E-05
317.5102,-7.541364E-05
317.6102,-7.538162E-05
317.7102,-7.535524E-05
317.8102,-7.531758E-05
317.9102,-7.528556E-05
318.0102,-7.525636E-05
318.1102,-7.525166E-05
318.2102,-7.52187E-05
318.3102,-7.516502E-05
318.4102,-7.520081E-05
318.5102,-7.516973E-05
318.6102,-7.509722E-05
318.7102,-7.510663E-05
318.8102,-7.510475E-05
318.9102,-7.506519E-05
319.0103,-7.504637E-05
319.1103,-7.502376E-05
319.2103,-7.498515E-05
319.3103,-7.500021E-05
319.4103,-7.497196E-05
319.5103,-7.492676E-05
319.6103,-7.494183E-05
319.7103,-7.492581E-05
319.8103,-7.485237E-05
319.9103,-7.481752E-05
320.0103,-7.481752E-05
320.1103,-7.479963E-05
320.2103,-7.477043E-05
320.3103,-7.470922E-05
320.4103,-7.464895E-05
320.5103,-7.464801E-05
320.6104,-7.46207E-05
320.7104,-7.458773E-05
320.8104,-7.455196E-05
320.9104,-7.453406E-05
321.0104,-7.449168E-05
321.1104,-7.447661E-05
321.2104,-7.448038E-05
321.3104,-7.444082E-05
321.4104,-7.440599E-05
321.5104,-7.437303E-05
321.6104,-7.435136E-05
321.7104,-7.437397E-05
321.8104,-7.433913E-05
321.9104,-7.426567E-05
322.0104,-7.427226E-05
322.1104,-7.427226E-05
322.2104,-7.422046E-05
322.3105,-7.419597E-05
322.4105,-7.420163E-05
322.5105,-7.416019E-05
322.6105,-7.416961E-05
322.7105,-7.413288E-05
322.8105,-7.40792E-05
322.9105,-7.405095E-05
323.0105,-7.403212E-05
323.1105,-7.400009E-05
323.2105,-7.398409E-05
323.3105,-7.397468E-05
323.4105,-7.391911E-05
323.5105,-7.389275E-05
323.6105,-7.386261E-05
323.7105,-7.38466E-05
323.8105,-7.383153E-05
323.9106,-7.378915E-05
324.0106,-7.376279E-05
324.1106,-7.37496E-05
324.2106,-7.372323E-05
324.3106,-7.368085E-05
324.4106,-7.366861E-05
324.5106,-7.366296E-05
324.6106,-7.361587E-05
324.7106,-7.359515E-05
324.8106,-7.357914E-05
324.9106,-7.354807E-05
325.0106,-7.353677E-05
325.1106,-7.352263E-05
325.2106,-7.346142E-05
325.3106,-7.344825E-05
325.4106,-7.345954E-05
325.5107,-7.340869E-05
325.6107,-7.337479E-05
325.7107,-7.335124E-05
325.8107,-7.332581E-05
325.9107,-7.332865E-05
326.0107,-7.329285E-05
326.1107,-7.324012E-05
326.2107,-7.321658E-05
326.3107,-7.323823E-05
326.4107,-7.318739E-05
326.5107,-7.314501E-05
326.6107,-7.314124E-05
326.7107,-7.311958E-05
326.8107,-7.309886E-05
326.9107,-7.310263E-05
327.0107,-7.302164E-05
327.1107,-7.30207E-05
327.2108,-7.299715E-05
327.3108,-7.296514E-05
327.4108,-7.293028E-05
327.5108,-7.290769E-05
327.6108,-7.286907E-05
327.7108,-7.285778E-05
327.8108,-7.28606E-05
327.9108,-7.28041E-05
328.0108,-7.277114E-05
328.1108,-7.27636E-05
328.2108,-7.270993E-05
328.3108,-7.269674E-05
328.4108,-7.271369E-05
328.5108,-7.265625E-05
328.6108,-7.260728E-05
328.7108,-7.263553E-05
328.8109,-7.259881E-05
328.9109,-7.257055E-05
329.0109,-7.25536E-05
329.1109,-7.25244E-05
329.2109,-7.249427E-05
329.3109,-7.249145E-05
329.4109,-7.244248E-05
329.5109,-7.242647E-05
329.6109,-7.240387E-05
329.7109,-7.236526E-05
329.8109,-7.234831E-05
329.9109,-7.232758E-05
330.0109,-7.228614E-05
330.1109,-7.229274E-05
330.2109,-7.228144E-05
330.3109,-7.223435E-05
330.4109,-7.219762E-05
330.511,-7.219292E-05
330.611,-7.216183E-05
330.711,-7.2127E-05
330.811,-7.211475E-05
330.911,-7.210251E-05
331.011,-7.209874E-05
331.111,-7.208273E-05
331.211,-7.202811E-05
331.311,-7.197915E-05
331.411,-7.197726E-05
331.511,-7.197726E-05
331.611,-7.194335E-05
331.711,-7.192169E-05
331.811,-7.188309E-05
331.911,-7.188685E-05
332.011,-7.188026E-05
332.1111,-7.182376E-05
332.2111,-7.178986E-05
332.3111,-7.178515E-05
332.4111,-7.177291E-05
332.5111,-7.173806E-05
332.6111,-7.174371E-05
332.7111,-7.169756E-05
332.8111,-7.165801E-05
332.9111,-7.165424E-05
333.0111,-7.163823E-05
333.1111,-7.160622E-05
333.2111,-7.159492E-05
333.3111,-7.154406E-05
333.4111,-7.152617E-05
333.5111,-7.150828E-05
333.6111,-7.149415E-05
333.7112,-7.14593E-05
333.8112,-7.144612E-05
333.9112,-7.14141E-05
334.0112,-7.139056E-05
334.1112,-7.139339E-05
334.2112,-7.137738E-05
334.3112,-7.132182E-05
334.4112,-7.130016E-05
334.5112,-7.129638E-05
334.6112,-7.124931E-05
334.7112,-7.126154E-05
334.8112,-7.123706E-05
334.9112,-7.119656E-05
335.0112,-7.118996E-05
335.1112,-7.114289E-05
335.2112,-7.111087E-05
335.3112,-7.110333E-05
335.4113,-7.109863E-05
335.5113,-7.100351E-05
335.6113,-7.102046E-05
335.7113,-7.104118E-05
335.8113,-7.100446E-05
335.9113,-7.097243E-05
336.0113,-7.097715E-05
336.1113,-7.097056E-05
336.2113,-7.092723E-05
336.3113,-7.090274E-05
336.4113,-7.084153E-05
336.5113,-7.085755E-05
336.6113,-7.084059E-05
336.7113,-7.081893E-05
336.8113,-7.081139E-05
336.9113,-7.075113E-05
337.0114,-7.073888E-05
337.1114,-7.069556E-05
337.2114,-7.070027E-05
337.3114,-7.065978E-05
337.4114,-7.063624E-05
337.5114,-7.063341E-05
337.6114,-7.057125E-05
337.7114,-7.056372E-05
337.8114,-7.057503E-05
337.9114,-7.051287E-05
338.0114,-7.048367E-05
338.1114,-7.048367E-05
338.2114,-7.04573E-05
338.3114,-7.043187E-05
338.4114,-7.041964E-05
338.5114,-7.038102E-05
338.6115,-7.03377E-05
338.7115,-7.036219E-05
338.8115,-7.036595E-05
338.9115,-7.033018E-05
339.0115,-7.029344E-05
339.1115,-7.027461E-05
339.2115,-7.026896E-05
339.3115,-7.024354E-05
339.4115,-7.016913E-05
339.5115,-7.015783E-05
339.6115,-7.020303E-05
339.7115,-7.017572E-05
339.8115,-7.011734E-05
339.9115,-7.00872E-05
340.0115,-7.008626E-05
340.1115,-7.005048E-05
340.2115,-7.00486E-05
340.3116,-6.999774E-05
340.4116,-6.994406E-05
340.5116,-6.996289E-05
340.6116,-6.992993E-05
340.7116,-6.991863E-05
340.8116,-6.989886E-05
340.9116,-6.98546E-05
341.0116,-6.980845E-05
341.1116,-6.98207E-05
341.2116,-6.981033E-05
341.3116,-6.976984E-05
341.4116,-6.975007E-05
341.5116,-6.973312E-05
341.6116,-6.967661E-05
341.7116,-6.967284E-05
341.8116,-6.964931E-05
341.9117,-6.962576E-05
342.0117,-6.962482E-05
342.1117,-6.958337E-05
342.2117,-6.955513E-05
342.3117,-6.95749E-05
342.4117,-6.953252E-05
342.5117,-6.949768E-05
342.6117,-6.947508E-05
342.7117,-6.944965E-05
342.8117,-6.94214E-05
342.9117,-6.942328E-05
343.0117,-6.939787E-05
343.1117,-6.936395E-05
343.2117,-6.933476E-05
343.3117,-6.933288E-05
343.4117,-6.930745E-05
343.5117,-6.931027E-05
343.6118,-6.924718E-05
343.7118,-6.923588E-05
343.8118,-6.922269E-05
343.9118,-6.92161E-05
344.0118,-6.919068E-05
344.1118,-6.915207E-05
344.2118,-6.915395E-05
344.3118,-6.912946E-05
344.4118,-6.909745E-05
344.5118,-6.907484E-05
344.6118,-6.905318E-05
344.7118,-6.903341E-05
344.8118,-6.901551E-05
344.9118,-6.897785E-05
345.0118,-6.898255E-05
345.1118,-6.894112E-05
345.2119,-6.892229E-05
345.3119,-6.892417E-05
345.4119,-6.891286E-05
345.5119,-6.885353E-05
345.6119,-6.884036E-05
345.7119,-6.885636E-05
345.8119,-6.883471E-05
345.9119,-6.879985E-05
346.0119,-6.880833E-05
346.1119,-6.878667E-05
346.2119,-6.876784E-05
346.3119,-6.875936E-05
346.4119,-6.869627E-05
346.5119,-6.868684E-05
346.6119,-6.870004E-05
346.7119,-6.865295E-05
346.812,-6.862752E-05
346.912,-6.864824E-05
347.012,-6.859173E-05
347.112,-6.858232E-05
347.212,-6.855313E-05
347.312,-6.853711E-05
347.412,-6.850321E-05
347.512,-6.849285E-05
347.612,-6.843446E-05
347.712,-6.840433E-05
347.812,-6.841658E-05
347.912,-6.838644E-05
348.012,-6.837325E-05
348.112,-6.833371E-05
348.212,-6.831111E-05
348.312,-6.833371E-05
348.412,-6.828285E-05
348.5121,-6.824046E-05
348.6121,-6.824801E-05
348.7121,-6.824046E-05
348.8121,-6.81962E-05
348.9121,-6.816701E-05
349.0121,-6.818114E-05
349.1121,-6.812558E-05
349.2121,-6.812746E-05
349.3121,-6.809073E-05
349.4121,-6.807472E-05
349.5121,-6.805118E-05
349.6121,-6.804458E-05
349.7121,-6.799938E-05
349.8121,-6.798997E-05
349.9121,-6.799656E-05
350.0121,-6.793817E-05
350.1122,-6.791086E-05
350.2122,-6.790521E-05
350.3122,-6.790427E-05
350.4122,-6.788826E-05
350.5122,-6.785154E-05
350.6122,-6.782894E-05
350.7122,-6.778938E-05
350.8122,-6.778749E-05
350.9122,-6.777243E-05
351.0122,-6.772157E-05
351.1122,-6.770274E-05
351.2122,-6.768485E-05
351.3122,-6.768767E-05
351.4122,-6.768201E-05
351.5122,-6.763494E-05
351.6122,-6.758785E-05
351.7122,-6.758502E-05
351.8123,-6.760857E-05
351.9123,-6.756807E-05
352.0123,-6.756053E-05
352.1123,-6.750686E-05
352.2123,-6.746261E-05
352.3123,-6.748615E-05
352.4123,-6.745412E-05
352.5123,-6.743812E-05
352.6123,-6.742305E-05
352.7123,-6.738914E-05
352.8123,-6.736466E-05
352.9123,-6.734583E-05
353.0123,-6.730909E-05
353.1123,-6.73025E-05
353.2123,-6.730157E-05
353.3123,-6.723564E-05
353.4124,-6.724318E-05
353.5124,-6.725071E-05
353.6124,-6.721116E-05
353.7124,-6.71895E-05
353.8124,-6.716595E-05
353.9124,-6.71377E-05
354.0124,-6.71038E-05
354.1124,-6.712075E-05
354.2124,-6.708873E-05
354.3124,-6.704918E-05
354.4124,-6.70181E-05
354.5124,-6.698232E-05
354.6124,-6.699738E-05
354.7124,-6.698608E-05
354.8124,-6.697761E-05
354.9124,-6.693523E-05
355.0125,-6.692958E-05
355.1125,-6.690886E-05
355.2125,-6.687873E-05
355.3125,-6.685706E-05
355.4125,-6.6842E-05
355.5125,-6.682223E-05
355.6125,-6.678832E-05
355.7125,-6.677325E-05
355.8125,-6.672428E-05
355.9125,-6.673652E-05
356.0125,-6.671204E-05
356.1125,-6.66932E-05
356.2125,-6.66659E-05
356.3125,-6.66367E-05
356.4125,-6.662258E-05
356.5125,-6.66028E-05
356.6125,-6.659526E-05
356.7126,-6.656231E-05
356.8126,-6.655949E-05
356.9126,-6.651899E-05
357.0126,-6.649167E-05
357.1126,-6.64992E-05
357.2126,-6.648603E-05
357.3126,-6.642011E-05
357.4126,-6.645871E-05
357.5126,-6.644364E-05
357.6126,-6.640315E-05
357.7126,-6.637585E-05
357.8126,-6.637585E-05
357.9126,-6.635324E-05
358.0126,-6.634382E-05
358.1126,-6.632499E-05
358.2126,-6.625625E-05
358.3127,-6.629203E-05
358.4127,-6.627413E-05
358.5127,-6.622799E-05
358.6127,-6.620351E-05
358.7127,-6.626189E-05
358.8127,-6.625436E-05
358.9127,-6.618749E-05
359.0127,-6.616773E-05
359.1127,-6.619786E-05
359.2127,-6.614041E-05
359.3127,-6.613381E-05
359.4127,-6.61197E-05
359.5127,-6.606036E-05
359.6127,-6.604435E-05
359.7127,-6.602363E-05
359.8127,-6.599727E-05
359.9128,-6.599255E-05
360.0128,-6.597843E-05
360.1128,-6.592098E-05
360.2128,-6.593982E-05
360.3128,-6.593511E-05
360.4128,-6.588897E-05
360.5128,-6.586636E-05
360.6128,-6.585129E-05
360.7128,-6.583623E-05
360.8128,-6.584659E-05
360.9128,-6.581363E-05
361.0128,-6.577973E-05
361.1128,-6.578914E-05
361.2128,-6.575618E-05
361.3128,-6.572322E-05
361.4128,-6.572228E-05
361.5128,-6.568837E-05
361.6129,-6.568743E-05
361.7129,-6.568178E-05
361.8129,-6.566295E-05
361.9129,-6.560645E-05
362.0129,-6.559044E-05
362.1129,-6.559608E-05
362.2129,-6.554805E-05
362.3129,-6.553864E-05
362.4129,-6.552922E-05
362.5129,-6.547837E-05
362.6129,-6.547084E-05
362.7129,-6.546048E-05
362.8129,-6.544259E-05
362.9129,-6.544164E-05
363.0129,-6.541245E-05
363.1129,-6.536348E-05
363.213,-6.538232E-05
363.313,-6.538891E-05
363.413,-6.534747E-05
363.513,-6.531545E-05
363.613,-6.528437E-05
363.713,-6.527779E-05
363.813,-6.526931E-05
363.913,-6.527025E-05
364.013,-6.520339E-05
364.113,-6.520809E-05
364.213,-6.521751E-05
364.313,-6.518926E-05
364.413,-6.51497E-05
364.513,-6.517325E-05
364.613,-6.516478E-05
364.713,-6.515064E-05
364.813,-6.512427E-05
364.9131,-6.508002E-05
365.0131,-6.506025E-05
365.1131,-6.505553E-05
365.2131,-6.502822E-05
365.3131,-6.501409E-05
365.4131,-6.500091E-05
365.5131,-6.495383E-05
365.6131,-6.493405E-05
365.7131,-6.492274E-05
365.8131,-6.489449E-05
365.9131,-6.488697E-05
366.0131,-6.488131E-05
366.1131,-6.482952E-05
366.2131,-6.483234E-05
366.3131,-6.482387E-05
366.4131,-6.480316E-05
366.5132,-6.477772E-05
366.6132,-6.476077E-05
366.7132,-6.473629E-05
366.8132,-6.472216E-05
366.9132,-6.470898E-05
367.0132,-6.466659E-05
367.1132,-6.464493E-05
367.2132,-6.465248E-05
367.3132,-6.460727E-05
367.4132,-6.46148E-05
367.5132,-6.458654E-05
367.6132,-6.456018E-05
367.7132,-6.458278E-05
367.8132,-6.456584E-05
367.9132,-6.450933E-05
368.0132,-6.452628E-05
368.1133,-6.44905E-05
368.2133,-6.447731E-05
368.3133,-6.444717E-05
368.4133,-6.444623E-05
368.5133,-6.444623E-05
368.6133,-6.441327E-05
368.7133,-6.440574E-05
368.8133,-6.433793E-05
368.9133,-6.435865E-05
369.0133,-6.432758E-05
369.1133,-6.430779E-05
369.2133,-6.429933E-05
369.3133,-6.428991E-05
369.4133,-6.424564E-05
369.5133,-6.422398E-05
369.6133,-6.422775E-05
369.7133,-6.419291E-05
369.8134,-6.418537E-05
369.9134,-6.418066E-05
370.0134,-6.413075E-05
370.1134,-6.414393E-05
370.2134,-6.411851E-05
370.3134,-6.406767E-05
370.4134,-6.407237E-05
370.5134,-6.407519E-05
370.6134,-6.40347E-05
370.7134,-6.401868E-05
370.8134,-6.401492E-05
370.9134,-6.399326E-05
371.0134,-6.39603E-05
371.1134,-6.395936E-05
371.2134,-6.396501E-05
371.3134,-6.393017E-05
371.4135,-6.393205E-05
371.5135,-6.389909E-05
371.6135,-6.387743E-05
371.7135,-6.389344E-05
371.8135,-6.385483E-05
371.9135,-6.380303E-05
372.0135,-6.381433E-05
372.1135,-6.381622E-05
372.2135,-6.374935E-05
372.3135,-6.375313E-05
372.4135,-6.375407E-05
372.5135,-6.369568E-05
372.6135,-6.366554E-05
372.7135,-6.367778E-05
372.8135,-6.367402E-05
372.9135,-6.365612E-05
373.0135,-6.360903E-05
373.1136,-6.360526E-05
373.2136,-6.358643E-05
373.3136,-6.359773E-05
373.4136,-6.355442E-05
373.5136,-6.352333E-05
373.6136,-6.352051E-05
373.7136,-6.34932E-05
373.8136,-6.349038E-05
373.9136,-6.349132E-05
374.0136,-6.344894E-05
374.1136,-6.34207E-05
374.2136,-6.343105E-05
374.3136,-6.338207E-05
374.4136,-6.338301E-05
374.5136,-6.337831E-05
374.6136,-6.336419E-05
374.7137,-6.332369E-05
374.8137,-6.331521E-05
374.9137,-6.331992E-05
375.0137,-6.330956E-05
375.1137,-6.327095E-05
375.2137,-6.326153E-05
375.3137,-6.323046E-05
375.4137,-6.325589E-05
375.5137,-6.323517E-05
375.6137,-6.318337E-05
375.7137,-6.318997E-05
375.8137,-6.31636E-05
375.9137,-6.315982E-05
376.0137,-6.315606E-05
376.1137,-6.309014E-05
376.2137,-6.307979E-05
376.3138,-6.308355E-05
376.4138,-6.308166E-05
376.5138,-6.303552E-05
376.6138,-6.30374E-05
376.7138,-6.300068E-05
376.8138,-6.299032E-05
376.9138,-6.296866E-05
377.0138,-6.296866E-05
377.1138,-6.293287E-05
377.2138,-6.292251E-05
377.3138,-6.291498E-05
377.4138,-6.289332E-05
377.5138,-6.286883E-05
377.6138,-6.284905E-05
377.7138,-6.282551E-05
377.8138,-6.281609E-05
377.9138,-6.279066E-05
378.0139,-6.276996E-05
378.1139,-6.276053E-05
378.2139,-6.274264E-05
378.3139,-6.271816E-05
378.4139,-6.269932E-05
378.5139,-6.268897E-05
378.6139,-6.265223E-05
378.7139,-6.268237E-05
378.8139,-6.263246E-05
378.9139,-6.260703E-05
379.0139,-6.26108E-05
379.1139,-6.258819E-05
379.2139,-6.253734E-05
379.3139,-6.254865E-05
379.4139,-6.250532E-05
379.5139,-6.249685E-05
379.614,-6.25025E-05
379.714,-6.251474E-05
379.814,-6.244882E-05
379.914,-6.244035E-05
380.014,-6.243376E-05
380.114,-6.24055E-05
380.214,-6.238855E-05
380.314,-6.239232E-05
380.414,-6.236784E-05
380.514,-6.235088E-05
380.614,-6.232451E-05
380.714,-6.229344E-05
380.814,-6.229344E-05
380.914,-6.228967E-05
381.014,-6.224353E-05
381.114,-6.224259E-05
381.2141,-6.221998E-05
381.3141,-6.220585E-05
381.4141,-6.221339E-05
381.5141,-6.217195E-05
381.6141,-6.213805E-05
381.7141,-6.214465E-05
381.8141,-6.214465E-05
381.9141,-6.209002E-05
382.0141,-6.206366E-05
382.1141,-6.205612E-05
382.2141,-6.206648E-05
382.3141,-6.209849E-05
382.4141,-6.206648E-05
382.5141,-6.202316E-05
382.6141,-6.203257E-05
382.7141,-6.204293E-05
382.8141,-6.201751E-05
382.9142,-6.196665E-05
383.0142,-6.193558E-05
383.1142,-6.190826E-05
383.2142,-6.192333E-05
383.3142,-6.193275E-05
383.4142,-6.185177E-05
383.5142,-6.18367E-05
383.6142,-6.182069E-05
383.7142,-6.179903E-05
383.8142,-6.179714E-05
383.9142,-6.178961E-05
384.0142,-6.174723E-05
384.1142,-6.175382E-05
384.2142,-6.172463E-05
384.3142,-6.171333E-05
384.4142,-6.169355E-05
384.5143,-6.168602E-05
384.6143,-6.16427E-05
384.7143,-6.163045E-05
384.8143,-6.162575E-05
384.9143,-6.160598E-05
385.0143,-6.159562E-05
385.1143,-6.15796E-05
385.2143,-6.153534E-05
385.3143,-6.152875E-05
385.4143,-6.152781E-05
385.5143,-6.150426E-05
385.6143,-6.149673E-05
385.7143,-6.145812E-05
385.8143,-6.143363E-05
385.9143,-6.142328E-05
386.0143,-6.144022E-05
386.1143,-6.141292E-05
386.2144,-6.136866E-05
386.3144,-6.136771E-05
386.4144,-6.134605E-05
386.5144,-6.134417E-05
386.6144,-6.132722E-05
386.7144,-6.130933E-05
386.8144,-6.129897E-05
386.9144,-6.12952E-05
387.0144,-6.124058E-05
387.1144,-6.125847E-05
387.2144,-6.126412E-05
387.3144,-6.12274E-05
387.4144,-6.11869E-05
387.5144,-6.121139E-05
387.6144,-6.119255E-05
387.7144,-6.1153E-05
387.8145,-6.116524E-05
387.9145,-6.112286E-05
388.0145,-6.111345E-05
388.1145,-6.109179E-05
388.2145,-6.10852E-05
388.3145,-6.108049E-05
388.4145,-6.106259E-05
388.5145,-6.103811E-05
388.6145,-6.10108E-05
388.7145,-6.099291E-05
388.8145,-6.098537E-05
388.9145,-6.097313E-05
389.0145,-6.095147E-05
389.1145,-6.091474E-05
389.2145,-6.092133E-05
389.3145,-6.093828E-05
389.4146,-6.091568E-05
389.5146,-6.08573E-05
389.6146,-6.086954E-05
389.7146,-6.085165E-05
389.8146,-6.081774E-05
389.9146,-6.082245E-05
390.0146,-6.078478E-05
390.1146,-6.077066E-05
390.2146,-6.075182E-05
390.3146,-6.073204E-05
390.4146,-6.073204E-05
390.5146,-6.072734E-05
390.6146,-6.070003E-05
390.7146,-6.067178E-05
390.8146,-6.069438E-05
390.9146,-6.065953E-05
391.0146,-6.064635E-05
391.1147,-6.065105E-05
391.2147,-6.060774E-05
391.3147,-6.058608E-05
391.4147,-6.058231E-05
391.5147,-6.054935E-05
391.6147,-6.053617E-05
391.7147,-6.054087E-05
391.8147,-6.052863E-05
391.9147,-6.050227E-05
392.0147,-6.052204E-05
392.1147,-6.048531E-05
392.2147,-6.045141E-05
392.3147,-6.045612E-05
392.4147,-6.041091E-05
392.5147,-6.040432E-05
392.6147,-6.03949E-05
392.7148,-6.040715E-05
392.8148,-6.036383E-05
392.9148,-6.034593E-05
393.0148,-6.033746E-05
393.1148,-6.032522E-05
393.2148,-6.030733E-05
393.3148,-6.030639E-05
393.4148,-6.02819E-05
393.5148,-6.02753E-05
393.6148,-6.025647E-05
393.7148,-6.023199E-05
393.8148,-6.021409E-05
393.9148,-6.021127E-05
394.0148,-6.016983E-05
394.1148,-6.015665E-05
394.2148,-6.016606E-05
394.3148,-6.014346E-05
394.4149,-6.013404E-05
394.5149,-6.008131E-05
394.6149,-6.008319E-05
394.7149,-6.007189E-05
394.8149,-6.006624E-05
394.9149,-6.003987E-05
395.0149,-6.00201E-05
395.1149,-6.003234E-05
395.2149,-5.99796E-05
395.3149,-5.998148E-05
395.4149,-5.997395E-05
395.5149,-5.993722E-05
395.6149,-5.989578E-05
395.7149,-5.99118E-05
395.8149,-5.991933E-05
395.9149,-5.989296E-05
396.015,-5.989862E-05
396.115,-5.987978E-05
396.215,-5.982233E-05
396.315,-5.983928E-05
396.415,-5.984682E-05
396.515,-5.982705E-05
396.615,-5.985529E-05
396.715,-5.977807E-05
396.815,-5.97517E-05
396.915,-5.977148E-05
397.015,-5.975453E-05
397.115,-5.971215E-05
397.215,-5.97112E-05
397.315,-5.967731E-05
397.415,-5.964435E-05
397.515,-5.965094E-05
397.6151,-5.961986E-05
397.7151,-5.961515E-05
397.8151,-5.957183E-05
397.9151,-5.955865E-05
398.0151,-5.95577E-05
398.1151,-5.955017E-05
398.2151,-5.952004E-05
398.3151,-5.94786E-05
398.4151,-5.947107E-05
398.5151,-5.946918E-05
398.6151,-5.94626E-05
398.7151,-5.943999E-05
398.8151,-5.943151E-05
398.9151,-5.93816E-05
399.0151,-5.939102E-05
399.1151,-5.93703E-05
399.2151,-5.935147E-05
399.3152,-5.934676E-05
399.4152,-5.93251E-05
399.5152,-5.92912E-05
399.6152,-5.927048E-05
399.7152,-5.928178E-05
399.8152,-5.923375E-05
399.9152,-5.925729E-05
400.0152,-5.92281E-05
400.1152,-5.919796E-05
400.2152,-5.91942E-05
400.3152,-5.919231E-05
400.4152,-5.916689E-05
400.5152,-5.914146E-05
400.6152,-5.913864E-05
400.7152,-5.912074E-05
400.8152,-5.910662E-05
400.9153,-5.909061E-05
401.0153,-5.905482E-05
401.1153,-5.905953E-05
401.2153,-5.9068E-05
401.3153,-5.902657E-05
401.4153,-5.901056E-05
401.5153,-5.902092E-05
401.6153,-5.896912E-05
401.7153,-5.897571E-05
401.8153,-5.8955E-05
401.9153,-5.892957E-05
402.0153,-5.89324E-05
402.1153,-5.894464E-05
402.2153,-5.889755E-05
402.3153,-5.888531E-05
402.4153,-5.886177E-05
402.5154,-5.882692E-05
402.6154,-5.886365E-05
402.7154,-5.885423E-05
402.8154,-5.87902E-05
402.9154,-5.879208E-05
403.0154,-5.877419E-05
403.1154,-5.877136E-05
403.2154,-5.875629E-05
403.3154,-5.873181E-05
403.4154,-5.870921E-05
403.5154,-5.871015E-05
403.6154,-5.871109E-05
403.7154,-5.868849E-05
403.8154,-5.867813E-05
403.9154,-5.866023E-05
404.0154,-5.862068E-05
404.1154,-5.862916E-05
404.2155,-5.861221E-05
404.3155,-5.859337E-05
404.4155,-5.857454E-05
404.5155,-5.856324E-05
404.6155,-5.853028E-05
404.7155,-5.853499E-05
404.8155,-5.853122E-05
404.9155,-5.850579E-05
405.0155,-5.85105E-05
405.1155,-5.848884E-05
405.2155,-5.844835E-05
405.3155,-5.84653E-05
405.4155,-5.845965E-05
405.5155,-5.841162E-05
405.6155,-5.83909E-05
405.7155,-5.839467E-05
405.8156,-5.83796E-05
405.9156,-5.837207E-05
406.0156,-5.834287E-05
406.1156,-5.836736E-05
406.2156,-5.83391E-05
406.3156,-5.832687E-05
406.4156,-5.828731E-05
406.5156,-5.830897E-05
406.6156,-5.829578E-05
406.7156,-5.821292E-05
406.8156,-5.824211E-05
406.9156,-5.825906E-05
407.0156,-5.822233E-05
407.1156,-5.819314E-05
407.2156,-5.821103E-05
407.3156,-5.817242E-05
407.4156,-5.814982E-05
407.5157,-5.816206E-05
407.6157,-5.812251E-05
407.7157,-5.813004E-05
407.8157,-5.810744E-05
407.9157,-5.807825E-05
408.0157,-5.806506E-05
408.1157,-5.805847E-05
408.2157,-5.803493E-05
408.3157,-5.804058E-05
408.4157,-5.804246E-05
408.5157,-5.801892E-05
408.6157,-5.798972E-05
408.7157,-5.802833E-05
408.8157,-5.798596E-05
408.9157,-5.79756E-05
409.0157,-5.7969E-05
409.1158,-5.795488E-05
409.2158,-5.794358E-05
409.3158,-5.792098E-05
409.4158,-5.791815E-05
409.5158,-5.788801E-05
409.6158,-5.792098E-05
409.7158,-5.791156E-05
409.8158,-5.787389E-05
409.9158,-5.785223E-05
410.0158,-5.785882E-05
410.1158,-5.782963E-05
410.2158,-5.78155E-05
410.3158,-5.779007E-05
410.4158,-5.775806E-05
410.5158,-5.775523E-05
410.6158,-5.775806E-05
410.7159,-5.770721E-05
410.8159,-5.769779E-05
410.9159,-5.768555E-05
411.0159,-5.768178E-05
411.1159,-5.770815E-05
411.2159,-5.764976E-05
411.3159,-5.764222E-05
411.4159,-5.764505E-05
411.5159,-5.764976E-05
411.6159,-5.759702E-05
411.7159,-5.757913E-05
411.8159,-5.759325E-05
411.9159,-5.756029E-05
412.0159,-5.753769E-05
412.1159,-5.754334E-05
412.2159,-5.751886E-05
412.3159,-5.750473E-05
412.416,-5.748966E-05
412.516,-5.74633E-05
412.616,-5.746047E-05
412.716,-5.746706E-05
412.816,-5.742751E-05
412.916,-5.741055E-05
413.016,-5.743505E-05
413.116,-5.740491E-05
413.216,-5.739267E-05
413.316,-5.737666E-05
413.416,-5.735029E-05
413.516,-5.734746E-05
413.616,-5.733145E-05
413.716,-5.730414E-05
413.816,-5.72919E-05
413.916,-5.728907E-05
414.0161,-5.725423E-05
414.1161,-5.726741E-05
414.2161,-5.723257E-05
414.3161,-5.719208E-05
414.4161,-5.721656E-05
414.5161,-5.722692E-05
414.6161,-5.718454E-05
414.7161,-5.715723E-05
414.8161,-5.71431E-05
414.9161,-5.715347E-05
415.0161,-5.711862E-05
415.1161,-5.715252E-05
415.2161,-5.709696E-05
415.3161,-5.709226E-05
415.4161,-5.706588E-05
415.5161,-5.704705E-05
415.6161,-5.704799E-05
415.7162,-5.704046E-05
415.8162,-5.701691E-05
415.9162,-5.700185E-05
416.0162,-5.701221E-05
416.1162,-5.697077E-05
416.2162,-5.697925E-05
416.3162,-5.695099E-05
416.4162,-5.692368E-05
416.5162,-5.691144E-05
416.6162,-5.692463E-05
416.7162,-5.690108E-05
416.8162,-5.688602E-05
416.9162,-5.686812E-05
417.0162,-5.685305E-05
417.1162,-5.685211E-05
417.2162,-5.683233E-05
417.3163,-5.679655E-05
417.4163,-5.67909E-05
417.5163,-5.679561E-05
417.6163,-5.678713E-05
417.7163,-5.675512E-05
417.8163,-5.674287E-05
417.9163,-5.674758E-05
418.0163,-5.672875E-05
418.1163,-5.674099E-05
418.2163,-5.668919E-05
418.3163,-5.670237E-05
418.4163,-5.668825E-05
418.5163,-5.662986E-05
418.6163,-5.662892E-05
418.7163,-5.663928E-05
418.8163,-5.66487E-05
418.9164,-5.661292E-05
419.0164,-5.658937E-05
419.1164,-5.658089E-05
419.2164,-5.655735E-05
419.3164,-5.656017E-05
419.4164,-5.650461E-05
419.5164,-5.65112E-05
419.6164,-5.655547E-05
419.7164,-5.654982E-05
419.8164,-5.650273E-05
419.9164,-5.648578E-05
420.0164,-5.649425E-05
420.1164,-5.646412E-05
420.2164,-5.643775E-05
420.3164,-5.643681E-05
420.4164,-5.642268E-05
420.5164,-5.637465E-05
420.6165,-5.638595E-05
420.7165,-5.63577E-05
420.8165,-5.637748E-05
420.9165,-5.633134E-05
421.0165,-5.63012E-05
421.1165,-5.632098E-05
421.2165,-5.631627E-05
421.3165,-5.626636E-05
421.4165,-5.626164E-05
421.5165,-5.625976E-05
421.6165,-5.621362E-05
421.7165,-5.622115E-05
421.8165,-5.622303E-05
421.9165,-5.620232E-05
422.0165,-5.61816E-05
422.1165,-5.618913E-05
422.2166,-5.614675E-05
422.3166,-5.614393E-05
422.4166,-5.613074E-05
422.5166,-5.613168E-05
422.6166,-5.612792E-05
422.7166,-5.610249E-05
422.8166,-5.607518E-05
422.9166,-5.60733E-05
423.0166,-5.608178E-05
423.1166,-5.604599E-05
423.2166,-5.604128E-05
423.3166,-5.604222E-05
423.4166,-5.602056E-05
423.5166,-5.602151E-05
423.6166,-5.599419E-05
423.7166,-5.596312E-05
423.8167,-5.597818E-05
423.9167,-5.596971E-05
424.0167,-5.59471E-05
424.1167,-5.591697E-05
424.2167,-5.592639E-05
424.3167,-5.587742E-05
424.4167,-5.589343E-05
424.5167,-5.590191E-05
424.6167,-5.585293E-05
424.7167,-5.585011E-05
424.8167,-5.582657E-05
424.9167,-5.582092E-05
425.0167,-5.581338E-05
425.1167,-5.583222E-05
425.2167,-5.577665E-05
425.3167,-5.575782E-05
425.4167,-5.574369E-05
425.5168,-5.573898E-05
425.6168,-5.574276E-05
425.7168,-5.573616E-05
425.8168,-5.569284E-05
425.9168,-5.567777E-05
426.0168,-5.56806E-05
426.1168,-5.567589E-05
426.2168,-5.567777E-05
426.3168,-5.56288E-05
426.4168,-5.560714E-05
426.5168,-5.560903E-05
426.6168,-5.559678E-05
426.7168,-5.557512E-05
426.8168,-5.558077E-05
426.9168,-5.557795E-05
427.0168,-5.554216E-05
427.1169,-5.555064E-05
427.2169,-5.554122E-05
427.3169,-5.552145E-05
427.4169,-5.551674E-05
427.5169,-5.551957E-05
427.6169,-5.548378E-05
427.7169,-5.547624E-05
427.8169,-5.547813E-05
427.9169,-5.548283E-05
428.0169,-5.545176E-05
428.1169,-5.545741E-05
428.2169,-5.539996E-05
428.3169,-5.544988E-05
428.4169,-5.543481E-05
428.5169,-5.537547E-05
428.6169,-5.535852E-05
428.7169,-5.539619E-05
428.817,-5.535852E-05
428.917,-5.53444E-05
429.017,-5.533404E-05
429.117,-5.528507E-05
429.217,-5.528978E-05
429.317,-5.52813E-05
429.417,-5.527471E-05
429.517,-5.523987E-05
429.617,-5.523327E-05
429.717,-5.520691E-05
429.817,-5.520596E-05
429.917,-5.520596E-05
430.017,-5.516924E-05
430.117,-5.513157E-05
430.217,-5.515794E-05
430.317,-5.517018E-05
430.4171,-5.515511E-05
430.5171,-5.513533E-05
430.6171,-5.509672E-05
430.7171,-5.507695E-05
430.8171,-5.510049E-05
430.9171,-5.507695E-05
431.0171,-5.504587E-05
431.1171,-5.504116E-05
431.2171,-5.504116E-05
431.3171,-5.50308E-05
431.4171,-5.503457E-05
431.5171,-5.499125E-05
431.6171,-5.498183E-05
431.7171,-5.496865E-05
431.8171,-5.496394E-05
431.9171,-5.493663E-05
432.0172,-5.493569E-05
432.1172,-5.490932E-05
432.2172,-5.490555E-05
432.3172,-5.487071E-05
432.4172,-5.487918E-05
432.5172,-5.490367E-05
432.6172,-5.487636E-05
432.7172,-5.484622E-05
432.8172,-5.479631E-05
432.9172,-5.486318E-05
433.0172,-5.483869E-05
433.1172,-5.477277E-05
433.2172,-5.478878E-05
433.3172,-5.476147E-05
433.4172,-5.476523E-05
433.5172,-5.478407E-05
433.6172,-5.471627E-05
433.7173,-5.471721E-05
433.8173,-5.47351E-05
433.9173,-5.470308E-05
434.0173,-5.465976E-05
434.1173,-5.4672E-05
434.2173,-5.466823E-05
434.3173,-5.463434E-05
434.4173,-5.462398E-05
434.5173,-5.464281E-05
434.6173,-5.460325E-05
434.7173,-5.460231E-05
434.8173,-5.45816E-05
434.9173,-5.456277E-05
435.0173,-5.455805E-05
435.1173,-5.45477E-05
435.2173,-5.452039E-05
435.3174,-5.452039E-05
435.4174,-5.450532E-05
435.5174,-5.446859E-05
435.6174,-5.447989E-05
435.7174,-5.44893E-05
435.8174,-5.445541E-05
435.9174,-5.442715E-05
436.0174,-5.440644E-05
436.1174,-5.440361E-05
436.2174,-5.44281E-05
436.3174,-5.441209E-05
436.4174,-5.436029E-05
436.5174,-5.434899E-05
436.6174,-5.435746E-05
436.7174,-5.43358E-05
436.8174,-5.434146E-05
436.9174,-5.43085E-05
437.0175,-5.428495E-05
437.1175,-5.43132E-05
437.2175,-5.430002E-05
437.3175,-5.42567E-05
437.4175,-5.425105E-05
437.5175,-5.423692E-05
437.6175,-5.423692E-05
437.7175,-5.423316E-05
437.8175,-5.420961E-05
437.9175,-5.4155E-05
438.0175,-5.419266E-05
438.1175,-5.419548E-05
438.2175,-5.413239E-05
438.3175,-5.414369E-05
438.4175,-5.418042E-05
438.5175,-5.415594E-05
438.6176,-5.41258E-05
438.7176,-5.410885E-05
438.8176,-5.408907E-05
438.9176,-5.410131E-05
439.0176,-5.408436E-05
439.1176,-5.40693E-05
439.2176,-5.404104E-05
439.3176,-5.402974E-05
439.4176,-5.401562E-05
439.5176,-5.402221E-05
439.6176,-5.399678E-05
439.7176,-5.397607E-05
439.8176,-5.396665E-05
439.9176,-5.395346E-05
440.0176,-5.393651E-05
440.1176,-5.394405E-05
440.2177,-5.393369E-05
440.3177,-5.392615E-05
440.4177,-5.391014E-05
440.5177,-5.389413E-05
440.6177,-5.385269E-05
440.7177,-5.387153E-05
440.8177,-5.385552E-05
440.9177,-5.386494E-05
441.0177,-5.385176E-05
441.1177,-5.385364E-05
441.2177,-5.381597E-05
441.3177,-5.383951E-05
441.4177,-5.385081E-05
441.5177,-5.380278E-05
441.6177,-5.380467E-05
441.7177,-5.381974E-05
441.8177,-5.381785E-05
441.9178,-5.382068E-05
442.0178,-5.38009E-05
442.1178,-5.374817E-05
442.2178,-5.37331E-05
442.3178,-5.376418E-05
442.4178,-5.372086E-05
442.5178,-5.370108E-05
442.6178,-5.368507E-05
442.7178,-5.366906E-05
442.8178,-5.366341E-05
442.9178,-5.365211E-05
443.0178,-5.364457E-05
443.1178,-5.361821E-05
443.2178,-5.363327E-05
443.3178,-5.361256E-05
443.4178,-5.356641E-05
443.5179,-5.357677E-05
443.6179,-5.354758E-05
443.7179,-5.350802E-05
443.8179,-5.352874E-05
443.9179,-5.352403E-05
444.0179,-5.348071E-05
444.1179,-5.348165E-05
444.2179,-5.348542E-05
444.3179,-5.345999E-05
444.4179,-5.345152E-05
444.5179,-5.344399E-05
444.6179,-5.34195E-05
444.7179,-5.341856E-05
444.8179,-5.340726E-05
444.9179,-5.338654E-05
445.0179,-5.3379E-05
445.118,-5.338842E-05
445.218,-5.335075E-05
445.318,-5.334793E-05
445.418,-5.332909E-05
445.518,-5.332344E-05
445.618,-5.331591E-05
445.718,-5.331497E-05
445.818,-5.329237E-05
445.918,-5.329425E-05
446.018,-5.326035E-05
446.118,-5.326882E-05
446.218,-5.327071E-05
446.318,-5.326412E-05
446.418,-5.32142E-05
446.518,-5.32142E-05
446.618,-5.321797E-05
446.718,-5.319349E-05
446.8181,-5.319442E-05
446.9181,-5.318313E-05
447.0181,-5.316241E-05
447.1181,-5.313981E-05
447.2181,-5.314546E-05
447.3181,-5.31238E-05
447.4181,-5.31464E-05
447.5181,-5.311532E-05
447.6181,-5.309178E-05
447.7181,-5.309837E-05
447.8181,-5.307954E-05
447.9181,-5.304469E-05
448.0181,-5.305693E-05
448.1181,-5.307954E-05
448.2181,-5.304752E-05
448.3181,-5.302397E-05
448.4182,-5.300326E-05
448.5182,-5.301644E-05
448.6182,-5.303056E-05
448.7182,-5.297406E-05
448.8182,-5.295899E-05
448.9182,-5.29524E-05
449.0182,-5.296653E-05
449.1182,-5.293922E-05
449.2182,-5.292039E-05
449.3182,-5.289119E-05
449.4182,-5.288177E-05
449.5182,-5.290061E-05
449.6182,-5.29072E-05
449.7182,-5.286953E-05
449.8182,-5.282715E-05
449.9182,-5.283092E-05
450.0182,-5.282904E-05
450.1183,-5.284598E-05
450.2183,-5.281868E-05
450.3183,-5.279325E-05
450.4183,-5.2765E-05
450.5183,-5.280266E-05
450.6183,-5.279137E-05
450.7183,-5.278195E-05
450.8183,-5.275464E-05
450.9183,-5.273675E-05
451.0183,-5.272639E-05
451.1183,-5.271038E-05
451.2183,-5.270002E-05
451.3183,-5.268684E-05
451.4183,-5.268307E-05
451.5183,-5.266517E-05
451.6183,-5.265576E-05
451.7184,-5.263881E-05
451.8184,-5.260679E-05
451.9184,-5.261715E-05
452.0184,-5.263692E-05
452.1184,-5.2571E-05
452.2184,-5.257759E-05
452.3184,-5.258889E-05
452.4184,-5.254275E-05
452.5184,-5.25145E-05
452.6184,-5.252485E-05
452.7184,-5.251544E-05
452.8184,-5.248813E-05
452.9184,-5.249849E-05
453.0184,-5.248436E-05
453.1184,-5.248531E-05
453.2184,-5.252297E-05
453.3185,-5.249096E-05
453.4185,-5.24627E-05
453.5185,-5.249472E-05
453.6185,-5.244293E-05
453.7185,-5.241656E-05
453.8185,-5.242597E-05
453.9185,-5.239961E-05
454.0185,-5.236194E-05
454.1185,-5.237606E-05
454.2185,-5.236288E-05
454.3185,-5.235252E-05
454.4185,-5.234028E-05
454.5185,-5.232144E-05
454.6185,-5.232615E-05
454.7185,-5.23544E-05
454.8185,-5.230167E-05
454.9185,-5.226965E-05
455.0186,-5.227907E-05
455.1186,-5.231673E-05
455.2186,-5.226212E-05
455.3186,-5.224046E-05
455.4186,-5.221786E-05
455.5186,-5.222068E-05
455.6186,-5.224611E-05
455.7186,-5.222444E-05
455.8186,-5.217453E-05
455.9186,-5.217077E-05
456.0186,-5.217548E-05
456.1186,-5.215099E-05
456.2186,-5.216135E-05
456.3186,-5.212839E-05
456.4186,-5.210485E-05
456.5186,-5.212368E-05
456.6187,-5.210296E-05
456.7187,-5.208413E-05
456.8187,-5.206058E-05
456.9187,-5.207282E-05
457.0187,-5.207565E-05
457.1187,-5.205588E-05
457.2187,-5.202197E-05
457.3187,-5.200125E-05
457.4187,-5.199372E-05
457.5187,-5.200597E-05
457.6187,-5.198242E-05
457.7187,-5.197112E-05
457.8187,-5.197206E-05
457.9187,-5.193722E-05
458.0187,-5.194946E-05
458.1187,-5.195323E-05
458.2188,-5.192686E-05
458.3188,-5.192686E-05
458.4188,-5.190143E-05
458.5188,-5.188354E-05
458.6188,-5.189955E-05
458.7188,-5.188824E-05
458.8188,-5.182044E-05
458.9188,-5.184398E-05
459.0188,-5.186188E-05
459.1188,-5.18534E-05
459.2188,-5.186282E-05
459.3188,-5.181479E-05
459.4188,-5.179407E-05
459.5188,-5.179973E-05
459.6188,-5.181291E-05
459.7188,-5.177147E-05
459.8188,-5.176582E-05
459.9189,-5.173004E-05
460.0189,-5.17225E-05
460.1189,-5.171967E-05
460.2189,-5.174134E-05
460.3189,-5.170367E-05
460.4189,-5.168295E-05
460.5189,-5.168483E-05
460.6189,-5.167636E-05
460.7189,-5.167636E-05
460.8189,-5.168483E-05
460.9189,-5.164999E-05
461.0189,-5.16321E-05
461.1189,-5.163586E-05
461.2189,-5.162079E-05
461.3189,-5.161043E-05
461.4189,-5.159819E-05
461.519,-5.154075E-05
461.619,-5.157747E-05
461.719,-5.1569E-05
461.819,-5.154075E-05
461.919,-5.156429E-05
462.019,-5.154828E-05
462.119,-5.149837E-05
462.219,-5.15125E-05
462.319,-5.150402E-05
462.419,-5.1472E-05
462.519,-5.149648E-05
462.619,-5.150967E-05
462.719,-5.143339E-05
462.819,-5.146352E-05
462.919,-5.145222E-05
463.019,-5.144186E-05
463.119,-5.144469E-05
463.2191,-5.143151E-05
463.3191,-5.137689E-05
463.4191,-5.13976E-05
463.5191,-5.140137E-05
463.6191,-5.137783E-05
463.7191,-5.136182E-05
463.8191,-5.133922E-05
463.9191,-5.13298E-05
464.0191,-5.133922E-05
464.1191,-5.132886E-05
464.2191,-5.130626E-05
464.3191,-5.130532E-05
464.4191,-5.132227E-05
464.5191,-5.128554E-05
464.6191,-5.126953E-05
464.7191,-5.127329E-05
464.8192,-5.12507E-05
464.9192,-5.126388E-05
465.0192,-5.125635E-05
465.1192,-5.121962E-05
465.2192,-5.123657E-05
465.3192,-5.12328E-05
465.4192,-5.122432E-05
465.5192,-5.120266E-05
465.6192,-5.12328E-05
465.7192,-5.122527E-05
465.8192,-5.118101E-05
465.9192,-5.12102E-05
466.0192,-5.119325E-05
466.1192,-5.116406E-05
466.2192,-5.116406E-05
466.3192,-5.114239E-05
466.4193,-5.111414E-05
466.5193,-5.109437E-05
466.6193,-5.110943E-05
466.7193,-5.111885E-05
466.8193,-5.107835E-05
466.9193,-5.105387E-05
467.0193,-5.101244E-05
467.1193,-5.105952E-05
467.2193,-5.104634E-05
467.3193,-5.101903E-05
467.4193,-5.101244E-05
467.5193,-5.097665E-05
467.6193,-5.0971E-05
467.7193,-5.098513E-05
467.8193,-5.096912E-05
467.9193,-5.092674E-05
468.0193,-5.093145E-05
468.1194,-5.091544E-05
468.2194,-5.090602E-05
468.3194,-5.091073E-05
468.4194,-5.090414E-05
468.5194,-5.087965E-05
468.6194,-5.087683E-05
468.7194,-5.084858E-05
468.8194,-5.083916E-05
468.9194,-5.085988E-05
469.0194,-5.086176E-05
469.1194,-5.083068E-05
469.2194,-5.080432E-05
469.3194,-5.081373E-05
469.4194,-5.079584E-05
469.5194,-5.080808E-05
469.6194,-5.078454E-05
469.7195,-5.075911E-05
469.8195,-5.076853E-05
469.9195,-5.075911E-05
470.0195,-5.076288E-05
470.1195,-5.076194E-05
470.2195,-5.074687E-05
470.3195,-5.070731E-05
470.4195,-5.073274E-05
470.5195,-5.071202E-05
470.6195,-5.069601E-05
470.7195,-5.070072E-05
470.8195,-5.06461E-05
470.9195,-5.066211E-05
471.0195,-5.069978E-05
471.1195,-5.06753E-05
471.2195,-5.063857E-05
471.3195,-5.062821E-05
471.4196,-5.06348E-05
471.5196,-5.061785E-05
471.6196,-5.060937E-05
471.7196,-5.058583E-05
471.8196,-5.059525E-05
471.9196,-5.060655E-05
472.0196,-5.057453E-05
472.1196,-5.054063E-05
472.2196,-5.053686E-05
472.3196,-5.056417E-05
472.4196,-5.052274E-05
472.5196,-5.055099E-05
472.6196,-5.051897E-05
472.7196,-5.048978E-05
472.8196,-5.051426E-05
472.9196,-5.049637E-05
473.0197,-5.048318E-05
473.1197,-5.045775E-05
473.2197,-5.048224E-05
473.3197,-5.046623E-05
473.4197,-5.045493E-05
473.5197,-5.043892E-05
473.6197,-5.04361E-05
473.7197,-5.04295E-05
473.8197,-5.041538E-05
473.9197,-5.039372E-05
474.0197,-5.039937E-05
474.1197,-5.037582E-05
474.2197,-5.036641E-05
474.3197,-5.036735E-05
474.4197,-5.034381E-05
474.5197,-5.030237E-05
474.6198,-5.033721E-05
474.7198,-5.033156E-05
474.8198,-5.030237E-05
474.9198,-5.0276E-05
475.0198,-5.028448E-05
475.1198,-5.030613E-05
475.2198,-5.027694E-05
475.3198,-5.027223E-05
475.4198,-5.022891E-05
475.5198,-5.027317E-05
475.6198,-5.027977E-05
475.7198,-5.024398E-05
475.8198,-5.024398E-05
475.9198,-5.023268E-05
476.0198,-5.019313E-05
476.1198,-5.022891E-05
476.2198,-5.021479E-05
476.3199,-5.018277E-05
476.4199,-5.019596E-05
476.5199,-5.017524E-05
476.6199,-5.015169E-05
476.7199,-5.013851E-05
476.8199,-5.012627E-05
476.9199,-5.010084E-05
477.0199,-5.010084E-05
477.1199,-5.011591E-05
477.2199,-5.007636E-05
477.3199,-5.006129E-05
477.4199,-5.007353E-05
477.5199,-5.006976E-05
477.6199,-5.005564E-05
477.7199,-5.006693E-05
477.8199,-5.002927E-05
477.92,-5.002833E-05
478.02,-5.004245E-05
478.12,-5.001608E-05
478.22,-5.000949E-05
478.32,-5.000196E-05
478.42,-4.995487E-05
478.52,-4.997465E-05
478.62,-4.998124E-05
478.72,-4.992851E-05
478.82,-4.992097E-05
478.92,-4.993415E-05
479.02,-4.990119E-05
479.12,-4.992851E-05
479.22,-4.992944E-05
479.32,-4.988424E-05
479.42,-4.988518E-05
479.5201,-4.987577E-05
479.6201,-4.985034E-05
479.7201,-4.98654E-05
479.8201,-4.985034E-05
479.9201,-4.983056E-05
480.0201,-4.981455E-05
480.1201,-4.984092E-05
480.2201,-4.982021E-05
480.3201,-4.979007E-05
480.4201,-4.981455E-05
480.5201,-4.980326E-05
480.6201,-4.976182E-05
480.7201,-4.977594E-05
480.8201,-4.977029E-05
480.9201,-4.978065E-05
481.0201,-4.97637E-05
481.1201,-4.97232E-05
481.2202,-4.97072E-05
481.3202,-4.972415E-05
481.4202,-4.971567E-05
481.5202,-4.966294E-05
481.6202,-4.967329E-05
481.7202,-4.9678E-05
481.8202,-4.964881E-05
481.9202,-4.968083E-05
482.0202,-4.962715E-05
482.1202,-4.960455E-05
482.2202,-4.966576E-05
482.3202,-4.966199E-05
482.4202,-4.959607E-05
482.5202,-4.96215E-05
482.6202,-4.962715E-05
482.7202,-4.958383E-05
482.8203,-4.959419E-05
482.9203,-4.956123E-05
483.0203,-4.956123E-05
483.1203,-4.960455E-05
483.2203,-4.959702E-05
483.3203,-4.954804E-05
483.4203,-4.95537E-05
483.5203,-4.954145E-05
483.6203,-4.951132E-05
483.7203,-4.952733E-05
483.8203,-4.950472E-05
483.9203,-4.944822E-05
484.0203,-4.947459E-05
484.1203,-4.947176E-05
484.2203,-4.944728E-05
484.3203,-4.943975E-05
484.4203,-4.941526E-05
484.5204,-4.938513E-05
484.6204,-4.942091E-05
484.7204,-4.942091E-05
484.8204,-4.938418E-05
484.9204,-4.937853E-05
485.0204,-4.936535E-05
485.1204,-4.935499E-05
485.2204,-4.936346E-05
485.3204,-4.935499E-05
485.4204,-4.932862E-05
485.5204,-4.93305E-05
485.6204,-4.929943E-05
485.7204,-4.92853E-05
485.8204,-4.931638E-05
485.9204,-4.926835E-05
486.0204,-4.923633E-05
486.1205,-4.924857E-05
486.2205,-4.925423E-05
486.3205,-4.923351E-05
486.4205,-4.924763E-05
486.5205,-4.923351E-05
486.6205,-4.920055E-05
486.7205,-4.923068E-05
486.8205,-4.921467E-05
486.9205,-4.919019E-05
487.0205,-4.921655E-05
487.1205,-4.920243E-05
487.2205,-4.917135E-05
487.3205,-4.917606E-05
487.4205,-4.91544E-05
487.5205,-4.915157E-05
487.6205,-4.915063E-05
487.7206,-4.914404E-05
487.8206,-4.911391E-05
487.9206,-4.914969E-05
488.0206,-4.914404E-05
488.1206,-4.908754E-05
488.2206,-4.909695E-05
488.3206,-4.909225E-05
488.4206,-4.90687E-05
488.5206,-4.907718E-05
488.6206,-4.908471E-05
488.7206,-4.900655E-05
488.8206,-4.901502E-05
488.9206,-4.904893E-05
489.0206,-4.901597E-05
489.1206,-4.899807E-05
489.2206,-4.899619E-05
489.3206,-4.900655E-05
489.4207,-4.899901E-05
489.5207,-4.898677E-05
489.6207,-4.897264E-05
489.7207,-4.895381E-05
489.8207,-4.896794E-05
489.9207,-4.894628E-05
490.0207,-4.895381E-05
490.1207,-4.894157E-05
490.2207,-4.891897E-05
490.3207,-4.889919E-05
490.4207,-4.889542E-05
490.5207,-4.890107E-05
490.6207,-4.890767E-05
490.7207,-4.88926E-05
490.8207,-4.887753E-05
490.9207,-4.887376E-05
491.0208,-4.888036E-05
491.1208,-4.884834E-05
491.2208,-4.884268E-05
491.3208,-4.884174E-05
491.4208,-4.883044E-05
491.5208,-4.881161E-05
491.6208,-4.881255E-05
491.7208,-4.87956E-05
491.8208,-4.879654E-05
491.9208,-4.881161E-05
492.0208,-4.877582E-05
492.1208,-4.87617E-05
492.2208,-4.876076E-05
492.3208,-4.875322E-05
492.4208,-4.875605E-05
492.5208,-4.875887E-05
492.6208,-4.869954E-05
492.7209,-4.870991E-05
492.8209,-4.872779E-05
492.9209,-4.870708E-05
493.0209,-4.871273E-05
493.1209,-4.867412E-05
493.2209,-4.866753E-05
493.3209,-4.86826E-05
493.4209,-4.867506E-05
493.5209,-4.866375E-05
493.6209,-4.864398E-05
493.7209,-4.864116E-05
493.8209,-4.862326E-05
493.9209,-4.863079E-05
494.0209,-4.863079E-05
494.1209,-4.861479E-05
494.2209,-4.859407E-05
494.321,-4.858559E-05
494.421,-4.857335E-05
494.521,-4.859784E-05
494.621,-4.8579E-05
494.721,-4.854416E-05
494.821,-4.856111E-05
494.921,-4.856487E-05
495.021,-4.858653E-05
495.121,-4.855452E-05
495.221,-4.853192E-05
495.321,-4.854416E-05
495.421,-4.853757E-05
495.521,-4.853662E-05
495.621,-4.851026E-05
495.721,-4.85046E-05
495.821,-4.85046E-05
495.9211,-4.847259E-05
496.0211,-4.847729E-05
496.1211,-4.846788E-05
496.2211,-4.846034E-05
496.3211,-4.846505E-05
496.4211,-4.844057E-05
496.5211,-4.843115E-05
496.6211,-4.840855E-05
496.7211,-4.843303E-05
496.8211,-4.842079E-05
496.9211,-4.841138E-05
497.0211,-4.840384E-05
497.1211,-4.837088E-05
497.2211,-4.837841E-05
497.3211,-4.840949E-05
497.4211,-4.841514E-05
497.5211,-4.836994E-05
497.6212,-4.837653E-05
497.7212,-4.8369E-05
497.8212,-4.837088E-05
497.9212,-4.834828E-05
498.0212,-4.835958E-05
498.1212,-4.831814E-05
498.2212,-4.833038E-05
498.3212,-4.830213E-05
498.4212,-4.828613E-05
498.5212,-4.833603E-05
498.6212,-4.830402E-05
498.7212,-4.828141E-05
498.8212,-4.827576E-05
498.9212,-4.825787E-05
499.0212,-4.825505E-05
499.1212,-4.826729E-05
499.2213,-4.825505E-05
499.3213,-4.82202E-05
499.4213,-4.822962E-05
499.5213,-4.822302E-05
499.6213,-4.820702E-05
499.7213,-4.821455E-05
499.8213,-4.819195E-05
499.9213,-4.817406E-05
500.0213,-4.819101E-05
500.1213,-4.815993E-05
500.2213,-4.8175E-05
500.3213,-4.817406E-05
500.4213,-4.816182E-05
500.5213,-4.814015E-05
500.6213,-4.815805E-05
500.7213,-4.81637E-05
500.8214,-4.81119E-05
500.9214,-4.813545E-05
501.0214,-4.811002E-05
501.1214,-4.81006E-05
501.2214,-4.808647E-05
501.3214,-4.810154E-05
501.4214,-4.806576E-05
501.5214,-4.807518E-05
501.6214,-4.80667E-05
501.7214,-4.804221E-05
501.8214,-4.806105E-05
501.9214,-4.805258E-05
502.0214,-4.801396E-05
502.1214,-4.801114E-05
502.2214,-4.800831E-05
502.3214,-4.799325E-05
502.4214,-4.798759E-05
502.5215,-4.799325E-05
502.6215,-4.798853E-05
502.7215,-4.799795E-05
502.8215,-4.7981E-05
502.9215,-4.793392E-05
503.0215,-4.793768E-05
503.1215,-4.795557E-05
503.2215,-4.792167E-05
503.3215,-4.791696E-05
503.4215,-4.791226E-05
503.5215,-4.788871E-05
503.6215,-4.790661E-05
503.7215,-4.790661E-05
503.8215,-4.784445E-05
503.9215,-4.785858E-05
504.0215,-4.786988E-05
504.1216,-4.783975E-05
504.2216,-4.786611E-05
504.3216,-4.785198E-05
504.4216,-4.782938E-05
504.5216,-4.783315E-05
504.6216,-4.782938E-05
504.7216,-4.781149E-05
504.8216,-4.780961E-05
504.9216,-4.778418E-05
505.0216,-4.776911E-05
505.1216,-4.778606E-05
505.2216,-4.778606E-05
505.3216,-4.77484E-05
505.4216,-4.775687E-05
505.5216,-4.775311E-05
505.6216,-4.772014E-05
505.7216,-4.775311E-05
505.8217,-4.772768E-05
505.9217,-4.768907E-05
506.0217,-4.770131E-05
506.1217,-4.77305E-05
506.2217,-4.770979E-05
506.3217,-4.766646E-05
506.4217,-4.769189E-05
506.5217,-4.7674E-05
506.6217,-4.767776E-05
506.7217,-4.7674E-05
506.8217,-4.766176E-05
506.9217,-4.761844E-05
507.0217,-4.76175E-05
507.1217,-4.764104E-05
507.2217,-4.762409E-05
507.3217,-4.761373E-05
507.4218,-4.75883E-05
507.5218,-4.760431E-05
507.6218,-4.762503E-05
507.7218,-4.760619E-05
507.8218,-4.758453E-05
507.9218,-4.756193E-05
508.0218,-4.756382E-05
508.1218,-4.759018E-05
508.2218,-4.756382E-05
508.3218,-4.754781E-05
508.4218,-4.753839E-05
508.5218,-4.752426E-05
508.6218,-4.751673E-05
508.7218,-4.752144E-05
508.8218,-4.75318E-05
508.9218,-4.748377E-05
509.0219,-4.749789E-05
509.1219,-4.750637E-05
509.2219,-4.748848E-05
509.3219,-4.748377E-05
509.4219,-4.748471E-05
509.5219,-4.748565E-05
509.6219,-4.747435E-05
509.7219,-4.748848E-05
509.8219,-4.745552E-05
509.9219,-4.743668E-05
510.0219,-4.745269E-05
510.1219,-4.743103E-05
510.2219,-4.741126E-05
510.3219,-4.74122E-05
510.4219,-4.74348E-05
510.5219,-4.739148E-05
510.6219,-4.740466E-05
510.722,-4.740561E-05
510.822,-4.739619E-05
510.922,-4.741126E-05
511.022,-4.738206E-05
511.122,-4.735946E-05
511.222,-4.73896E-05
511.322,-4.736323E-05
511.422,-4.735192E-05
511.522,-4.738488E-05
511.622,-4.736417E-05
511.722,-4.734345E-05
511.822,-4.73491E-05
511.922,-4.732085E-05
512.022,-4.731708E-05
512.122,-4.73265E-05
512.222,-4.729637E-05
512.322,-4.731237E-05
512.4219,-4.731049E-05
512.5219,-4.73039E-05
512.6219,-4.725775E-05
512.7219,-4.728694E-05
512.8218,-4.729825E-05
512.9218,-4.724551E-05
513.0218,-4.724834E-05
513.1218,-4.722668E-05
513.2217,-4.723138E-05
513.3217,-4.72521E-05
513.4217,-4.724834E-05
513.5217,-4.719937E-05
513.6216,-4.72069E-05
513.7216,-4.721443E-05
513.8216,-4.718336E-05
513.9216,-4.72003E-05
514.0215,-4.716546E-05
514.1215,-4.714757E-05
514.2215,-4.71664E-05
514.3215,-4.716735E-05
514.4214,-4.714569E-05
514.5214,-4.711838E-05
514.6214,-4.715228E-05
514.7214,-4.711273E-05
514.8214,-4.71325E-05
514.9213,-4.71504E-05
515.0213,-4.710519E-05
515.1213,-4.708541E-05
515.2213,-4.711838E-05
515.3212,-4.710237E-05
515.4212,-4.711744E-05
515.5212,-4.710331E-05
515.6212,-4.706376E-05
515.7211,-4.707129E-05
515.8211,-4.707223E-05
515.9211,-4.70421E-05
516.0211,-4.706941E-05
516.121,-4.706376E-05
516.221,-4.702703E-05
516.321,-4.705057E-05
516.421,-4.702891E-05
516.5209,-4.700725E-05
516.6209,-4.701572E-05
516.7209,-4.700537E-05
516.8209,-4.699595E-05
516.9208,-4.698371E-05
517.0208,-4.700349E-05
517.1208,-4.698653E-05
517.2208,-4.696299E-05
517.3207,-4.69451E-05
517.4207,-4.696111E-05
517.5207,-4.693851E-05
517.6207,-4.692344E-05
517.7206,-4.690743E-05
517.8206,-4.693474E-05
517.9206,-4.695828E-05
518.0206,-4.691685E-05
518.1205,-4.689801E-05
518.2205,-4.690743E-05
518.3205,-4.689519E-05
518.4205,-4.688483E-05
518.5204,-4.69112E-05
518.6204,-4.687729E-05
518.7204,-4.684151E-05
518.8204,-4.688106E-05
518.9203,-4.685657E-05
519.0203,-4.684904E-05
519.1203,-4.682738E-05
519.2203,-4.685092E-05
519.3203,-4.685752E-05
519.4202,-4.681796E-05
519.5202,-4.684527E-05
519.6202,-4.684433E-05
519.7202,-4.683774E-05
519.8201,-4.681703E-05
519.9201,-4.682173E-05
520.0201,-4.682361E-05
520.1201,-4.679348E-05
520.22,-4.679442E-05
520.32,-4.679913E-05
520.42,-4.680101E-05
520.52,-4.676522E-05
520.6199,-4.673791E-05
520.7199,-4.67624E-05
520.8199,-4.675487E-05
520.9199,-4.675487E-05
521.0198,-4.672002E-05
521.1198,-4.673227E-05
521.2198,-4.673509E-05
521.3198,-4.671908E-05
521.4197,-4.66833E-05
521.5197,-4.670402E-05
521.6197,-4.670307E-05
521.7197,-4.667859E-05
521.8196,-4.667859E-05
521.9196,-4.669742E-05
522.0196,-4.667859E-05
522.1196,-4.666634E-05
522.2195,-4.667106E-05
522.3195,-4.665222E-05
522.4195,-4.667388E-05
522.5195,-4.667482E-05
522.6194,-4.665787E-05
522.7194,-4.663433E-05
522.8194,-4.668518E-05
522.9194,-4.665504E-05
523.0193,-4.663715E-05
523.1193,-4.667106E-05
523.2193,-4.662585E-05
523.3193,-4.659854E-05
523.4193,-4.661832E-05
523.5192,-4.662679E-05
523.6192,-4.660231E-05
523.7192,-4.658159E-05
523.8192,-4.658159E-05
523.9191,-4.656558E-05
524.0191,-4.658724E-05
524.1191,-4.658159E-05
524.2191,-4.65411E-05
524.319,-4.655428E-05
524.419,-4.65345E-05
524.519,-4.656746E-05
524.619,-4.656934E-05
524.7189,-4.657406E-05
524.8189,-4.654675E-05
524.9189,-4.654957E-05
525.0189,-4.656276E-05
525.1188,-4.652415E-05
525.2188,-4.652603E-05
525.3188,-4.649872E-05
525.4188,-4.652226E-05
525.5187,-4.653262E-05
525.6187,-4.649401E-05
525.7187,-4.647046E-05
525.8187,-4.649024E-05
525.9186,-4.649777E-05
526.0186,-4.645822E-05
526.1186,-4.648741E-05
526.2186,-4.643845E-05
526.3185,-4.643186E-05
526.4185,-4.64375E-05
526.5185,-4.645822E-05
526.6185,-4.640925E-05
526.7184,-4.642338E-05
526.8184,-4.644787E-05
526.9184,-4.641584E-05
527.0184,-4.641302E-05
527.1183,-4.639795E-05
527.2183,-4.636876E-05
527.3183,-4.639136E-05
527.4183,-4.638665E-05
527.5182,-4.637347E-05
527.6182,-4.636405E-05
527.7182,-4.637912E-05
527.8182,-4.637535E-05
527.9182,-4.635369E-05
528.0181,-4.634615E-05
528.1181,-4.635557E-05
528.2181,-4.635557E-05
528.3181,-4.63471E-05
528.418,-4.632638E-05
528.518,-4.635369E-05
528.618,-4.637723E-05
528.718,-4.633297E-05
528.8179,-4.632638E-05
528.9179,-4.632544E-05
529.0179,-4.632732E-05
529.1179,-4.631884E-05
529.2178,-4.632921E-05
529.3178,-4.629436E-05
529.4178,-4.628588E-05
529.5178,-4.627176E-05
529.6177,-4.627741E-05
529.7177,-4.627082E-05
529.8177,-4.628965E-05
529.9177,-4.627082E-05
530.0176,-4.622938E-05
530.1176,-4.625763E-05
530.2176,-4.626893E-05
530.3176,-4.624727E-05
530.4175,-4.625293E-05
530.5175,-4.62275E-05
530.6175,-4.623786E-05
530.7175,-4.625575E-05
530.8174,-4.625104E-05
530.9174,-4.621431E-05
531.0174,-4.62162E-05
531.1174,-4.623221E-05
531.2173,-4.618606E-05
531.3173,-4.619266E-05
531.4173,-4.620301E-05
531.5173,-4.619266E-05
531.6172,-4.615499E-05
531.7172,-4.618041E-05
531.8172,-4.619831E-05
531.9172,-4.616252E-05
532.0172,-4.612956E-05
532.1171,-4.618041E-05
532.2171,-4.615969E-05
532.3171,-4.614933E-05
532.4171,-4.615499E-05
532.517,-4.614557E-05
532.617,-4.613992E-05
532.717,-4.612297E-05
532.817,-4.612673E-05
532.9169,-4.610602E-05
533.0169,-4.611543E-05
533.1169,-4.611826E-05
533.2169,-4.611261E-05
533.3168,-4.607023E-05
533.4168,-4.607776E-05
533.5168,-4.60966E-05
533.6168,-4.607211E-05
533.7167,-4.606175E-05
533.8167,-4.605234E-05
533.9167,-4.607211E-05
534.0167,-4.60787E-05
534.1166,-4.608247E-05
534.2166,-4.603068E-05
534.3166,-4.606175E-05
534.4166,-4.6074E-05
534.5165,-4.605139E-05
534.6165,-4.601467E-05
534.7165,-4.606175E-05
534.8165,-4.608435E-05
534.9164,-4.607964E-05
535.0164,-4.606458E-05
535.1164,-4.606647E-05
535.2164,-4.603256E-05
535.3163,-4.605987E-05
535.4163,-4.604574E-05
535.5163,-4.603068E-05
535.6163,-4.603916E-05
535.7162,-4.601373E-05
535.8162,-4.601467E-05
535.9162,-4.600901E-05
536.0162,-4.599678E-05
536.1161,-4.597982E-05
536.2161,-4.598359E-05
536.3161,-4.597794E-05
536.4161,-4.592803E-05
536.5161,-4.597512E-05
536.616,-4.597041E-05
536.716,-4.594215E-05
536.816,-4.593839E-05
536.916,-4.596947E-05
537.0159,-4.596475E-05
537.1159,-4.593368E-05
537.2159,-4.593085E-05
537.3159,-4.59544E-05
537.4158,-4.5977E-05
537.5158,-4.596475E-05
537.6158,-4.596287E-05
537.7158,-4.595345E-05
537.8157,-4.594404E-05
537.9157,-4.593368E-05
538.0157,-4.591579E-05
538.1157,-4.592615E-05
538.2156,-4.592049E-05
538.3156,-4.59478E-05
538.4156,-4.590261E-05
538.5156,-4.590354E-05
538.6155,-4.591484E-05
538.7155,-4.591861E-05
538.8155,-4.589507E-05
538.9155,-4.589884E-05
539.0154,-4.587058E-05
539.1154,-4.584516E-05
539.2154,-4.587341E-05
539.3154,-4.586305E-05
539.4153,-4.585834E-05
539.5153,-4.582538E-05
539.6153,-4.583197E-05
539.7153,-4.583857E-05
539.8152,-4.583857E-05
539.9152,-4.583668E-05
540.0152,-4.581219E-05
540.1152,-4.583668E-05
540.2151,-4.582915E-05
540.3151,-4.581502E-05
540.4151,-4.580278E-05
540.5151,-4.58348E-05
540.6151,-4.58056E-05
540.715,-4.579713E-05
540.815,-4.577829E-05
540.915,-4.58056E-05
541.015,-4.580466E-05
541.1149,-4.577829E-05
541.2149,-4.576699E-05
541.3149,-4.578677E-05
541.4149,-4.579336E-05
541.5148,-4.575381E-05
541.6148,-4.574722E-05
541.7148,-4.579901E-05
541.8148,-4.584045E-05
541.9147,-4.578583E-05
542.0147,-4.577923E-05
542.1147,-4.582726E-05
542.2147,-4.578206E-05
542.3146,-4.578394E-05
542.4146,-4.578583E-05
542.5146,-4.575946E-05
542.6146,-4.575758E-05
542.7145,-4.575852E-05
542.8145,-4.575287E-05
542.9145,-4.574816E-05
543.0145,-4.573497E-05
543.1144,-4.572838E-05
543.2144,-4.573591E-05
543.3144,-4.570578E-05
543.4144,-4.569165E-05
543.5143,-4.57039E-05
543.6143,-4.571614E-05
543.7143,-4.568506E-05
543.8143,-4.568224E-05
543.9142,-4.566622E-05
544.0142,-4.567565E-05
544.1142,-4.571896E-05
544.2142,-4.571991E-05
544.3141,-4.568694E-05
544.4141,-4.568977E-05
544.5141,-4.56973E-05
544.6141,-4.568318E-05
544.7141,-4.570296E-05
544.814,-4.567093E-05
544.914,-4.563892E-05
545.014,-4.567941E-05
545.114,-4.56747E-05
545.2139,-4.565399E-05
545.3139,-4.566434E-05
545.4139,-4.565022E-05
545.5139,-4.563139E-05
545.6138,-4.565869E-05
545.7138,-4.563233E-05
545.8138,-4.561161E-05
545.9138,-4.563327E-05
546.0137,-4.562856E-05
546.1137,-4.560313E-05
546.2137,-4.562008E-05
546.3137,-4.563421E-05
546.4136,-4.559842E-05
546.5136,-4.558712E-05
546.6136,-4.559183E-05
546.7136,-4.55843E-05
546.8135,-4.557111E-05
546.9135,-4.554757E-05
547.0135,-4.55664E-05
547.1135,-4.558053E-05
547.2134,-4.556735E-05
547.3134,-4.555039E-05
547.4134,-4.557394E-05
547.5134,-4.557488E-05
547.6133,-4.554945E-05
547.7133,-4.552779E-05
547.8133,-4.555792E-05
547.9133,-4.55438E-05
548.0132,-4.556358E-05
548.1132,-4.557299E-05
548.2132,-4.554286E-05
548.3132,-4.553909E-05
548.4131,-4.555416E-05
548.5131,-4.553439E-05
548.6131,-4.552403E-05
548.7131,-4.553909E-05
548.813,-4.550142E-05
548.913,-4.550613E-05
549.013,-4.548353E-05
549.113,-4.5476E-05
549.213,-4.549389E-05
549.3129,-4.55099E-05
549.4129,-4.548353E-05
549.5129,-4.546752E-05
549.6129,-4.548259E-05
549.7128,-4.546281E-05
549.8128,-4.547317E-05
549.9128,-4.547788E-05
550.0128,-4.543645E-05
550.1127,-4.543362E-05
550.2127,-4.550519E-05
550.3127,-4.551555E-05
550.4127,-4.549672E-05
550.5126,-4.545904E-05
550.6126,-4.548824E-05
550.7126,-4.547506E-05
550.8126,-4.546281E-05
550.9125,-4.545999E-05
551.0125,-4.549201E-05
551.1125,-4.551084E-05
551.2125,-4.544492E-05
551.3124,-4.543645E-05
551.4124,-4.545904E-05
551.5124,-4.545528E-05
551.6124,-4.543833E-05
551.7123,-4.541102E-05
551.8123,-4.543173E-05
551.9123,-4.540442E-05
552.0123,-4.542326E-05
552.1122,-4.540725E-05
552.2122,-4.539312E-05
552.3122,-4.539312E-05
552.4122,-4.541478E-05
552.5121,-4.537429E-05
552.6121,-4.5379E-05
552.7121,-4.538465E-05
552.8121,-4.538277E-05
552.912,-4.536864E-05
553.012,-4.534133E-05
553.112,-4.535357E-05
553.212,-4.539407E-05
553.312,-4.537523E-05
553.4119,-4.538747E-05
553.5119,-4.53564E-05
553.6119,-4.538465E-05
553.7119,-4.53903E-05
553.8118,-4.538842E-05
553.9118,-4.535734E-05
554.0118,-4.536958E-05
554.1118,-4.539784E-05
554.2117,-4.539218E-05
554.3117,-4.535169E-05
554.4117,-4.536016E-05
554.5117,-4.537146E-05
554.6116,-4.534039E-05
554.7116,-4.535263E-05
554.8116,-4.539501E-05
554.9116,-4.53338E-05
555.0115,-4.533097E-05
555.1115,-4.534886E-05
555.2115,-4.532155E-05
555.3115,-4.533003E-05
555.4114,-4.536676E-05
555.5114,-4.534133E-05
555.6114,-4.52933E-05
555.7114,-4.53225E-05
555.8113,-4.532155E-05
555.9113,-4.53338E-05
556.0113,-4.533097E-05
556.1113,-4.52933E-05
556.2112,-4.53272E-05
556.3112,-4.533851E-05
556.4112,-4.530931E-05
556.5112,-4.529707E-05
556.6111,-4.531779E-05
556.7111,-4.531779E-05
556.8111,-4.529707E-05
556.9111,-4.528577E-05
557.011,-4.526128E-05
557.111,-4.530177E-05
557.211,-4.531779E-05
557.311,-4.527823E-05
557.4109,-4.526694E-05
557.5109,-4.527823E-05
557.6109,-4.527353E-05
557.7109,-4.526128E-05
557.8109,-4.526599E-05
557.9108,-4.524245E-05
558.0108,-4.525186E-05
558.1108,-4.530272E-05
558.2108,-4.52707E-05
558.3107,-4.521984E-05
558.4107,-4.525469E-05
558.5107,-4.525846E-05
558.6107,-4.522173E-05
558.7106,-4.523209E-05
558.8106,-4.522832E-05
558.9106,-4.519819E-05
559.0106,-4.522267E-05
559.1105,-4.522079E-05
559.2105,-4.520384E-05
559.3105,-4.520949E-05
559.4105,-4.525469E-05
559.5104,-4.521608E-05
559.6104,-4.519725E-05
559.7104,-4.521137E-05
559.8104,-4.520384E-05
559.9103,-4.521419E-05
560.0103,-4.520478E-05
560.1103,-4.518688E-05
560.2103,-4.518971E-05
560.3102,-4.518218E-05
560.4102,-4.515487E-05
560.5102,-4.520007E-05
560.6102,-4.520572E-05
560.7101,-4.516334E-05
560.8101,-4.516617E-05
560.9101,-4.517088E-05
561.0101,-4.516146E-05
561.11,-4.515581E-05
561.21,-4.516428E-05
561.31,-4.516146E-05
561.41,-4.516052E-05
561.5099,-4.517182E-05
561.6099,-4.516334E-05
561.7099,-4.515675E-05
561.8099,-4.515015E-05
561.9099,-4.512567E-05
562.0098,-4.518218E-05
562.1098,-4.5185E-05
562.2098,-4.515581E-05
562.3098,-4.513697E-05
562.4097,-4.51624E-05
562.5097,-4.51445E-05
562.6097,-4.514357E-05
562.7097,-4.517182E-05
562.8096,-4.51737E-05
562.9096,-4.512379E-05
563.0096,-4.515204E-05
563.1096,-4.513603E-05
563.2095,-4.51398E-05
563.3095,-4.514922E-05
563.4095,-4.513603E-05
563.5095,-4.510119E-05
563.6094,-4.512662E-05
563.7094,-4.515298E-05
563.8094,-4.513509E-05
563.9094,-4.515958E-05
564.0093,-4.511061E-05
564.1093,-4.513227E-05
564.2093,-4.517747E-05
564.3093,-4.516711E-05
564.4092,-4.512379E-05
564.5092,-4.512756E-05
564.6092,-4.514357E-05
564.7092,-4.513415E-05
564.8091,-4.515204E-05
564.9091,-4.514262E-05
565.0091,-4.510307E-05
565.1091,-4.512002E-05
565.209,-4.510589E-05
565.309,-4.511908E-05
565.409,-4.512191E-05
565.509,-4.510966E-05
565.6089,-4.508047E-05
565.7089,-4.508801E-05
565.8089,-4.508047E-05
565.9089,-4.508047E-05
566.0089,-4.508612E-05
566.1088,-4.50767E-05
566.2088,-4.506352E-05
566.3088,-4.507199E-05
566.4088,-4.508141E-05
566.5087,-4.504751E-05
566.6087,-4.509459E-05
566.7087,-4.505222E-05
566.8087,-4.502208E-05
566.9086,-4.505222E-05
567.0086,-4.506069E-05
567.1086,-4.503244E-05
567.2086,-4.50089E-05
567.3085,-4.505693E-05
567.4085,-4.503621E-05
567.5085,-4.503244E-05
567.6085,-4.504092E-05
567.7084,-4.503338E-05
567.8084,-4.505599E-05
567.9084,-4.502679E-05
568.0084,-4.503809E-05
568.1083,-4.503997E-05
568.2083,-4.504092E-05
568.3083,-4.501549E-05
568.4083,-4.500513E-05
568.5082,-4.504939E-05
568.6082,-4.501926E-05
568.7082,-4.497406E-05
568.8082,-4.500325E-05
568.9081,-4.502679E-05
569.0081,-4.502397E-05
569.1081,-4.502302E-05
569.2081,-4.499007E-05
569.308,-4.498159E-05
569.408,-4.502585E-05
569.508,-4.498347E-05
569.608,-4.499477E-05
569.7079,-4.500136E-05
569.8079,-4.499289E-05
569.9079,-4.4975E-05
570.0079,-4.49797E-05
570.1078,-4.497217E-05
570.2078,-4.499007E-05
570.3078,-4.499477E-05
570.4078,-4.496558E-05
570.5078,-4.495616E-05
570.6077,-4.499195E-05
570.7077,-4.496464E-05
570.8077,-4.494203E-05
570.9077,-4.495993E-05
571.0076,-4.497029E-05
571.1076,-4.495428E-05
571.2076,-4.494392E-05
571.3076,-4.493638E-05
571.4075,-4.494486E-05
571.5075,-4.497594E-05
571.6075,-4.49345E-05
571.7075,-4.492885E-05
571.8074,-4.493262E-05
571.9074,-4.495711E-05
572.0074,-4.493262E-05
572.1074,-4.493168E-05
572.2073,-4.493168E-05
572.3073,-4.492979E-05
572.4073,-4.495993E-05
572.5073,-4.494486E-05
572.6072,-4.492979E-05
572.7072,-4.494109E-05
572.8072,-4.495145E-05
572.9072,-4.492603E-05
573.0071,-4.495239E-05
573.1071,-4.492508E-05
573.2071,-4.489683E-05
573.3071,-4.493262E-05
573.407,-4.494957E-05
573.507,-4.490625E-05
573.607,-4.491378E-05
573.707,-4.490531E-05
573.8069,-4.48893E-05
573.9069,-4.491002E-05
574.0069,-4.493168E-05
574.1069,-4.4878E-05
574.2068,-4.488459E-05
574.3068,-4.490437E-05
574.4068,-4.490531E-05
574.5068,-4.493074E-05
574.6068,-4.487329E-05
574.7067,-4.486011E-05
574.8067,-4.48827E-05
574.9067,-4.48893E-05
575.0067,-4.487329E-05
575.1066,-4.486293E-05
575.2066,-4.487234E-05
575.3066,-4.484598E-05
575.4066,-4.485822E-05
575.5065,-4.488647E-05
575.6065,-4.48328E-05
575.7065,-4.485069E-05
575.8065,-4.485634E-05
575.9064,-4.483374E-05
576.0064,-4.485351E-05
576.1064,-4.484127E-05
576.2064,-4.48149E-05
576.3063,-4.482903E-05
576.4063,-4.482526E-05
576.5063,-4.480549E-05
576.6063,-4.48328E-05
576.7062,-4.483751E-05
576.8062,-4.479513E-05
576.9062,-4.481679E-05
577.0062,-4.481584E-05
577.1061,-4.482997E-05
577.2061,-4.481302E-05
577.3061,-4.481396E-05
577.4061,-4.4781E-05
577.506,-4.480831E-05
577.606,-4.48149E-05
577.706,-4.48149E-05
577.806,-4.480737E-05
577.9059,-4.479607E-05
578.0059,-4.480925E-05
578.1059,-4.481584E-05
578.2059,-4.482338E-05
578.3058,-4.481114E-05
578.4058,-4.478382E-05
578.5058,-4.478759E-05
578.6058,-4.478948E-05
578.7057,-4.478288E-05
578.8057,-4.477911E-05
578.9057,-4.475181E-05
579.0057,-4.477629E-05
579.1057,-4.479324E-05
579.2056,-4.475745E-05
579.3056,-4.474804E-05
579.4056,-4.475275E-05
579.5056,-4.475934E-05
579.6055,-4.473109E-05
579.7055,-4.476217E-05
579.8055,-4.473957E-05
579.9055,-4.47471E-05
580.0054,-4.472261E-05
580.1054,-4.470849E-05
580.2054,-4.472167E-05
580.3054,-4.473392E-05
580.4053,-4.475275E-05
580.5053,-4.473485E-05
580.6053,-4.472167E-05
580.7053,-4.471602E-05
580.8052,-4.469248E-05
580.9052,-4.473392E-05
581.0052,-4.471037E-05
581.1052,-4.470849E-05
581.2051,-4.469907E-05
581.3051,-4.470566E-05
581.4051,-4.474239E-05
581.5051,-4.47358E-05
581.605,-4.471225E-05
581.705,-4.469436E-05
581.805,-4.473297E-05
581.905,-4.470566E-05
582.0049,-4.470284E-05
582.1049,-4.471037E-05
582.2049,-4.469624E-05
582.3049,-4.467081E-05
582.4048,-4.470754E-05
582.5048,-4.471507E-05
582.6048,-4.466988E-05
582.7048,-4.470001E-05
582.8047,-4.470472E-05
582.9047,-4.465387E-05
583.0047,-4.467458E-05
583.1047,-4.468212E-05
583.2047,-4.468118E-05
583.3046,-4.466234E-05
583.4046,-4.468023E-05
583.5046,-4.467458E-05
583.6046,-4.466893E-05
583.7045,-4.467176E-05
583.8045,-4.468118E-05
583.9045,-4.467081E-05
584.0045,-4.466328E-05
584.1044,-4.463409E-05
584.2044,-4.465104E-05
584.3044,-4.467553E-05
584.4044,-4.464633E-05
584.5043,-4.460772E-05
584.6043,-4.466611E-05
584.7043,-4.468588E-05
584.8043,-4.465857E-05
584.9042,-4.465387E-05
585.0042,-4.464162E-05
585.1042,-4.464256E-05
585.2042,-4.465951E-05
585.3041,-4.46614E-05
585.4041,-4.464821E-05
585.5041,-4.464916E-05
585.6041,-4.464445E-05
585.704,-4.465857E-05
585.804,-4.462279E-05
585.904,-4.463032E-05
586.004,-4.464162E-05
586.1039,-4.461808E-05
586.2039,-4.461243E-05
586.3039,-4.460866E-05
586.4039,-4.463503E-05
586.5038,-4.459924E-05
586.6038,-4.457287E-05
586.7038,-4.461525E-05
586.8038,-4.460772E-05
586.9037,-4.457193E-05
587.0037,-4.460866E-05
587.1037,-4.460489E-05
587.2037,-4.458418E-05
587.3036,-4.456817E-05
587.4036,-4.4587E-05
587.5036,-4.456911E-05
587.6036,-4.460207E-05
587.7036,-4.457758E-05
587.8035,-4.452956E-05
587.9035,-4.458795E-05
588.0035,-4.458324E-05
588.1035,-4.456629E-05
588.2034,-4.456817E-05
588.3034,-4.455781E-05
588.4034,-4.455969E-05
588.5034,-4.457758E-05
588.6033,-4.457382E-05
588.7033,-4.452673E-05
588.8033,-4.453992E-05
588.9033,-4.457193E-05
589.0032,-4.454274E-05
589.1032,-4.452767E-05
589.2032,-4.453426E-05
589.3032,-4.451073E-05
589.4031,-4.454368E-05
589.5031,-4.453804E-05
589.6031,-4.44966E-05
589.7031,-4.45079E-05
589.803,-4.452861E-05
589.903,-4.450507E-05
590.003,-4.449942E-05
590.103,-4.451449E-05
590.2029,-4.447588E-05
590.3029,-4.450225E-05
590.4029,-4.451638E-05
590.5029,-4.449848E-05
590.6028,-4.449942E-05
590.7028,-4.448624E-05
590.8028,-4.449377E-05
590.9028,-4.447211E-05
591.0027,-4.44674E-05
591.1027,-4.447117E-05
591.2027,-4.449942E-05
591.3027,-4.449E-05
591.4026,-4.448059E-05
591.5026,-4.44674E-05
591.6026,-4.446364E-05
591.7026,-4.447023E-05
591.8026,-4.448624E-05
591.9025,-4.4474E-05
592.0025,-4.445516E-05
592.1025,-4.44674E-05
592.2025,-4.448341E-05
592.3024,-4.446929E-05
592.4024,-4.448059E-05
592.5024,-4.44674E-05
592.6024,-4.443915E-05
592.7023,-4.449377E-05
592.8023,-4.449471E-05
592.9023,-4.445234E-05
593.0023,-4.444292E-05
593.1022,-4.447776E-05
593.2022,-4.445704E-05
593.3022,-4.446175E-05
593.4022,-4.445516E-05
593.5021,-4.444104E-05
593.6021,-4.443726E-05
593.7021,-4.445516E-05
593.8021,-4.442785E-05
593.902,-4.443632E-05
594.002,-4.44335E-05
594.102,-4.441749E-05
594.202,-4.444009E-05
594.3019,-4.44561E-05
594.4019,-4.44109E-05
594.5019,-4.441278E-05
594.6019,-4.444386E-05
594.7018,-4.444104E-05
594.8018,-4.443162E-05
594.9018,-4.441655E-05
595.0018,-4.440243E-05
595.1017,-4.441466E-05
595.2017,-4.441561E-05
595.3017,-4.442314E-05
595.4017,-4.443821E-05
595.5016,-4.440054E-05
595.6016,-4.43996E-05
595.7016,-4.440243E-05
595.8016,-4.442597E-05
595.9016,-4.440807E-05
596.0015,-4.438924E-05
596.1015,-4.439489E-05
596.2015,-4.437417E-05
596.3015,-4.440619E-05
596.4014,-4.442126E-05
596.5014,-4.437417E-05
596.6014,-4.44222E-05
596.7014,-4.439678E-05
596.8013,-4.436569E-05
596.9013,-4.439866E-05
597.0013,-4.43996E-05
597.1013,-4.436005E-05
597.2012,-4.438735E-05
597.3012,-4.439866E-05
597.4012,-4.438171E-05
597.5012,-4.439018E-05
597.6011,-4.438076E-05
597.7011,-4.437794E-05
597.8011,-4.435911E-05
597.9011,-4.437229E-05
598.001,-4.436946E-05
598.101,-4.435816E-05
598.201,-4.436099E-05
598.301,-4.434027E-05
598.4009,-4.436946E-05
598.5009,-4.437794E-05
598.6009,-4.434686E-05
598.7009,-4.436946E-05
598.8008,-4.436099E-05
598.9008,-4.433839E-05
599.0008,-4.437417E-05
599.1008,-4.434968E-05
599.2007,-4.433274E-05
599.3007,-4.43365E-05
599.4007,-4.434027E-05
599.5007,-4.431107E-05
599.6006,-4.435722E-05
599.7006,-4.433179E-05
599.8006,-4.429507E-05
599.9006,-4.43704E-05
600.0005,-4.436852E-05
