EXPID. 0641
[电化学]: i-t : @ 0(V) X 600(sec)
起始电位 (V),0
静置时间 (秒),0
运行时间 (秒),600
记录间隔,0.1
电解液 信息:
HNO3,0.4
0.1,-0.01005814
0.2,-0.01005814
0.3,-0.01005814
0.4,-0.01005814
0.5,-0.01005814
0.6,-0.01005814
0.7,-0.01005814
0.8000001,-0.01005814
0.9000001,-0.006608895
1,0.003309034
1.1,0.001531242
1.2,-0.0004771563
1.3,-0.002473182
1.4,-0.003739316
1.5,-0.004046074
1.6,-0.004065322
1.7,-0.004023773
1.8,-0.003957738
1.9,-0.003869884
2,-0.003780242
2.1,-0.003683969
2.2,-0.003584718
2.3,-0.003489419
2.4,-0.003389402
2.5,-0.003292417
2.6,-0.003195288
2.7,-0.003100244
2.799999,-0.003011518
2.899999,-0.002926328
2.999999,-0.002838877
3.099999,-0.002758872
3.199999,-0.002681406
3.299999,-0.002606465
3.399999,-0.002538211
3.499999,-0.002472245
3.599999,-0.002410599
3.699999,-0.002352602
3.799999,-0.002300555
3.899998,-0.002250282
3.999998,-0.00220387
4.099998,-0.002161196
4.199998,-0.002121351
4.299998,-0.002083304
4.399998,-0.002048187
4.499998,-0.002015722
4.599998,-0.001984399
4.699998,-0.00195499
4.799998,-0.001927619
4.899998,-0.001900601
4.999998,-0.001875724
5.099998,-0.001852155
5.199997,-0.001828905
5.299997,-0.001807192
5.399997,-0.001787315
5.499997,-0.001766425
5.599997,-0.001748157
5.699997,-0.001730017
5.799997,-0.001712079
5.899997,-0.001695355
5.999997,-0.001679165
6.099997,-0.001663275
6.199996,-0.001648696
6.299996,-0.00163394
6.399996,-0.00162014
6.499996,-0.001606283
6.599996,-0.001593426
6.699996,-0.001580813
6.799996,-0.001567925
6.899996,-0.001556184
6.999996,-0.00154444
7.099996,-0.001532833
7.199996,-0.001521728
7.299995,-0.001511271
7.399995,-0.001500269
7.499995,-0.001490325
7.599995,-0.001480258
7.699995,-0.001470351
7.799995,-0.001460559
7.899995,-0.001452269
7.999995,-0.001443351
8.099995,-0.001434481
8.199995,-0.001426271
8.299995,-0.00141737
8.399996,-0.001409073
8.499996,-0.001401139
8.599997,-0.001392799
8.699997,-0.0013848
8.799997,-0.001377417
8.899998,-0.001369705
8.999998,-0.00136176
9.099998,-0.001354302
9.199999,-0.001347429
9.299999,-0.001339817
9.4,-0.00133279
9.5,-0.001326287
9.6,-0.001319817
9.700001,-0.001312731
9.800001,-0.001306781
9.900002,-0.001301036
10,-0.001295097
10.1,-0.001289395
10.2,-0.001283559
10.3,-0.001277385
10.4,-0.001271577
10.5,-0.00126565
10.6,-0.001259797
10.7,-0.00125396
10.8,-0.001248383
10.90001,-0.001242897
11.00001,-0.001237309
11.10001,-0.001231839
11.20001,-0.001226439
11.30001,-0.00122082
11.40001,-0.001215668
11.50001,-0.001210552
11.60001,-0.00120519
11.70001,-0.001200342
11.80001,-0.001195402
11.90001,-0.00119027
12.00001,-0.001185418
12.10001,-0.001180682
12.20001,-0.001175782
12.30001,-0.001171108
12.40001,-0.001166607
12.50001,-0.001161844
12.60001,-0.001157552
12.70001,-0.001153016
12.80001,-0.001148631
12.90001,-0.001144461
13.00001,-0.001140009
13.10001,-0.001135922
13.20001,-0.001131687
13.30001,-0.001127572
13.40001,-0.001123643
13.50002,-0.001119531
13.60002,-0.001115609
13.70002,-0.00111164
13.80002,-0.001107508
13.90002,-0.001103694
14.00002,-0.001099947
14.10002,-0.001096019
14.20002,-0.001092387
14.30002,-0.001088719
14.40002,-0.001084917
14.50002,-0.001081355
14.60002,-0.001077748
14.70002,-0.001074245
14.80002,-0.0010711
14.90002,-0.001068215
15.00002,-0.001064726
15.10002,-0.001061266
15.20002,-0.001058181
15.30002,-0.001055101
15.40002,-0.001051633
15.50002,-0.001048637
15.60002,-0.001045231
15.70002,-0.00104198
15.80002,-0.001038818
15.90002,-0.00103557
16.00002,-0.001032439
16.10003,-0.001029249
16.20003,-0.001026316
16.30003,-0.001023159
16.40003,-0.001020102
16.50003,-0.001017198
16.60003,-0.001014101
16.70003,-0.001011156
16.80003,-0.001008293
16.90003,-0.001005244
17.00003,-0.001002486
17.10003,-0.000999463
17.20003,-0.000996829
17.30003,-0.0009942346
17.40003,-0.0009912596
17.50003,-0.000988296
17.60003,-0.0009857101
17.70003,-0.0009827954
17.80003,-0.0009800633
17.90003,-0.0009773474
18.00003,-0.0009745985
18.10003,-0.0009718336
18.20003,-0.0009692166
18.30003,-0.0009664243
18.40003,-0.0009636924
18.50003,-0.0009612552
18.60003,-0.0009584469
18.70004,-0.0009559504
18.80004,-0.0009534652
18.90004,-0.0009508537
19.00004,-0.0009482714
19.10004,-0.0009457636
19.20004,-0.0009431795
19.30004,-0.0009408478
19.40004,-0.0009383626
19.50004,-0.0009358444
19.60004,-0.0009334025
19.70004,-0.0009310255
19.80004,-0.0009286383
19.90004,-0.0009261257
20.00004,-0.0009236895
20.10004,-0.0009213945
20.20004,-0.0009191079
20.30004,-0.0009166933
20.40004,-0.0009143578
20.50004,-0.0009121062
20.60004,-0.000909797
20.70004,-0.0009074474
20.80004,-0.0009051412
20.90004,-0.0009028094
21.00004,-0.0009006265
21.10004,-0.0008983748
21.20004,-0.0008960845
21.30005,-0.0008938884
21.40005,-0.0008917949
21.50005,-0.0008897099
21.60005,-0.0008875976
21.70005,-0.0008853375
21.80005,-0.0008832478
21.90005,-0.000881257
22.00005,-0.000879059
22.10005,-0.0008769748
22.20005,-0.0008748805
22.30005,-0.000872788
22.40005,-0.0008708207
22.50005,-0.0008689089
22.60005,-0.000866694
22.70005,-0.0008647804
22.80005,-0.0008628668
22.90005,-0.0008607121
23.00005,-0.00085887
23.10005,-0.0008569226
23.20005,-0.000854929
23.30005,-0.0008530313
23.40005,-0.0008510876
23.50005,-0.0008491901
23.60005,-0.0008472472
23.70005,-0.0008454571
23.80005,-0.0008434973
23.90005,-0.0008415695
24.00006,-0.0008397275
24.10006,-0.000837796
24.20006,-0.0008357667
24.30006,-0.0008340771
24.40006,-0.0008322267
24.50006,-0.0008301907
24.60006,-0.0008285209
24.70006,-0.0008268013
24.80006,-0.0008249857
24.90006,-0.0008233113
25.00006,-0.0008219146
25.10006,-0.0008204306
25.20006,-0.0008185753
25.30006,-0.0008167898
25.40006,-0.0008150523
25.50006,-0.0008133543
25.60006,-0.000811647
25.70006,-0.0008099726
25.80006,-0.0008082708
25.90006,-0.0008065184
26.00006,-0.0008048307
26.10006,-0.0008030556
26.20006,-0.0008012634
26.30006,-0.0007996541
26.40006,-0.0007978582
26.50006,-0.0007961706
26.60007,-0.000794548
26.70007,-0.0007927455
26.80007,-0.00079117
26.90007,-0.0007894927
27.00007,-0.0007877317
27.10007,-0.000786128
27.20007,-0.0007846221
27.30007,-0.0007828865
27.40007,-0.0007812771
27.50007,-0.0007798014
27.60007,-0.0007780563
27.70007,-0.0007764412
27.80007,-0.0007749355
27.90007,-0.000773344
28.00007,-0.000771921
28.10007,-0.0007702786
28.20007,-0.0007686052
28.30007,-0.0007671794
28.40007,-0.0007656556
28.50007,-0.0007640227
28.60007,-0.0007624151
28.70007,-0.0007610317
28.80007,-0.0007593988
28.90007,-0.0007578732
29.00007,-0.0007563636
29.10007,-0.0007550414
29.20008,-0.000753512
29.30008,-0.0007520777
29.40008,-0.0007505362
29.50008,-0.0007489569
29.60008,-0.0007473833
29.70008,-0.000746062
29.80008,-0.0007444883
29.90008,-0.0007430183
30.00008,-0.0007416349
30.10008,-0.0007401027
30.20008,-0.0007386967
30.30008,-0.0007372474
30.40008,-0.0007357538
30.50008,-0.0007344306
30.60008,-0.0007330529
30.70008,-0.0007315386
30.80008,-0.0007301514
30.90008,-0.0007288396
31.00008,-0.0007273403
31.10008,-0.0007259636
31.20008,-0.0007245933
31.30008,-0.0007231158
31.40008,-0.0007217107
31.50008,-0.0007203961
31.60008,-0.0007189137
31.70008,-0.0007175548
31.80009,-0.0007161215
31.90009,-0.0007147024
32.00008,-0.0007133943
32.10008,-0.0007120306
32.20008,-0.0007106312
32.30008,-0.0007092855
32.40008,-0.0007079332
32.50008,-0.0007066401
32.60007,-0.0007053491
32.70007,-0.000704009
32.80007,-0.000702635
32.90007,-0.0007013938
33.00007,-0.0007000575
33.10007,-0.000698739
33.20007,-0.0006974922
33.30006,-0.000696121
33.40006,-0.0006947913
33.50006,-0.0006935247
33.60006,-0.0006921724
33.70006,-0.0006909189
33.80006,-0.0006896325
33.90005,-0.0006884582
34.00005,-0.000687296
34.10005,-0.0006859824
34.20005,-0.0006847053
34.30005,-0.0006835734
34.40005,-0.0006822663
34.50005,-0.0006810901
34.60004,-0.0006798593
34.70004,-0.0006785116
34.80004,-0.0006772855
34.90004,-0.0006761111
35.00004,-0.0006748699
35.10004,-0.0006736693
35.20004,-0.0006724751
35.30003,-0.0006712047
35.40003,-0.000670101
35.50003,-0.0006688852
35.60003,-0.0006676365
35.70003,-0.000666529
35.80003,-0.0006653782
35.90002,-0.0006640598
36.00002,-0.000662942
36.10002,-0.0006618664
36.20002,-0.0006606686
36.30002,-0.0006596054
36.40002,-0.0006584405
36.50002,-0.0006572841
36.60001,-0.0006561322
36.70001,-0.0006549993
36.80001,-0.0006539532
36.90001,-0.0006529135
37.00001,-0.0006518681
37.10001,-0.0006507013
37.2,-0.0006494856
37.3,-0.0006485118
37.4,-0.0006473826
37.5,-0.0006462554
37.6,-0.0006451008
37.7,-0.0006440753
37.8,-0.0006429688
37.89999,-0.0006418613
37.99999,-0.0006407576
38.09999,-0.0006396991
38.19999,-0.0006385907
38.29999,-0.0006374511
38.39999,-0.0006363606
38.49998,-0.0006353944
38.59998,-0.0006343293
38.69998,-0.0006331974
38.79998,-0.0006321803
38.89998,-0.000631167
38.99998,-0.0006300651
39.09998,-0.000629018
39.19997,-0.0006280018
39.29997,-0.0006269443
39.39997,-0.0006258161
39.49997,-0.0006247726
39.59997,-0.0006237094
39.69997,-0.0006226744
39.79996,-0.0006216837
39.89996,-0.0006206101
39.99996,-0.0006195215
40.09996,-0.0006186024
40.19996,-0.0006175995
40.29996,-0.0006165353
40.39996,-0.000615538
40.49995,-0.0006145209
40.59995,-0.000613422
40.69995,-0.0006125405
40.79995,-0.0006114942
40.89995,-0.0006104188
40.99995,-0.0006094318
41.09995,-0.0006084204
41.19994,-0.000607409
41.29994,-0.0006064955
41.39994,-0.0006055481
41.49994,-0.0006044453
41.59994,-0.0006034443
41.69994,-0.0006025204
41.79993,-0.0006014347
41.89993,-0.0006004279
41.99993,-0.0005994871
42.09993,-0.0005984324
42.19993,-0.000597534
42.29993,-0.0005965659
42.39993,-0.0005956299
42.49992,-0.000594625
42.59992,-0.000593703
42.69992,-0.0005927312
42.79992,-0.0005917244
42.89992,-0.0005908223
42.99992,-0.000589872
43.09991,-0.0005888992
43.19991,-0.0005880084
43.29991,-0.0005870818
43.39991,-0.0005861098
43.49991,-0.0005851474
43.59991,-0.0005841934
43.69991,-0.0005831811
43.7999,-0.000582309
43.8999,-0.0005813927
43.9999,-0.0005803917
44.0999,-0.0005795064
44.1999,-0.0005785732
44.2999,-0.0005776786
44.39989,-0.0005767866
44.49989,-0.0005758901
44.59989,-0.0005748637
44.69989,-0.0005740246
44.79989,-0.0005731093
44.89989,-0.000572144
44.99989,-0.0005712974
45.09988,-0.0005703678
45.19988,-0.0005695109
45.29988,-0.0005685729
45.39988,-0.0005677122
45.49988,-0.0005667469
45.59988,-0.0005658108
45.69987,-0.0005649726
45.79987,-0.0005640969
45.89987,-0.0005631938
45.99987,-0.0005623632
46.09987,-0.0005615099
46.19987,-0.0005605889
46.29987,-0.0005596943
46.39986,-0.0005588533
46.49986,-0.0005579803
46.59986,-0.0005571346
46.69986,-0.0005562598
46.79986,-0.0005553783
46.89986,-0.0005545015
46.99986,-0.0005536521
47.09985,-0.0005527669
47.19985,-0.0005519156
47.29985,-0.0005510548
47.39985,-0.0005501282
47.49985,-0.000549289
47.59985,-0.000548466
47.69984,-0.0005476251
47.79984,-0.0005467812
47.89984,-0.0005459252
47.99984,-0.0005450231
48.09984,-0.0005442094
48.19984,-0.000543391
48.29984,-0.0005425067
48.39983,-0.0005417439
48.49983,-0.0005408945
48.59983,-0.000540063
48.69983,-0.000539239
48.79983,-0.0005384469
48.89983,-0.0005376785
48.99982,-0.0005368516
49.09982,-0.000536038
49.19982,-0.0005351905
49.29982,-0.0005343777
49.39982,-0.0005336084
49.49982,-0.0005327787
49.59982,-0.0005319339
49.69981,-0.0005311984
49.79981,-0.0005303631
49.89981,-0.0005294863
49.99981,-0.0005287857
50.09981,-0.0005279777
50.19981,-0.0005270822
50.2998,-0.0005262779
50.3998,-0.0005255329
50.4998,-0.000524757
50.5998,-0.0005239829
50.6998,-0.0005231137
50.7998,-0.0005223556
50.8998,-0.0005215456
50.99979,-0.0005207763
51.09979,-0.0005200078
51.19979,-0.0005192158
51.29979,-0.0005184615
51.39979,-0.0005177316
51.49979,-0.0005168974
51.59978,-0.0005160516
51.69978,-0.0005153462
51.79978,-0.0005145891
51.89978,-0.000513814
51.99978,-0.0005130353
52.09978,-0.0005122743
52.19978,-0.0005115643
52.29977,-0.0005107911
52.39977,-0.0005100152
52.49977,-0.0005093173
52.59977,-0.0005085686
52.69977,-0.0005078172
52.79977,-0.0005070345
52.89977,-0.0005062566
52.99976,-0.0005055616
53.09976,-0.000504813
53.19976,-0.0005040549
53.29976,-0.0005033421
53.39976,-0.0005025453
53.49976,-0.000501855
53.59975,-0.0005011355
53.69975,-0.0005004123
53.79975,-0.000499771
53.89975,-0.0004990185
53.99975,-0.000498268
54.09975,-0.0004975645
54.19975,-0.0004969222
54.29974,-0.0004961689
54.39974,-0.000495407
54.49974,-0.000494712
54.59974,-0.0004939388
54.69974,-0.0004932872
54.79974,-0.0004925987
54.89973,-0.0004918472
54.99973,-0.0004911391
55.09973,-0.0004904253
55.19973,-0.0004897406
55.29973,-0.0004890701
55.39973,-0.0004883431
55.49973,-0.0004875755
55.59972,-0.0004868353
55.69972,-0.0004862194
55.79972,-0.0004855282
55.89972,-0.0004847654
55.99972,-0.0004841053
56.09972,-0.0004833538
56.19971,-0.0004826541
56.29971,-0.0004819939
56.39971,-0.0004812707
56.49971,-0.0004804768
56.59971,-0.0004798807
56.69971,-0.0004791989
56.79971,-0.0004784511
56.8997,-0.0004778503
56.9997,-0.000477208
57.0997,-0.0004764923
57.1997,-0.0004758162
57.2997,-0.00047514
57.3997,-0.0004744271
57.49969,-0.0004737246
57.59969,-0.0004731087
57.69969,-0.0004724645
57.79969,-0.0004717036
57.89969,-0.0004709785
57.99969,-0.0004703231
58.09969,-0.0004695932
58.19968,-0.0004689641
58.29968,-0.0004682795
58.39968,-0.0004676598
58.49968,-0.0004671409
58.59968,-0.0004664949
58.69968,-0.0004657434
58.79967,-0.0004650588
58.89967,-0.0004644184
58.99967,-0.0004637846
59.09967,-0.0004631329
59.19967,-0.0004625104
59.29967,-0.0004618606
59.39967,-0.000461224
59.49966,-0.0004605648
59.59966,-0.0004598906
59.69966,-0.0004591993
59.79966,-0.0004585938
59.89966,-0.0004579666
59.99966,-0.0004572819
60.09966,-0.000456683
60.19965,-0.000456021
60.29965,-0.0004553825
60.39965,-0.0004547524
60.49965,-0.0004541074
60.59965,-0.0004534444
60.69965,-0.0004528229
60.79964,-0.0004521994
60.89964,-0.0004515666
60.99964,-0.00045101
61.09964,-0.0004503668
61.19964,-0.0004496859
61.29964,-0.0004494307
61.39964,-0.0004489391
61.49963,-0.00044815
61.59963,-0.0004474606
61.69963,-0.0004468278
61.79963,-0.0004460603
61.89963,-0.0004454387
61.99963,-0.0004447842
62.09962,-0.0004440892
62.19962,-0.0004435025
62.29962,-0.0004428838
62.39962,-0.0004422547
62.49962,-0.0004417725
62.59962,-0.0004412076
62.69962,-0.0004405332
62.79961,-0.0004399183
62.89961,-0.0004393806
62.99961,-0.0004387327
63.09961,-0.000438162
63.19961,-0.0004375423
63.29961,-0.0004369283
63.3996,-0.0004363284
63.4996,-0.0004357351
63.5996,-0.0004350938
63.6996,-0.0004344808
63.7996,-0.0004339129
63.8996,-0.0004333252
63.9996,-0.0004327263
64.09959,-0.0004321349
64.19959,-0.0004315322
64.29959,-0.0004308899
64.39959,-0.0004303324
64.49959,-0.0004297438
64.59959,-0.0004291223
64.69958,-0.0004285723
64.79958,-0.0004279593
64.89958,-0.0004273707
64.99958,-0.0004267793
65.09958,-0.0004262378
65.19958,-0.0004255946
65.29958,-0.0004250371
65.39957,-0.0004244739
65.49957,-0.0004238326
65.59957,-0.000423341
65.69957,-0.0004228428
65.79957,-0.0004223117
65.89957,-0.0004216958
65.99957,-0.0004210921
66.09956,-0.0004205271
66.19956,-0.0004199687
66.29956,-0.0004193716
66.39956,-0.0004187472
66.49956,-0.0004181671
66.59956,-0.0004176784
66.69955,-0.0004170841
66.79955,-0.000416505
66.89955,-0.000415938
66.99955,-0.0004153787
67.09955,-0.0004148165
67.19955,-0.0004143098
67.29955,-0.0004137222
67.39954,-0.0004131261
67.49954,-0.0004126203
67.59954,-0.0004120892
67.69954,-0.0004115213
67.79954,-0.0004109733
67.89954,-0.0004103988
67.99953,-0.0004098385
68.09953,-0.0004093723
68.19953,-0.0004087969
68.29953,-0.0004081556
68.39953,-0.0004076235
68.49953,-0.0004071338
68.59953,-0.0004066206
68.69952,-0.0004060922
68.79952,-0.0004056374
68.89952,-0.0004050921
68.99952,-0.0004045205
69.09952,-0.0004039931
69.19952,-0.0004033913
69.29951,-0.0004028348
69.39951,-0.000402266
69.49951,-0.0004016897
69.59951,-0.0004011802
69.69951,-0.0004006716
69.79951,-0.0004001461
69.89951,-0.0003996442
69.9995,-0.0003991658
70.0995,-0.0003985876
70.1995,-0.0003979943
70.2995,-0.0003975253
70.3995,-0.0003969782
70.4995,-0.0003964028
70.59949,-0.0003959121
70.69949,-0.0003954394
70.79949,-0.0003949412
70.89949,-0.0003944204
70.99949,-0.0003938299
71.09949,-0.0003932621
71.19949,-0.000392811
71.29948,-0.000392326
71.39948,-0.000391744
71.49948,-0.000391227
71.59948,-0.0003907354
71.69948,-0.0003902231
71.79948,-0.0003897278
71.89948,-0.0003892541
71.99947,-0.0003887767
72.09947,-0.000388205
72.19947,-0.0003877416
72.29947,-0.0003872595
72.39947,-0.0003867284
72.49947,-0.0003863695
72.59946,-0.0003857913
72.69946,-0.0003852696
72.79946,-0.0003848807
72.89946,-0.0003844051
72.99946,-0.000383906
73.09946,-0.0003834107
73.19946,-0.0003828965
73.29945,-0.0003824284
73.39945,-0.0003821054
73.49945,-0.0003818201
73.59945,-0.0003812531
73.69945,-0.0003806938
73.79945,-0.000380237
73.89944,-0.0003797266
73.99944,-0.0003792472
74.09944,-0.0003787651
74.19944,-0.0003781304
74.29944,-0.000377603
74.39944,-0.0003771114
74.49944,-0.000376586
74.59943,-0.000376084
74.69943,-0.0003755707
74.79943,-0.0003750791
74.89943,-0.000374564
74.99943,-0.0003740583
75.09943,-0.0003735545
75.19942,-0.0003730422
75.29942,-0.0003725836
75.39942,-0.0003720731
75.49942,-0.000371606
75.59942,-0.0003712049
75.69942,-0.0003706973
75.79942,-0.0003701906
75.89941,-0.0003696915
75.99941,-0.0003692386
76.09941,-0.0003687281
76.19941,-0.0003682281
76.29941,-0.0003677817
76.39941,-0.0003672807
76.4994,-0.0003667882
76.5994,-0.0003663587
76.6994,-0.0003658483
76.7994,-0.0003653755
76.8994,-0.0003649226
76.9994,-0.000364463
77.0994,-0.0003639969
77.19939,-0.0003635382
77.29939,-0.0003630513
77.39939,-0.0003625635
77.49939,-0.0003621322
77.59939,-0.0003616557
77.69939,-0.0003611754
77.79939,-0.0003607516
77.89938,-0.0003603185
77.99938,-0.0003598363
78.09938,-0.0003593635
78.19938,-0.0003588879
78.29938,-0.0003584407
78.39938,-0.0003580338
78.49937,-0.0003576035
78.59937,-0.0003571298
78.69937,-0.0003566617
78.79937,-0.0003561937
78.89937,-0.0003557228
78.99937,-0.0003552925
79.09937,-0.0003548131
79.19936,-0.0003543422
79.29936,-0.0003539184
79.39936,-0.0003534918
79.49936,-0.0003530163
79.59936,-0.0003525511
79.69936,-0.0003521791
79.79935,-0.0003517449
79.89935,-0.0003512533
79.99935,-0.0003507957
80.09935,-0.0003503945
80.19935,-0.0003499038
80.29935,-0.0003495018
80.39935,-0.000349012
80.49934,-0.0003485336
80.59934,-0.0003481155
80.69934,-0.0003476852
80.79934,-0.0003472359
80.89934,-0.000346799
80.99934,-0.0003463328
81.09933,-0.0003458986
81.19933,-0.000345473
81.29933,-0.0003450454
81.39933,-0.0003445972
81.49933,-0.0003442083
81.59933,-0.0003437713
81.69933,-0.0003433381
81.79932,-0.0003429463
81.89932,-0.0003424877
81.99932,-0.0003420263
82.09932,-0.0003416185
82.19932,-0.0003411919
82.29932,-0.0003407662
82.39931,-0.0003403613
82.49931,-0.0003399234
82.59931,-0.0003394525
82.69931,-0.0003390655
82.79931,-0.0003386737
82.89931,-0.0003382047
82.99931,-0.0003378111
83.0993,-0.0003373996
83.1993,-0.0003369513
83.2993,-0.0003365247
83.3993,-0.0003361461
83.4993,-0.0003357204
83.5993,-0.0003352675
83.6993,-0.0003348635
83.79929,-0.000334451
83.89929,-0.000334014
83.99929,-0.0003336156
84.09929,-0.0003332136
84.19929,-0.0003328246
84.29929,-0.0003323745
84.39928,-0.0003319356
84.49928,-0.0003315307
84.59928,-0.0003311323
84.69928,-0.0003307038
84.79928,-0.0003302593
84.89928,-0.0003298789
84.99928,-0.0003294909
85.09927,-0.0003290662
85.19927,-0.0003287158
85.29927,-0.0003282713
85.39927,-0.0003278447
85.49927,-0.0003274256
85.59927,-0.0003270301
85.69926,-0.0003266205
85.79926,-0.0003261948
85.89926,-0.0003258012
85.99926,-0.0003254104
86.09926,-0.0003250299
86.19926,-0.0003245976
86.29926,-0.0003241324
86.39925,-0.0003236879
86.49925,-0.0003233885
86.59925,-0.0003229788
86.69925,-0.0003225673
86.79925,-0.0003222
86.89925,-0.0003218261
86.99924,-0.0003213779
87.09924,-0.0003210191
87.19924,-0.0003206169
87.29924,-0.0003202101
87.39924,-0.0003198438
87.49924,-0.0003194473
87.59924,-0.0003190433
87.69923,-0.0003186516
87.79923,-0.0003182937
87.89923,-0.0003178793
87.99923,-0.0003175083
88.09923,-0.0003171712
88.19923,-0.0003167285
88.29922,-0.0003163641
88.39922,-0.0003159977
88.49922,-0.0003156088
88.59922,-0.0003152086
88.69922,-0.0003148517
88.79922,-0.0003144543
88.89922,-0.0003140512
88.99921,-0.0003136858
89.09921,-0.000313294
89.19921,-0.0003128966
89.29921,-0.000312535
89.39921,-0.0003121856
89.49921,-0.000311792
89.59921,-0.0003114313
89.6992,-0.0003110556
89.7992,-0.0003106628
89.8992,-0.0003102862
89.9992,-0.0003098972
90.0992,-0.0003095271
90.1992,-0.000309206
90.29919,-0.0003088783
90.39919,-0.0003084818
90.49919,-0.0003081268
90.59919,-0.0003077322
90.69919,-0.000307331
90.79919,-0.0003070052
90.89919,-0.0003066577
90.99918,-0.0003062574
91.09918,-0.000305893
91.19918,-0.0003055154
91.29918,-0.0003051509
91.39918,-0.0003047714
91.49918,-0.0003044484
91.59917,-0.0003041197
91.69917,-0.0003037939
91.79917,-0.0003034454
91.89917,-0.0003030546
91.99917,-0.0003026892
92.09917,-0.0003023492
92.19917,-0.0003019706
92.29916,-0.0003015987
92.39916,-0.000301255
92.49916,-0.0003008933
92.59916,-0.0003005185
92.69916,-0.000300204
92.79916,-0.0002998047
92.89915,-0.0002994478
92.99915,-0.0002991294
93.09915,-0.0002987518
93.19915,-0.0002983469
93.29915,-0.0002980719
93.39915,-0.0002976783
93.49915,-0.0002972629
93.59914,-0.0002969569
93.69914,-0.0002966169
93.79914,-0.0002962431
93.89914,-0.0002959464
93.99914,-0.0002955867
94.09914,-0.0002952231
94.19913,-0.0002948634
94.29913,-0.0002944943
94.39913,-0.0002941533
94.49913,-0.0002938143
94.59913,-0.000293448
94.69913,-0.000293124
94.79913,-0.0002927605
94.89912,-0.0002924074
94.99912,-0.0002920749
95.09912,-0.0002917529
95.19912,-0.0002914025
95.29912,-0.0002910221
95.39912,-0.0002906859
95.49911,-0.0002904071
95.59911,-0.0002900229
95.69911,-0.0002896594
95.79911,-0.0002893279
95.89911,-0.0002890181
95.99911,-0.0002887083
96.09911,-0.0002883391
96.1991,-0.0002880274
96.2991,-0.0002877326
96.3991,-0.0002874058
96.4991,-0.0002870809
96.5991,-0.0002867137
96.6991,-0.0002863586
96.7991,-0.0002860517
96.89909,-0.0002856618
96.99909,-0.0002852992
97.09909,-0.0002849978
97.19909,-0.000284688
97.29909,-0.000284397
97.39909,-0.0002841408
97.49908,-0.000283799
97.59908,-0.0002834788
97.69908,-0.0002832283
97.79908,-0.0002828959
97.89908,-0.0002825097
97.99908,-0.0002822254
98.09908,-0.0002818666
98.19907,-0.0002814946
98.29907,-0.0002811913
98.39907,-0.0002808881
98.49907,-0.0002805416
98.59907,-0.0002802685
98.69907,-0.0002799615
98.79906,-0.0002796413
98.89906,-0.0002792636
98.99906,-0.0002789472
99.09906,-0.0002786327
99.19906,-0.0002783238
99.29906,-0.0002779819
99.39906,-0.0002776175
99.49905,-0.0002773152
99.59905,-0.0002770365
99.69905,-0.0002766842
99.79905,-0.0002763669
99.89905,-0.000276058
99.99905,-0.0002757707
100.099,-0.0002754289
100.199,-0.0002751116
100.299,-0.0002748074
100.399,-0.0002745098
100.499,-0.0002742093
100.599,-0.0002739202
100.699,-0.0002735737
100.799,-0.0002732347
100.899,-0.0002729625
100.999,-0.0002726498
101.099,-0.0002723052
101.199,-0.0002720632
101.299,-0.0002717194
101.399,-0.0002713851
101.499,-0.0002710979
101.599,-0.0002707768
101.699,-0.0002704744
101.799,-0.000270142
101.899,-0.0002698162
101.999,-0.0002695318
102.099,-0.0002692945
102.199,-0.0002689875
102.299,-0.0002686428
102.399,-0.0002683706
102.499,-0.0002680636
102.599,-0.0002677274
102.699,-0.0002674374
102.799,-0.0002671332
102.899,-0.0002667725
102.999,-0.0002664862
103.099,-0.0002662094
103.199,-0.0002658741
103.299,-0.0002655991
103.399,-0.000265359
103.499,-0.0002650247
103.599,-0.000264712
103.699,-0.0002644738
103.799,-0.0002641338
103.899,-0.0002638155
103.999,-0.0002636224
104.099,-0.0002632947
104.199,-0.000262934
104.299,-0.000262659
104.399,-0.000262401
104.499,-0.0002620478
104.599,-0.0002617239
104.699,-0.0002614583
104.799,-0.0002611541
104.899,-0.000260882
104.999,-0.0002605825
105.099,-0.0002602557
105.199,-0.0002599675
105.299,-0.0002597283
105.399,-0.0002593978
105.499,-0.000259088
105.599,-0.0002588328
105.699,-0.0002585286
105.799,-0.0002582461
105.899,-0.0002579975
105.999,-0.0002576764
106.099,-0.0002573712
106.199,-0.0002570896
106.299,-0.0002567845
106.3989,-0.0002564973
106.4989,-0.000256212
106.5989,-0.0002559096
106.6989,-0.0002556045
106.7989,-0.0002553305
106.8989,-0.00025508
106.9989,-0.0002547767
107.0989,-0.0002545328
107.1989,-0.0002542757
107.2989,-0.0002539499
107.3989,-0.0002536476
107.4989,-0.0002533679
107.5989,-0.0002530892
107.6989,-0.000252784
107.7989,-0.0002525599
107.8989,-0.0002522557
107.9989,-0.0002519412
108.0989,-0.0002516728
108.1989,-0.0002513884
108.2989,-0.0002511219
108.3989,-0.000250813
108.4989,-0.0002505229
108.5989,-0.0002502724
108.6989,-0.0002499965
108.7989,-0.0002496904
108.8989,-0.000249423
108.9989,-0.0002492073
109.0989,-0.0002490247
109.1989,-0.00024863
109.2989,-0.0002483353
109.3989,-0.0002481686
109.4989,-0.0002478899
109.5989,-0.000247612
109.6989,-0.0002473747
109.7989,-0.0002470602
109.8989,-0.0002467569
109.9989,-0.0002465102
110.0989,-0.0002461834
110.1989,-0.0002458566
110.2989,-0.0002455562
110.3989,-0.0002452728
110.4989,-0.000244978
110.5989,-0.0002447379
110.6989,-0.0002444544
110.7989,-0.0002441361
110.8989,-0.0002439167
110.9989,-0.0002436737
111.0989,-0.0002433978
111.1989,-0.0002431134
111.2989,-0.0002428723
111.3989,-0.0002426096
111.4989,-0.0002423487
111.5989,-0.0002420709
111.6989,-0.0002418082
111.7989,-0.0002415859
111.8989,-0.0002413627
111.9989,-0.0002410435
112.0989,-0.0002407788
112.1989,-0.0002405067
112.2989,-0.0002402129
112.3989,-0.000239919
112.4989,-0.0002396996
112.5989,-0.0002394406
112.6989,-0.0002391572
112.7989,-0.000238917
112.8988,-0.0002386496
112.9988,-0.0002383614
113.0988,-0.0002381279
113.1988,-0.0002378265
113.2988,-0.0002375967
113.3988,-0.0002373707
113.4988,-0.0002370835
113.5988,-0.0002368339
113.6988,-0.0002366446
113.7988,-0.0002363395
113.8988,-0.0002360306
113.9988,-0.0002358235
114.0988,-0.0002355805
114.1988,-0.0002353526
114.2988,-0.0002350983
114.3988,-0.0002348516
114.4988,-0.0002345775
114.5988,-0.0002342894
114.6988,-0.0002340276
114.7988,-0.0002337808
114.8988,-0.000233503
114.9988,-0.0002332676
115.0988,-0.0002330162
115.1988,-0.0002327487
115.2988,-0.0002324765
115.3988,-0.000232195
115.4988,-0.0002319416
115.5988,-0.0002317241
115.6988,-0.0002314679
115.7988,-0.0002311835
115.8988,-0.0002309255
115.9988,-0.0002306901
116.0988,-0.0002304396
116.1988,-0.000230191
116.2988,-0.0002299047
116.3988,-0.0002296297
116.4988,-0.0002294121
116.5988,-0.0002291315
116.6988,-0.0002288829
116.7988,-0.0002286371
116.8988,-0.0002284167
116.9988,-0.0002281747
117.0988,-0.000227944
117.1988,-0.0002276681
117.2988,-0.0002273912
117.3988,-0.000227168
117.4988,-0.0002269307
117.5988,-0.0002266953
117.6988,-0.0002264344
117.7988,-0.0002262055
117.8988,-0.0002259409
117.9988,-0.0002257017
118.0988,-0.0002254908
118.1988,-0.0002252619
118.2988,-0.000225002
118.3988,-0.0002247675
118.4988,-0.0002245453
118.5988,-0.0002243343
118.6988,-0.0002240612
118.7988,-0.0002237825
118.8988,-0.0002235395
118.9988,-0.0002233728
119.0988,-0.0002231609
119.1988,-0.0002228709
119.2988,-0.0002226053
119.3988,-0.0002224075
119.4987,-0.0002221844
119.5987,-0.0002219452
119.6987,-0.0002217031
119.7987,-0.0002214762
119.8987,-0.0002212097
119.9987,-0.0002209789
120.0987,-0.0002207209
120.1987,-0.0002205081
120.2987,-0.0002202745
120.3987,-0.0002200485
120.4987,-0.0002198526
120.5987,-0.000219605
120.6987,-0.0002192998
120.7987,-0.0002190333
120.8987,-0.000218861
120.9987,-0.0002186303
121.0987,-0.0002183835
121.1987,-0.0002181302
121.2987,-0.0002178872
121.3987,-0.0002176951
121.4987,-0.0002174889
121.5987,-0.0002172196
121.6987,-0.0002169832
121.7987,-0.000216776
121.8987,-0.0002165773
121.9987,-0.0002163268
122.0987,-0.0002160753
122.1987,-0.0002158588
122.2987,-0.0002156111
122.3987,-0.0002153813
122.4987,-0.0002152042
122.5987,-0.0002150074
122.6987,-0.0002147578
122.7987,-0.0002145573
122.8987,-0.0002143153
122.9987,-0.0002140732
123.0987,-0.0002138698
123.1987,-0.0002136014
123.2987,-0.0002133839
123.3987,-0.0002131965
123.4987,-0.000212978
123.5987,-0.0002127585
123.6987,-0.0002125062
123.7987,-0.0002123103
123.8987,-0.0002120711
123.9987,-0.000211847
124.0987,-0.0002116172
124.1987,-0.000211378
124.2987,-0.0002111595
124.3987,-0.0002109599
124.4987,-0.0002107282
124.5987,-0.000210488
124.6987,-0.0002102658
124.7987,-0.000210053
124.8987,-0.0002098326
124.9987,-0.0002096094
125.0987,-0.0002093542
125.1987,-0.0002091508
125.2987,-0.0002089521
125.3987,-0.000208728
125.4987,-0.0002085274
125.5987,-0.0002083447
125.6987,-0.0002081149
125.7987,-0.0002078672
125.8987,-0.0002076525
125.9986,-0.0002074387
126.0986,-0.0002072353
126.1986,-0.0002070215
126.2986,-0.0002067578
126.3986,-0.0002065516
126.4986,-0.0002064038
126.5986,-0.0002061796
126.6986,-0.0002059291
126.7986,-0.0002057389
126.8986,-0.0002055421
126.9986,-0.0002053311
127.0986,-0.0002051371
127.1986,-0.0002049017
127.2986,-0.0002046569
127.3986,-0.0002044864
127.4986,-0.0002042717
127.5986,-0.000204072
127.6986,-0.0002038281
127.7986,-0.0002036652
127.8986,-0.0002034364
127.9986,-0.0002032066
128.0986,-0.000202989
128.1986,-0.0002027819
128.2986,-0.0002025775
128.3986,-0.0002023929
128.4986,-0.0002021697
128.5986,-0.0002019418
128.6987,-0.0002017535
128.7987,-0.0002015435
128.8987,-0.0002013514
128.9987,-0.0002011376
129.0987,-0.0002009276
129.1987,-0.0002007298
129.2987,-0.0002005735
129.3987,-0.0002003268
129.4987,-0.0002001045
129.5987,-0.0001999256
129.6987,-0.0001997184
129.7987,-0.0001994971
129.8987,-0.000199304
129.9987,-0.0001990922
130.0987,-0.0001988831
130.1987,-0.0001987014
130.2988,-0.0001985337
130.3988,-0.0001983228
130.4988,-0.0001981467
130.5988,-0.0001979159
130.6988,-0.0001977069
130.7988,-0.0001974921
130.8988,-0.0001973057
130.9988,-0.000197107
131.0988,-0.0001969045
131.1988,-0.0001966945
131.2988,-0.0001964967
131.3988,-0.0001962905
131.4988,-0.000196104
131.5988,-0.0001959129
131.6988,-0.0001957264
131.7988,-0.0001955239
131.8988,-0.0001953102
131.9989,-0.0001951557
132.0989,-0.0001949815
132.1989,-0.0001947979
132.2989,-0.0001945568
132.3989,-0.0001943543
132.4989,-0.0001941678
132.5989,-0.0001940021
132.6989,-0.0001937911
132.7989,-0.0001935764
132.8989,-0.0001934267
132.9989,-0.0001932384
133.0989,-0.000193017
133.1989,-0.0001928014
133.2989,-0.0001926159
133.3989,-0.0001924398
133.4989,-0.0001922269
133.599,-0.0001920103
133.699,-0.0001918559
133.799,-0.0001916798
133.899,-0.0001914943
133.999,-0.0001913379
134.099,-0.0001911553
134.199,-0.0001909565
134.299,-0.0001907663
134.399,-0.0001905638
134.499,-0.0001903501
134.599,-0.0001901956
134.699,-0.0001899592
134.799,-0.0001897765
134.899,-0.0001895976
134.999,-0.0001893754
135.099,-0.0001891654
135.1991,-0.0001890373
135.2991,-0.0001888405
135.3991,-0.000188638
135.4991,-0.0001884864
135.5991,-0.0001882943
135.6991,-0.0001880984
135.7991,-0.0001879562
135.8991,-0.0001877594
135.9991,-0.0001875475
136.0991,-0.0001873761
136.1991,-0.0001872009
136.2991,-0.0001870013
136.3991,-0.0001868412
136.4991,-0.0001866378
136.5991,-0.0001864419
136.6991,-0.0001862846
136.7991,-0.0001861085
136.8992,-0.0001858995
136.9992,-0.0001857281
137.0992,-0.0001855444
137.1992,-0.0001853796
137.2992,-0.0001851837
137.3992,-0.0001850048
137.4992,-0.0001848165
137.5992,-0.0001846601
137.6992,-0.0001844746
137.7992,-0.0001842768
137.8992,-0.0001840763
137.9992,-0.0001839322
138.0992,-0.0001837401
138.1992,-0.0001835545
138.2992,-0.0001833643
138.3992,-0.000183176
138.4993,-0.0001829773
138.5993,-0.0001827955
138.6993,-0.0001826298
138.7993,-0.0001824527
138.8993,-0.0001822775
138.9993,-0.0001821071
139.0993,-0.0001818811
139.1993,-0.0001817238
139.2993,-0.0001815486
139.3993,-0.0001813697
139.4993,-0.0001811936
139.5993,-0.0001810184
139.6993,-0.0001807981
139.7993,-0.0001806333
139.8993,-0.0001804751
139.9993,-0.0001802933
140.0993,-0.0001801219
140.1994,-0.0001800447
140.2994,-0.0001798554
140.3994,-0.0001796605
140.4994,-0.0001795079
140.5994,-0.0001793309
140.6994,-0.0001791444
140.7994,-0.0001789843
140.8994,-0.0001787997
140.9994,-0.0001786048
141.0994,-0.000178439
141.1994,-0.0001782827
141.2994,-0.0001781255
141.3994,-0.0001779183
141.4994,-0.0001777572
141.5994,-0.0001775868
141.6994,-0.0001774229
141.7995,-0.0001772364
141.8995,-0.0001770406
141.9995,-0.0001768946
142.0995,-0.0001767694
142.1995,-0.0001765904
142.2995,-0.0001764285
142.3995,-0.0001762589
142.4995,-0.0001760913
142.5995,-0.0001759171
142.6995,-0.0001757749
142.7995,-0.0001755922
142.8995,-0.0001754453
142.9995,-0.0001752974
143.0995,-0.0001750827
143.1995,-0.0001748953
143.2995,-0.0001747559
143.3996,-0.0001746034
143.4996,-0.0001744056
143.5996,-0.0001742691
143.6996,-0.0001741278
143.7996,-0.0001739451
143.8996,-0.0001737775
143.9996,-0.0001736277
144.0996,-0.0001734469
144.1996,-0.0001732605
144.2996,-0.0001731249
144.3996,-0.0001730015
144.4996,-0.0001728376
144.5996,-0.0001726295
144.6996,-0.0001724656
144.7996,-0.0001723103
144.8996,-0.0001721709
144.9996,-0.0001719684
145.0997,-0.0001718045
145.1997,-0.0001717104
145.2997,-0.0001715682
145.3997,-0.0001713676
145.4997,-0.0001711962
145.5997,-0.0001710314
145.6997,-0.0001708638
145.7997,-0.0001707281
145.8997,-0.0001705747
145.9997,-0.0001703524
146.0997,-0.0001701829
146.1997,-0.0001700228
146.2997,-0.0001698806
146.3997,-0.0001697262
146.4997,-0.0001695736
146.5997,-0.0001694107
146.6998,-0.0001692675
146.7998,-0.0001691649
146.8998,-0.0001689869
146.9998,-0.0001687985
147.0998,-0.0001686488
147.1998,-0.0001684595
147.2998,-0.0001682853
147.3998,-0.0001681544
147.4998,-0.0001679849
147.5998,-0.0001678003
147.6998,-0.0001676638
147.7998,-0.0001674989
147.8998,-0.0001673351
147.9998,-0.0001671552
148.0998,-0.0001669744
148.1998,-0.0001667945
148.2999,-0.0001666815
148.3999,-0.000166497
148.4999,-0.0001663237
148.5999,-0.0001661702
148.6999,-0.0001660336
148.7999,-0.000165914
148.8999,-0.0001657596
148.9999,-0.0001655995
149.0999,-0.0001654366
149.1999,-0.0001652784
149.2999,-0.000165139
149.3999,-0.0001649902
149.4999,-0.0001648329
149.5999,-0.0001646869
149.6999,-0.0001645532
149.7999,-0.0001644289
149.8999,-0.0001642632
150,-0.0001640974
150.1,-0.0001639062
150.2,-0.0001637848
150.3,-0.000163636
150.4,-0.0001634382
150.5,-0.000163328
150.6,-0.0001631755
150.7,-0.0001630191
150.8,-0.0001628864
150.9,-0.0001627131
151,-0.0001625671
151.1,-0.0001624174
151.2,-0.0001622582
151.3,-0.000162132
151.4,-0.0001619879
151.5,-0.0001618401
151.6001,-0.0001616649
151.7001,-0.000161551
151.8001,-0.0001613965
151.9001,-0.0001612412
152.0001,-0.0001611121
152.1001,-0.0001609454
152.2001,-0.0001607788
152.3001,-0.0001606582
152.4001,-0.0001605424
152.5001,-0.0001603861
152.6001,-0.0001602043
152.7001,-0.0001600951
152.8001,-0.0001599519
152.9001,-0.0001598022
153.0001,-0.0001596261
153.1001,-0.0001594848
153.2001,-0.0001593793
153.3002,-0.0001592183
153.4002,-0.0001590413
153.5002,-0.0001589104
153.6002,-0.0001587898
153.7002,-0.0001586363
153.8002,-0.0001584612
153.9002,-0.0001583632
154.0002,-0.0001582238
154.1002,-0.0001580816
154.2002,-0.0001579272
154.3002,-0.0001577737
154.4002,-0.0001576315
154.5002,-0.0001575505
154.6002,-0.0001574055
154.7002,-0.0001572642
154.8002,-0.0001571719
154.9003,-0.0001570693
155.0003,-0.0001568593
155.1003,-0.0001567077
155.2003,-0.0001566144
155.3003,-0.000156427
155.4003,-0.0001562924
155.5003,-0.0001561351
155.6003,-0.0001559618
155.7003,-0.0001558676
155.8003,-0.000155732
155.9003,-0.0001555917
156.0003,-0.0001554175
156.1003,-0.0001553148
156.2003,-0.0001551745
156.3003,-0.0001550512
156.4003,-0.0001549382
156.5004,-0.0001547893
156.6004,-0.0001546716
156.7004,-0.0001545888
156.8004,-0.0001544136
156.9004,-0.0001542281
157.0004,-0.0001541141
157.1004,-0.0001539597
157.2004,-0.0001538213
157.3004,-0.0001536913
157.4004,-0.0001535491
157.5004,-0.0001533918
157.6004,-0.0001532854
157.7004,-0.000153163
157.8004,-0.0001530048
157.9004,-0.0001528428
158.0004,-0.000152742
158.1004,-0.0001526177
158.2005,-0.000152468
158.3005,-0.0001523456
158.4005,-0.0001521902
158.5005,-0.0001520762
158.6005,-0.0001519481
158.7005,-0.000151788
158.8005,-0.0001516487
158.9005,-0.000151562
159.0005,-0.0001514377
159.1005,-0.0001512466
159.2005,-0.0001511175
159.3005,-0.0001509951
159.4005,-0.000150852
159.5005,-0.0001507211
159.6005,-0.0001505468
159.7005,-0.0001503981
159.8006,-0.000150334
159.9006,-0.0001502172
160.0006,-0.0001500647
160.1006,-0.0001499206
160.2006,-0.0001498227
160.3006,-0.0001497049
160.4006,-0.0001495844
160.5006,-0.0001494591
160.6006,-0.0001493028
160.7006,-0.0001491842
160.8006,-0.0001490278
160.9006,-0.0001488856
161.0006,-0.0001487745
161.1006,-0.0001486483
161.2006,-0.0001485174
161.3006,-0.0001483912
161.4007,-0.0001483036
161.5007,-0.0001481511
161.6007,-0.0001480117
161.7007,-0.0001479712
161.8007,-0.0001478497
161.9007,-0.0001477113
162.0007,-0.0001475955
162.1007,-0.0001474269
162.2007,-0.0001472772
162.3007,-0.0001472414
162.4007,-0.0001470709
162.5007,-0.0001469212
162.6007,-0.0001468336
162.7007,-0.0001466895
162.8007,-0.0001465803
162.9007,-0.0001464418
163.0007,-0.0001463364
163.1008,-0.0001462403
163.2008,-0.0001461047
163.3008,-0.0001459823
163.4008,-0.0001458212
163.5008,-0.0001457016
163.6008,-0.0001456235
163.7008,-0.0001454606
163.8008,-0.0001453278
163.9008,-0.0001452543
164.0008,-0.0001451432
164.1008,-0.0001450066
164.2008,-0.0001448729
164.3008,-0.0001447637
164.4008,-0.0001446469
164.5008,-0.0001445358
164.6008,-0.0001443936
164.7009,-0.0001442542
164.8009,-0.0001442203
164.9009,-0.0001441902
165.0009,-0.0001439717
165.1009,-0.0001438304
165.2009,-0.0001437372
165.3009,-0.0001436072
165.4009,-0.0001434349
165.5009,-0.0001433351
165.6009,-0.0001432042
165.7009,-0.0001430705
165.8009,-0.0001429744
165.9009,-0.0001428247
166.0009,-0.0001427135
166.1009,-0.0001425883
166.2009,-0.0001424414
166.3009,-0.0001423237
166.401,-0.0001422568
166.501,-0.0001421268
166.601,-0.0001419611
166.701,-0.000141865
166.801,-0.0001417539
166.901,-0.0001416249
167.001,-0.0001415015
167.101,-0.0001414036
167.201,-0.0001412472
167.301,-0.0001411173
167.401,-0.0001410005
167.501,-0.0001408866
167.601,-0.0001407585
167.701,-0.0001406351
167.801,-0.0001405268
167.901,-0.0001404232
168.0011,-0.0001403291
168.1011,-0.0001401492
168.2011,-0.0001400484
168.3011,-0.0001399458
168.4011,-0.0001397772
168.5011,-0.0001396906
168.6011,-0.0001395917
168.7011,-0.000139458
168.8011,-0.0001393224
168.9011,-0.0001392122
169.0011,-0.0001391029
169.1011,-0.0001390012
169.2011,-0.0001388393
169.3011,-0.0001387385
169.4011,-0.0001386697
169.5011,-0.0001385492
169.6012,-0.0001384334
169.7012,-0.0001383147
169.8012,-0.0001381612
169.9012,-0.0001380925
170.0012,-0.0001379493
170.1012,-0.0001378015
170.2012,-0.0001377129
170.3012,-0.0001376093
170.4012,-0.0001374662
170.5012,-0.0001373965
170.6012,-0.0001372496
170.7012,-0.00013713
170.8012,-0.0001370255
170.9012,-0.0001369096
171.0012,-0.0001368079
171.1012,-0.0001367477
171.2012,-0.0001365932
171.3013,-0.0001364859
171.4013,-0.0001363606
171.5013,-0.0001362391
171.6013,-0.0001361167
171.7013,-0.0001360207
171.8013,-0.000135901
171.9013,-0.0001357692
172.0013,-0.0001356882
172.1013,-0.000135595
172.2013,-0.0001354679
172.3013,-0.0001353294
172.4013,-0.0001352352
172.5013,-0.0001351213
172.6013,-0.0001350149
172.7013,-0.0001348887
172.8013,-0.0001347898
172.9014,-0.0001346438
173.0014,-0.0001345657
173.1014,-0.000134448
173.2014,-0.000134334
173.3014,-0.0001342323
173.4014,-0.0001341155
173.5014,-0.0001340336
173.6014,-0.0001338942
173.7014,-0.0001337812
173.8014,-0.0001336955
173.9014,-0.0001336042
174.0014,-0.0001334742
174.1014,-0.0001333433
174.2014,-0.0001332585
174.3014,-0.0001331512
174.4014,-0.0001330391
174.5014,-0.000132928
174.6015,-0.000132815
174.7015,-0.0001327208
174.8015,-0.0001326097
174.9015,-0.0001325155
175.0015,-0.0001323884
175.1015,-0.0001322754
175.2015,-0.0001322339
175.3015,-0.0001321106
175.4015,-0.0001319929
175.5015,-0.0001318695
175.6015,-0.0001317697
175.7015,-0.0001316454
175.8015,-0.000131538
175.9015,-0.0001314156
176.0015,-0.0001313289
176.1015,-0.0001312677
176.2016,-0.0001311293
176.3016,-0.000131021
176.4016,-0.000130956
176.5016,-0.0001308741
176.6016,-0.0001307225
176.7016,-0.0001306424
176.8016,-0.0001305737
176.9016,-0.0001303976
177.0016,-0.000130294
177.1016,-0.0001302262
177.2016,-0.0001301452
177.3016,-0.0001300068
177.4016,-0.0001298768
177.5016,-0.0001297619
177.6016,-0.0001296564
177.7016,-0.0001296084
177.8017,-0.0001294756
177.9017,-0.0001293532
178.0017,-0.0001292854
178.1017,-0.0001291978
178.2017,-0.0001290933
178.3017,-0.000128969
178.4017,-0.0001288757
178.5017,-0.00012879
178.6017,-0.0001286864
178.7017,-0.000128565
178.8017,-0.0001284849
178.9017,-0.0001284001
179.0017,-0.0001283022
179.1017,-0.0001281779
179.2017,-0.0001281129
179.3017,-0.0001280122
179.4017,-0.0001278869
179.5018,-0.0001278586
179.6018,-0.0001277824
179.7018,-0.0001276637
179.8018,-0.0001275799
179.9018,-0.000127514
180.0018,-0.0001274443
180.1018,-0.0001272983
180.2018,-0.00012724
180.3018,-0.0001271467
180.4018,-0.0001270525
180.5018,-0.0001269612
180.6018,-0.0001268698
180.7018,-0.0001267531
180.8018,-0.0001266805
180.9018,-0.0001265572
181.0018,-0.0001264508
181.1019,-0.0001263924
181.2019,-0.0001263161
181.3019,-0.0001261805
181.4019,-0.0001260609
181.5019,-0.0001259846
181.6019,-0.0001259168
181.7019,-0.0001257906
181.8019,-0.0001257153
181.9019,-0.0001256079
182.0019,-0.0001255166
182.1019,-0.0001254497
182.2019,-0.0001253273
182.3019,-0.0001252359
182.4019,-0.0001251342
182.5019,-0.0001250297
182.6019,-0.0001249289
182.702,-0.0001248498
182.802,-0.0001247594
182.902,-0.0001246408
183.002,-0.0001245664
183.102,-0.0001244891
183.202,-0.0001243818
183.302,-0.0001243168
183.402,-0.0001241963
183.502,-0.0001240861
183.602,-0.0001240249
183.702,-0.0001239439
183.802,-0.0001238299
183.902,-0.0001237395
184.002,-0.0001236482
184.102,-0.0001235427
184.202,-0.0001234674
184.302,-0.0001234005
184.4021,-0.0001233157
184.5021,-0.0001231905
184.6021,-0.0001231255
184.7021,-0.000123021
184.8021,-0.0001228891
184.9021,-0.0001228166
185.0021,-0.0001226914
185.1021,-0.000122616
185.2021,-0.0001225576
185.3021,-0.000122407
185.4021,-0.0001223241
185.5021,-0.0001223062
185.6021,-0.0001222111
185.7021,-0.0001220906
185.8021,-0.0001220237
185.9021,-0.0001219427
186.0022,-0.0001218372
186.1022,-0.0001217628
186.2022,-0.0001216498
186.3022,-0.0001215425
186.4022,-0.0001214445
186.5022,-0.0001213626
186.6022,-0.0001212307
186.7022,-0.0001211404
186.8022,-0.0001210782
186.9022,-0.0001210198
187.0022,-0.000120888
187.1022,-0.0001208154
187.2022,-0.0001207156
187.3022,-0.0001206553
187.4022,-0.0001206007
187.5022,-0.0001204971
187.6022,-0.0001203794
187.7023,-0.0001203144
187.8023,-0.0001202476
187.9023,-0.0001201534
188.0023,-0.0001200687
188.1023,-0.0001199594
188.2023,-0.0001198765
188.3023,-0.0001198398
188.4023,-0.0001197456
188.5023,-0.000119627
188.6023,-0.0001195441
188.7023,-0.0001194575
188.8023,-0.0001193991
188.9023,-0.0001193124
189.0023,-0.0001192126
189.1023,-0.0001191166
189.2023,-0.0001190337
189.3024,-0.0001189631
189.4024,-0.0001188698
189.5024,-0.0001187879
189.6024,-0.0001186787
189.7024,-0.0001186165
189.8024,-0.0001184997
189.9024,-0.000118399
190.0024,-0.0001183104
190.1024,-0.0001182285
190.2024,-0.000118172
190.3024,-0.0001180581
190.4024,-0.0001179921
190.5024,-0.0001179111
190.6024,-0.0001178245
190.7024,-0.0001177416
190.8024,-0.0001176559
190.9025,-0.0001175768
191.0025,-0.0001175166
191.1025,-0.0001174299
191.2025,-0.0001173442
191.3025,-0.0001172491
191.4025,-0.000117187
191.5025,-0.0001170626
191.6025,-0.0001169864
191.7025,-0.0001169383
191.8025,-0.0001168583
191.9025,-0.0001167509
192.0025,-0.0001166671
192.1025,-0.0001165673
192.2025,-0.0001164825
192.3025,-0.0001164383
192.4025,-0.000116346
192.5025,-0.000116233
192.6026,-0.0001161963
192.7026,-0.0001161388
192.8026,-0.0001160437
192.9026,-0.0001159495
193.0026,-0.0001158506
193.1026,-0.0001157744
193.2026,-0.0001157179
193.3026,-0.0001156397
193.4026,-0.0001155069
193.5026,-0.0001154457
193.6026,-0.0001153939
193.7026,-0.0001152734
193.8026,-0.0001152093
193.9026,-0.0001151952
194.0026,-0.00011515
194.1026,-0.000115036
194.2027,-0.0001149513
194.3027,-0.0001148722
194.4027,-0.0001147959
194.5027,-0.0001147695
194.6027,-0.000114649
194.7027,-0.0001145228
194.8027,-0.0001144597
194.9027,-0.0001144286
195.0027,-0.0001142911
195.1027,-0.0001141998
195.2027,-0.0001141555
195.3027,-0.000114067
195.4027,-0.0001139756
195.5027,-0.000113905
195.6027,-0.0001138269
195.7027,-0.0001137619
195.8027,-0.0001137007
195.9028,-0.0001135905
196.0028,-0.0001135217
196.1028,-0.0001134558
196.2028,-0.0001133532
196.3028,-0.0001132684
196.4028,-0.000113242
196.5028,-0.0001131582
196.6028,-0.0001130499
196.7028,-0.0001129708
196.8028,-0.0001128927
196.9028,-0.0001128136
197.0028,-0.00011279
197.1028,-0.0001126798
197.2028,-0.0001125706
197.3028,-0.0001125348
197.4028,-0.0001124566
197.5029,-0.0001123625
197.6029,-0.0001122655
197.7029,-0.0001122052
197.8029,-0.0001121233
197.9029,-0.0001120253
198.0029,-0.0001119688
198.1029,-0.0001118549
198.2029,-0.0001118031
198.3029,-0.0001117532
198.4029,-0.0001116581
198.5029,-0.0001115705
198.6029,-0.0001115385
198.7029,-0.0001114452
198.8029,-0.0001113774
198.9029,-0.0001112861
199.0029,-0.0001112183
199.103,-0.0001111241
199.203,-0.000111061
199.303,-0.0001109904
199.403,-0.0001108811
199.503,-0.0001108105
199.603,-0.000110737
199.703,-0.0001106692
199.803,-0.0001106203
199.903,-0.0001105515
200.003,-0.0001104781
200.103,-0.0001103905
200.203,-0.0001103302
200.303,-0.0001102455
200.403,-0.0001101814
200.503,-0.0001100995
200.603,-0.0001099987
200.703,-0.0001099479
200.8031,-0.0001098942
200.9031,-0.0001097915
201.0031,-0.0001097473
201.1031,-0.0001096851
201.2031,-0.0001096032
201.3031,-0.0001095137
201.4031,-0.0001094431
201.5031,-0.0001093715
201.6031,-0.0001092877
201.7031,-0.0001092331
201.8031,-0.000109137
201.9031,-0.0001090645
202.0031,-0.0001090391
202.1031,-0.0001089647
202.2031,-0.0001088479
202.3031,-0.0001087942
202.4032,-0.0001087095
202.5032,-0.0001086455
202.6032,-0.0001085974
202.7032,-0.0001085061
202.8032,-0.0001084336
202.9032,-0.000108378
203.0032,-0.000108313
203.1032,-0.0001081944
203.2032,-0.0001081303
203.3032,-0.0001080851
203.4032,-0.0001080126
203.5032,-0.0001079156
203.6032,-0.000107877
203.7032,-0.0001078017
203.8032,-0.0001077178
203.9032,-0.0001076397
204.0033,-0.0001075954
204.1033,-0.0001075342
204.2033,-0.0001074692
204.3033,-0.0001073619
204.4033,-0.0001073138
204.5033,-0.0001072941
204.6033,-0.00010715
204.7033,-0.0001070737
204.8033,-0.0001070812
204.9033,-0.0001069824
205.0033,-0.0001068797
205.1033,-0.0001068241
205.2033,-0.0001067724
205.3033,-0.0001066772
205.4033,-0.0001066377
205.5033,-0.0001065463
205.6033,-0.0001064578
205.7034,-0.0001064117
205.8034,-0.0001063523
205.9034,-0.0001062751
206.0034,-0.0001062139
206.1034,-0.000106164
206.2034,-0.0001060849
206.3034,-0.0001060133
206.4034,-0.0001059483
206.5034,-0.0001059022
206.6034,-0.0001058692
206.7034,-0.0001058278
206.8034,-0.0001057073
206.9034,-0.0001056319
207.0034,-0.0001055763
207.1034,-0.0001054765
207.2034,-0.0001053805
207.3035,-0.0001053758
207.4035,-0.0001053042
207.5035,-0.0001051771
207.6035,-0.000105161
207.7035,-0.0001051177
207.8035,-0.0001050716
207.9035,-0.0001049765
208.0035,-0.0001049878
208.1035,-0.0001049661
208.2035,-0.0001048239
208.3035,-0.0001047269
208.4035,-0.0001047024
208.5035,-0.0001046139
208.6035,-0.0001045499
208.7035,-0.0001044952
208.8035,-0.0001044048
208.9035,-0.0001043465
209.0036,-0.0001042984
209.1036,-0.0001042316
209.2036,-0.0001041892
209.3036,-0.000104095
209.4036,-0.00010403
209.5036,-0.0001039999
209.6036,-0.0001039293
209.7036,-0.0001038351
209.8036,-0.0001037861
209.9036,-0.000103723
210.0036,-0.0001036693
210.1036,-0.0001036138
210.2036,-0.0001035318
210.3036,-0.0001034509
210.4036,-0.0001034047
210.5036,-0.0001033529
210.6037,-0.0001032625
210.7037,-0.0001032032
210.8037,-0.0001031231
210.9037,-0.0001030685
211.0037,-0.0001030196
211.1037,-0.0001029602
211.2037,-0.0001028839
211.3037,-0.0001028256
211.4037,-0.0001027427
211.5037,-0.000102673
211.6037,-0.0001026221
211.7037,-0.0001025751
211.8037,-0.0001025007
211.9037,-0.0001024216
212.0037,-0.0001023782
212.1037,-0.0001023227
212.2038,-0.0001022389
212.3038,-0.0001021918
212.4038,-0.0001021315
212.5038,-0.000102059
212.6038,-0.00010201
212.7038,-0.0001019281
212.8038,-0.0001018499
212.9038,-0.0001018
213.0038,-0.0001017407
213.1038,-0.0001016587
213.2038,-0.0001015938
213.3038,-0.000101526
213.4038,-0.0001014666
213.5038,-0.0001014148
213.6038,-0.0001013678
213.7038,-0.0001012905
213.8038,-0.00010125
213.9039,-0.0001011869
214.0039,-0.0001011088
214.1039,-0.0001010768
214.2039,-0.0001010089
214.3039,-0.00010096
214.4039,-0.0001008781
214.5039,-0.0001008781
214.6039,-0.0001007688
214.7039,-0.0001006737
214.8039,-0.0001006511
214.9039,-0.0001005955
215.0039,-0.0001004891
215.1039,-0.0001004288
215.2039,-0.0001003921
215.3039,-0.0001003545
215.4039,-0.0001002725
215.504,-0.0001001925
215.604,-0.0001001539
215.704,-0.0001000832
215.804,-0.0001000296
215.904,-9.993726E-05
216.004,-9.988453E-05
216.104,-9.986287E-05
216.204,-9.976493E-05
216.304,-9.970466E-05
216.404,-9.969901E-05
216.504,-9.967452E-05
216.604,-9.95681E-05
216.704,-9.948241E-05
216.804,-9.943155E-05
216.904,-9.937128E-05
217.004,-9.932702E-05
217.104,-9.923944E-05
217.2041,-9.918388E-05
217.3041,-9.911795E-05
217.4041,-9.905203E-05
217.5041,-9.899082E-05
217.6041,-9.895127E-05
217.7041,-9.893997E-05
217.8041,-9.885144E-05
217.9041,-9.879118E-05
218.0041,-9.873937E-05
218.1041,-9.865745E-05
218.2041,-9.86066E-05
218.3041,-9.857364E-05
218.4041,-9.851807E-05
218.5041,-9.845309E-05
218.6041,-9.840601E-05
218.7041,-9.833067E-05
218.8042,-9.827982E-05
218.9042,-9.82299E-05
219.0042,-9.815269E-05
219.1042,-9.810936E-05
219.2042,-9.808488E-05
219.3042,-9.798317E-05
219.4042,-9.792195E-05
219.5042,-9.789936E-05
219.6042,-9.78438E-05
219.7042,-9.775904E-05
219.8042,-9.771666E-05
219.9042,-9.766392E-05
220.0042,-9.761872E-05
220.1042,-9.754244E-05
220.2042,-9.747652E-05
220.3042,-9.742943E-05
220.4043,-9.739082E-05
220.5043,-9.734186E-05
220.6043,-9.725238E-05
220.7043,-9.721378E-05
220.8043,-9.716104E-05
220.9043,-9.708099E-05
221.0043,-9.701319E-05
221.1043,-9.698117E-05
221.2043,-9.692467E-05
221.3043,-9.684745E-05
221.4043,-9.681071E-05
221.5043,-9.674291E-05
221.6043,-9.66864E-05
221.7043,-9.666381E-05
221.8043,-9.656963E-05
221.9043,-9.650371E-05
222.0043,-9.650371E-05
222.1044,-9.643874E-05
222.2044,-9.635492E-05
222.3044,-9.632101E-05
222.4044,-9.625415E-05
222.5044,-9.618163E-05
222.6044,-9.618823E-05
222.7044,-9.609406E-05
222.8044,-9.601966E-05
222.9044,-9.598105E-05
223.0044,-9.595468E-05
223.1044,-9.587181E-05
223.2044,-9.582943E-05
223.3044,-9.579082E-05
223.4044,-9.567404E-05
223.5044,-9.564485E-05
223.6044,-9.56166E-05
223.7045,-9.56053E-05
223.8045,-9.547628E-05
223.9045,-9.544426E-05
224.0045,-9.538965E-05
224.1045,-9.531713E-05
224.2045,-9.529171E-05
224.3045,-9.521166E-05
224.4045,-9.513726E-05
224.5045,-9.511748E-05
224.6045,-9.508075E-05
224.7045,-9.503555E-05
224.8045,-9.49508E-05
224.9045,-9.488488E-05
225.0045,-9.484062E-05
225.1045,-9.481802E-05
225.2045,-9.473985E-05
225.3046,-9.466356E-05
225.4046,-9.464096E-05
225.5046,-9.459953E-05
225.6046,-9.451007E-05
225.7046,-9.44658E-05
225.8046,-9.44385E-05
225.9046,-9.437257E-05
226.0046,-9.434621E-05
226.1046,-9.429629E-05
226.2046,-9.424356E-05
226.3046,-9.419271E-05
226.4046,-9.413431E-05
226.5046,-9.406745E-05
226.6046,-9.400248E-05
226.7046,-9.397517E-05
226.8046,-9.389888E-05
226.9046,-9.383014E-05
227.0047,-9.381601E-05
227.1047,-9.373597E-05
227.2047,-9.366533E-05
227.3047,-9.362766E-05
227.4047,-9.358435E-05
227.5047,-9.350524E-05
227.6047,-9.344968E-05
227.7047,-9.342236E-05
227.8047,-9.33282E-05
227.9047,-9.327357E-05
228.0047,-9.325474E-05
228.1047,-9.318505E-05
228.2047,-9.313796E-05
228.3047,-9.308523E-05
228.4047,-9.302401E-05
228.5047,-9.295244E-05
228.6048,-9.290724E-05
228.7048,-9.282061E-05
228.8048,-9.274338E-05
228.9048,-9.273019E-05
229.0048,-9.265485E-05
229.1048,-9.254656E-05
229.2048,-9.251171E-05
229.3048,-9.245049E-05
229.4048,-9.237516E-05
229.5048,-9.231583E-05
229.6048,-9.228382E-05
229.7048,-9.221977E-05
229.8048,-9.213502E-05
229.9048,-9.211618E-05
230.0048,-9.207946E-05
230.1048,-9.200129E-05
230.2048,-9.191183E-05
230.3049,-9.186193E-05
230.4049,-9.179882E-05
230.5049,-9.175551E-05
230.6049,-9.165756E-05
230.7049,-9.161989E-05
230.8049,-9.158129E-05
230.9049,-9.150124E-05
231.0049,-9.142778E-05
231.1049,-9.141554E-05
231.2049,-9.137221E-05
231.3049,-9.131948E-05
231.4049,-9.124509E-05
231.5049,-9.120459E-05
231.6049,-9.113584E-05
231.7049,-9.112548E-05
231.8049,-9.107464E-05
231.905,-9.09927E-05
232.005,-9.09588E-05
232.105,-9.092678E-05
232.205,-9.088064E-05
232.305,-9.083355E-05
232.405,-9.079304E-05
232.505,-9.071772E-05
232.605,-9.06744E-05
232.705,-9.064802E-05
232.805,-9.058116E-05
232.905,-9.050583E-05
233.005,-9.048605E-05
233.105,-9.041636E-05
233.205,-9.033631E-05
233.305,-9.032407E-05
233.405,-9.026945E-05
233.5051,-9.022802E-05
233.6051,-9.017904E-05
233.7051,-9.010371E-05
233.8051,-9.008581E-05
233.9051,-9.004249E-05
234.0051,-8.998505E-05
234.1051,-8.990971E-05
234.2051,-8.986732E-05
234.3051,-8.985038E-05
234.4051,-8.978917E-05
234.5051,-8.972607E-05
234.6051,-8.968275E-05
234.7051,-8.963096E-05
234.8051,-8.959423E-05
234.9051,-8.95754E-05
235.0051,-8.948499E-05
235.1051,-8.943225E-05
235.2052,-8.938704E-05
235.3052,-8.934749E-05
235.4052,-8.92844E-05
235.5052,-8.926556E-05
235.6052,-8.919494E-05
235.7052,-8.912807E-05
235.8052,-8.913466E-05
235.9052,-8.907157E-05
236.0052,-8.899906E-05
236.1052,-8.898869E-05
236.2052,-8.891524E-05
236.3052,-8.888322E-05
236.4052,-8.884462E-05
236.5052,-8.880883E-05
236.6052,-8.874007E-05
236.7052,-8.869488E-05
236.8053,-8.865814E-05
236.9053,-8.860635E-05
237.0053,-8.85555E-05
237.1053,-8.851595E-05
237.2053,-8.847827E-05
237.3053,-8.843779E-05
237.4053,-8.838975E-05
237.5053,-8.832289E-05
237.6053,-8.828428E-05
237.7053,-8.827863E-05
237.8053,-8.821083E-05
237.9053,-8.816092E-05
238.0053,-8.816092E-05
238.1053,-8.81449E-05
238.2053,-8.807428E-05
238.3053,-8.802531E-05
238.4053,-8.800364E-05
238.5054,-8.793866E-05
238.6054,-8.793113E-05
238.7054,-8.787274E-05
238.8054,-8.778799E-05
238.9054,-8.777763E-05
239.0054,-8.77522E-05
239.1054,-8.768911E-05
239.2054,-8.762696E-05
239.3054,-8.762884E-05
239.4054,-8.759494E-05
239.5054,-8.753749E-05
239.6054,-8.748193E-05
239.7054,-8.743861E-05
239.8054,-8.738587E-05
239.9054,-8.736514E-05
240.0054,-8.72785E-05
240.1055,-8.722954E-05
240.2055,-8.721071E-05
240.3055,-8.717681E-05
240.4055,-8.711842E-05
240.5055,-8.709582E-05
240.6055,-8.703366E-05
240.7055,-8.698658E-05
240.8055,-8.69781E-05
240.9055,-8.690558E-05
241.0055,-8.686321E-05
241.1055,-8.682648E-05
241.2055,-8.677656E-05
241.3055,-8.67323E-05
241.4055,-8.674173E-05
241.5055,-8.666261E-05
241.6055,-8.661836E-05
241.7056,-8.65788E-05
241.8056,-8.657786E-05
241.9056,-8.651288E-05
242.0056,-8.647239E-05
242.1056,-8.641683E-05
242.2056,-8.640082E-05
242.3056,-8.638763E-05
242.4056,-8.63801E-05
242.5056,-8.632925E-05
242.6056,-8.62652E-05
242.7056,-8.624638E-05
242.8056,-8.618893E-05
242.9056,-8.613619E-05
243.0056,-8.612395E-05
243.1056,-8.607969E-05
243.2056,-8.601565E-05
243.3056,-8.600247E-05
243.4057,-8.596197E-05
243.5057,-8.592053E-05
243.6057,-8.587816E-05
243.7057,-8.584707E-05
243.8057,-8.586309E-05
243.9057,-8.580093E-05
244.0057,-8.578681E-05
244.1057,-8.57708E-05
244.2057,-8.573313E-05
244.3057,-8.566344E-05
244.4057,-8.561071E-05
244.5057,-8.558622E-05
244.6057,-8.555138E-05
244.7057,-8.548545E-05
244.8057,-8.545531E-05
244.9057,-8.545249E-05
245.0058,-8.534324E-05
245.1058,-8.528957E-05
245.2058,-8.532537E-05
245.3058,-8.529523E-05
245.4058,-8.522554E-05
245.5058,-8.519446E-05
245.6058,-8.515585E-05
245.7058,-8.512384E-05
245.8058,-8.511724E-05
245.9058,-8.502966E-05
246.0058,-8.49967E-05
246.1058,-8.500235E-05
246.2058,-8.49628E-05
246.3058,-8.491005E-05
246.4058,-8.486109E-05
246.5058,-8.484414E-05
246.6059,-8.481307E-05
246.7059,-8.474808E-05
246.8059,-8.46991E-05
246.9059,-8.465202E-05
247.0059,-8.462284E-05
247.1059,-8.460023E-05
247.2059,-8.454089E-05
247.3059,-8.449287E-05
247.4059,-8.444201E-05
247.5059,-8.441094E-05
247.6059,-8.437327E-05
247.7059,-8.43469E-05
247.8059,-8.430547E-05
247.9059,-8.423483E-05
248.0059,-8.420282E-05
248.1059,-8.419433E-05
248.2059,-8.412089E-05
248.306,-8.408793E-05
248.406,-8.402766E-05
248.506,-8.400223E-05
248.606,-8.401353E-05
248.706,-8.394573E-05
248.806,-8.387885E-05
248.906,-8.384779E-05
249.006,-8.383743E-05
249.106,-8.378469E-05
249.206,-8.372442E-05
249.306,-8.371499E-05
249.406,-8.36406E-05
249.506,-8.359446E-05
249.606,-8.358692E-05
249.706,-8.351347E-05
249.806,-8.34984E-05
249.9061,-8.347109E-05
250.0061,-8.343436E-05
250.1061,-8.337221E-05
250.2061,-8.337126E-05
250.3061,-8.32997E-05
250.4061,-8.323942E-05
250.5061,-8.325449E-05
250.6061,-8.319139E-05
250.7061,-8.311982E-05
250.8061,-8.310853E-05
250.9061,-8.305955E-05
251.0061,-8.299458E-05
251.1061,-8.29748E-05
251.2061,-8.29343E-05
251.3061,-8.289475E-05
251.4061,-8.284861E-05
251.5061,-8.283448E-05
251.6062,-8.277044E-05
251.7062,-8.272335E-05
251.8062,-8.272335E-05
251.9062,-8.266779E-05
252.0062,-8.262824E-05
252.1062,-8.260847E-05
252.2062,-8.256231E-05
252.3062,-8.253125E-05
252.4062,-8.249545E-05
252.5062,-8.245968E-05
252.6062,-8.242294E-05
252.7062,-8.240694E-05
252.8062,-8.235514E-05
252.9062,-8.229205E-05
253.0062,-8.228546E-05
253.1062,-8.222141E-05
253.2063,-8.222235E-05
253.3063,-8.219222E-05
253.4063,-8.214136E-05
253.5063,-8.208486E-05
253.6063,-8.208486E-05
253.7063,-8.204248E-05
253.8063,-8.201235E-05
253.9063,-8.197374E-05
254.0063,-8.190782E-05
254.1063,-8.187768E-05
254.2063,-8.188333E-05
254.3063,-8.18466E-05
254.4063,-8.177409E-05
254.5063,-8.17515E-05
254.6063,-8.173547E-05
254.7063,-8.167804E-05
254.8064,-8.165355E-05
254.9064,-8.161777E-05
255.0064,-8.158575E-05
255.1064,-8.153772E-05
255.2064,-8.149533E-05
255.3064,-8.146144E-05
255.4064,-8.144919E-05
255.5064,-8.144071E-05
255.6064,-8.137856E-05
255.7064,-8.133808E-05
255.8064,-8.130794E-05
255.9064,-8.127214E-05
256.0064,-8.12326E-05
256.1064,-8.121093E-05
256.2064,-8.114407E-05
256.3064,-8.11064E-05
256.4064,-8.112524E-05
256.5064,-8.106779E-05
256.6064,-8.100941E-05
256.7065,-8.097551E-05
256.8065,-8.09303E-05
256.9065,-8.09077E-05
257.0065,-8.090299E-05
257.1065,-8.084271E-05
257.2065,-8.076643E-05
257.3065,-8.077869E-05
257.4065,-8.073442E-05
257.5065,-8.069957E-05
257.6065,-8.066002E-05
257.7065,-8.063931E-05
257.8065,-8.060164E-05
257.9065,-8.05649E-05
258.0065,-8.052254E-05
258.1065,-8.051877E-05
258.2065,-8.047168E-05
258.3065,-8.043118E-05
258.4066,-8.039163E-05
258.5066,-8.035207E-05
258.6066,-8.03323E-05
258.7066,-8.030028E-05
258.8066,-8.023625E-05
258.9066,-8.025602E-05
259.0066,-8.018822E-05
259.1066,-8.014583E-05
259.2066,-8.014018E-05
259.3066,-8.010722E-05
259.4066,-8.004508E-05
259.5066,-8.002153E-05
259.6066,-8.001305E-05
259.7066,-7.996785E-05
259.8066,-7.991229E-05
259.9066,-7.988403E-05
260.0067,-7.986708E-05
260.1067,-7.980399E-05
260.2067,-7.979457E-05
260.3067,-7.97456E-05
260.4067,-7.973242E-05
260.5067,-7.9707E-05
260.6067,-7.964767E-05
260.7067,-7.961565E-05
260.8067,-7.964389E-05
260.9067,-7.959587E-05
261.0067,-7.953277E-05
261.1067,-7.953749E-05
261.2067,-7.951488E-05
261.3067,-7.944707E-05
261.4067,-7.942353E-05
261.5067,-7.937833E-05
261.6068,-7.934631E-05
261.7068,-7.935572E-05
261.8068,-7.92964E-05
261.9068,-7.92559E-05
262.0068,-7.924365E-05
262.1068,-7.922671E-05
262.2068,-7.914667E-05
262.3068,-7.912029E-05
262.4068,-7.911371E-05
262.5068,-7.903836E-05
262.6068,-7.901576E-05
262.7068,-7.899598E-05
262.8068,-7.895361E-05
262.9068,-7.891594E-05
263.0068,-7.891405E-05
263.1068,-7.888015E-05
263.2068,-7.88293E-05
263.3069,-7.878974E-05
263.4069,-7.876808E-05
263.5069,-7.872947E-05
263.6069,-7.873042E-05
263.7069,-7.868333E-05
263.8069,-7.862588E-05
263.9069,-7.861929E-05
264.0069,-7.860705E-05
264.1069,-7.855243E-05
264.2069,-7.850911E-05
264.3069,-7.848086E-05
264.4069,-7.844131E-05
264.5069,-7.844695E-05
264.6069,-7.840552E-05
264.7069,-7.834901E-05
264.8069,-7.832924E-05
264.907,-7.830287E-05
265.007,-7.826614E-05
265.107,-7.820022E-05
265.207,-7.81861E-05
265.307,-7.813807E-05
265.407,-7.813619E-05
265.507,-7.810228E-05
265.607,-7.804295E-05
265.707,-7.803542E-05
265.807,-7.803824E-05
265.907,-7.795914E-05
266.007,-7.791299E-05
266.107,-7.790546E-05
266.207,-7.789322E-05
266.307,-7.786496E-05
266.407,-7.781223E-05
266.507,-7.778021E-05
266.6071,-7.774254E-05
266.7071,-7.773783E-05
266.8071,-7.769357E-05
266.9071,-7.765214E-05
267.0071,-7.7638E-05
267.1071,-7.759751E-05
267.2071,-7.755231E-05
267.3071,-7.75589E-05
267.4071,-7.753159E-05
267.5071,-7.749204E-05
267.6071,-7.74572E-05
267.7071,-7.742235E-05
267.8071,-7.738656E-05
267.9071,-7.738468E-05
268.0071,-7.735925E-05
268.1071,-7.730746E-05
268.2072,-7.72792E-05
268.3072,-7.726037E-05
268.4072,-7.719822E-05
268.5072,-7.718032E-05
268.6072,-7.715773E-05
268.7072,-7.709557E-05
268.8072,-7.705695E-05
268.9072,-7.705037E-05
269.0072,-7.701364E-05
269.1072,-7.69722E-05
269.2072,-7.695337E-05
269.3072,-7.689404E-05
269.4072,-7.687238E-05
269.5072,-7.686767E-05
269.6072,-7.681399E-05
269.7072,-7.67895E-05
269.8073,-7.678009E-05
269.9073,-7.674901E-05
270.0073,-7.669722E-05
270.1073,-7.666897E-05
270.2073,-7.663506E-05
270.3073,-7.661717E-05
270.4073,-7.659645E-05
270.5073,-7.655219E-05
270.6073,-7.656255E-05
270.7073,-7.650322E-05
270.8073,-7.647779E-05
270.9073,-7.644389E-05
271.0073,-7.640998E-05
271.1073,-7.63695E-05
271.2073,-7.633842E-05
271.3073,-7.628945E-05
271.4073,-7.62659E-05
271.5074,-7.624801E-05
271.6074,-7.620658E-05
271.7074,-7.620658E-05
271.8074,-7.616137E-05
271.9074,-7.612088E-05
272.0074,-7.609545E-05
272.1074,-7.605872E-05
272.2074,-7.603612E-05
272.3074,-7.601446E-05
272.4074,-7.597868E-05
272.5074,-7.59297E-05
272.6074,-7.593723E-05
272.7074,-7.589957E-05
272.8074,-7.583836E-05
272.9074,-7.583177E-05
273.0074,-7.580916E-05
273.1075,-7.579786E-05
273.2075,-7.576679E-05
273.3075,-7.570934E-05
273.4075,-7.570558E-05
273.5075,-7.567168E-05
273.6075,-7.562082E-05
273.7075,-7.560669E-05
273.8075,-7.55775E-05
273.9075,-7.555207E-05
274.0075,-7.551535E-05
274.1075,-7.547768E-05
274.2075,-7.547203E-05
274.3075,-7.542682E-05
274.4075,-7.539387E-05
274.5075,-7.537597E-05
274.6075,-7.537032E-05
274.7076,-7.531382E-05
274.8076,-7.529686E-05
274.9076,-7.523188E-05
275.0076,-7.519986E-05
275.1076,-7.521681E-05
275.2076,-7.516125E-05
275.3076,-7.510946E-05
275.4076,-7.509722E-05
275.5076,-7.507179E-05
275.6076,-7.503694E-05
275.7076,-7.499833E-05
275.8076,-7.49682E-05
275.9076,-7.493712E-05
276.0076,-7.4939E-05
276.1076,-7.487497E-05
276.2076,-7.482977E-05
276.3076,-7.484294E-05
276.4077,-7.483541E-05
276.5077,-7.477797E-05
276.6077,-7.475819E-05
276.7077,-7.473842E-05
276.8077,-7.468568E-05
276.9077,-7.465555E-05
277.0077,-7.463859E-05
277.1077,-7.462259E-05
277.2077,-7.457079E-05
277.3077,-7.45576E-05
277.4077,-7.451711E-05
277.5077,-7.448886E-05
277.6077,-7.445872E-05
277.7077,-7.442011E-05
277.8077,-7.44559E-05
277.9077,-7.439656E-05
278.0078,-7.434384E-05
278.1078,-7.43297E-05
278.2078,-7.430616E-05
278.3078,-7.428073E-05
278.4078,-7.422706E-05
278.5078,-7.420917E-05
278.6078,-7.418374E-05
278.7078,-7.414701E-05
278.8078,-7.410934E-05
278.9078,-7.409899E-05
279.0078,-7.40566E-05
279.1078,-7.403965E-05
279.2078,-7.400575E-05
279.3078,-7.39549E-05
279.4078,-7.393795E-05
279.5078,-7.392288E-05
279.6078,-7.38918E-05
279.7079,-7.383718E-05
279.8079,-7.383718E-05
279.9079,-7.382305E-05
280.0079,-7.377126E-05
280.1079,-7.374677E-05
280.2079,-7.370439E-05
280.3079,-7.366956E-05
280.4079,-7.364412E-05
280.5079,-7.362058E-05
280.6079,-7.358669E-05
280.7079,-7.35782E-05
280.8079,-7.352453E-05
280.9079,-7.351417E-05
281.0079,-7.350098E-05
281.1079,-7.348403E-05
281.2079,-7.343882E-05
281.308,-7.340775E-05
281.408,-7.339739E-05
281.508,-7.335784E-05
281.608,-7.331451E-05
281.708,-7.332017E-05
281.808,-7.324578E-05
281.908,-7.323164E-05
282.008,-7.322976E-05
282.108,-7.32081E-05
282.208,-7.316573E-05
282.308,-7.313841E-05
282.408,-7.310357E-05
282.508,-7.306496E-05
282.608,-7.308285E-05
282.708,-7.304896E-05
282.808,-7.299998E-05
282.9081,-7.296608E-05
283.0081,-7.293783E-05
283.1081,-7.291711E-05
283.2081,-7.290675E-05
283.3081,-7.284836E-05
283.4081,-7.280599E-05
283.5081,-7.279751E-05
283.6081,-7.278621E-05
283.7081,-7.274478E-05
283.8081,-7.272405E-05
283.9081,-7.269863E-05
284.0081,-7.266754E-05
284.1081,-7.265531E-05
284.2081,-7.261104E-05
284.3081,-7.258845E-05
284.4081,-7.255172E-05
284.5081,-7.255266E-05
284.6082,-7.251781E-05
284.7082,-7.249804E-05
284.8082,-7.248297E-05
284.9082,-7.241046E-05
285.0082,-7.239162E-05
285.1082,-7.237656E-05
285.2082,-7.239351E-05
285.3082,-7.231534E-05
285.4082,-7.230027E-05
285.5082,-7.228238E-05
285.6082,-7.224377E-05
285.7082,-7.222023E-05
285.8082,-7.223341E-05
285.9082,-7.216373E-05
286.0082,-7.212229E-05
286.1082,-7.211757E-05
286.2083,-7.210911E-05
286.3083,-7.209498E-05
286.4083,-7.205731E-05
286.5083,-7.204601E-05
286.6083,-7.199421E-05
286.7083,-7.199515E-05
286.8083,-7.195749E-05
286.9083,-7.190758E-05
287.0083,-7.191793E-05
287.1083,-7.187744E-05
287.2083,-7.183883E-05
287.3083,-7.183977E-05
287.4083,-7.179738E-05
287.5083,-7.178327E-05
287.6083,-7.175596E-05
287.7083,-7.17343E-05
287.8083,-7.170228E-05
287.9084,-7.169379E-05
288.0084,-7.166178E-05
288.1084,-7.16194E-05
288.2084,-7.16147E-05
288.3084,-7.159868E-05
288.4084,-7.156667E-05
288.5084,-7.155253E-05
288.6084,-7.151205E-05
288.7084,-7.146872E-05
288.8084,-7.146684E-05
288.9084,-7.143859E-05
289.0084,-7.142352E-05
289.1084,-7.141034E-05
289.2084,-7.139056E-05
289.3084,-7.138679E-05
289.4084,-7.132746E-05
289.5085,-7.132276E-05
289.6085,-7.128038E-05
289.7085,-7.12719E-05
289.8085,-7.123611E-05
289.9085,-7.119091E-05
290.0085,-7.12154E-05
290.1085,-7.118432E-05
290.2085,-7.112688E-05
290.3085,-7.110804E-05
290.4085,-7.11184E-05
290.5085,-7.106848E-05
290.6085,-7.101104E-05
290.7085,-7.101387E-05
290.8085,-7.098279E-05
290.9085,-7.09536E-05
291.0085,-7.090557E-05
291.1086,-7.091121E-05
291.2086,-7.088485E-05
291.3086,-7.085377E-05
291.4086,-7.083212E-05
291.5086,-7.079162E-05
291.6086,-7.076902E-05
291.7086,-7.074265E-05
291.8086,-7.0737E-05
291.9086,-7.069839E-05
292.0086,-7.068615E-05
292.1086,-7.065601E-05
292.2086,-7.06127E-05
292.3086,-7.063717E-05
292.4086,-7.057974E-05
292.5086,-7.055054E-05
292.6086,-7.052512E-05
292.7086,-7.05317E-05
292.8087,-7.049215E-05
292.9087,-7.044883E-05
293.0087,-7.042246E-05
293.1087,-7.042434E-05
293.2087,-7.041964E-05
293.3087,-7.038102E-05
293.4087,-7.033489E-05
293.5087,-7.031416E-05
293.6087,-7.032641E-05
293.7087,-7.028214E-05
293.8087,-7.024354E-05
293.9087,-7.024259E-05
294.0087,-7.020775E-05
294.1087,-7.017196E-05
294.2087,-7.016631E-05
294.3087,-7.0139E-05
294.4088,-7.010699E-05
294.5088,-7.008532E-05
294.6088,-7.006084E-05
294.7088,-7.002223E-05
294.8088,-7.004577E-05
294.9088,-7.002694E-05
295.0088,-6.996854E-05
295.1088,-6.997137E-05
295.2088,-6.999209E-05
295.3088,-6.990827E-05
295.4088,-6.990168E-05
295.5088,-6.989415E-05
295.6088,-6.982352E-05
295.7088,-6.981316E-05
295.8088,-6.979056E-05
295.9088,-6.976325E-05
296.0089,-6.973123E-05
296.1089,-6.972934E-05
296.2089,-6.968226E-05
296.3089,-6.966154E-05
296.4089,-6.964459E-05
296.5089,-6.960504E-05
296.6089,-6.959562E-05
296.7089,-6.958902E-05
296.8089,-6.955984E-05
296.9089,-6.952311E-05
297.0089,-6.951745E-05
297.1089,-6.94892E-05
297.2089,-6.945248E-05
297.3089,-6.947225E-05
297.4089,-6.94101E-05
297.5089,-6.937243E-05
297.6089,-6.936583E-05
297.709,-6.937055E-05
297.809,-6.929239E-05
297.909,-6.92679E-05
298.009,-6.929332E-05
298.109,-6.927073E-05
298.209,-6.921893E-05
298.309,-6.920104E-05
298.409,-6.917089E-05
298.509,-6.916242E-05
298.609,-6.916713E-05
298.709,-6.910592E-05
298.809,-6.907296E-05
298.909,-6.908709E-05
299.009,-6.905412E-05
299.109,-6.901928E-05
299.209,-6.900234E-05
299.3091,-6.898161E-05
299.4091,-6.894018E-05
299.5091,-6.892888E-05
299.6091,-6.891474E-05
299.7091,-6.888744E-05
299.8091,-6.886578E-05
299.9091,-6.883093E-05
300.0091,-6.881775E-05
300.1091,-6.879045E-05
300.2091,-6.878762E-05
300.3091,-6.874712E-05
300.4091,-6.873205E-05
300.5091,-6.868308E-05
300.6091,-6.866708E-05
300.7091,-6.867838E-05
300.8091,-6.863882E-05
300.9091,-6.858421E-05
301.0092,-6.859268E-05
301.1092,-6.858703E-05
301.2092,-6.855217E-05
301.3092,-6.851545E-05
301.4092,-6.854182E-05
301.5092,-6.851545E-05
301.6092,-6.84712E-05
301.7092,-6.843823E-05
301.8092,-6.840622E-05
301.9092,-6.837702E-05
302.0092,-6.838173E-05
302.1092,-6.834029E-05
302.2092,-6.830921E-05
302.3092,-6.829226E-05
302.4092,-6.824989E-05
302.5092,-6.82207E-05
302.6093,-6.823859E-05
302.7093,-6.821693E-05
302.8093,-6.817266E-05
302.9093,-6.816137E-05
303.0093,-6.813877E-05
303.1093,-6.811428E-05
303.2093,-6.809356E-05
303.3093,-6.806248E-05
303.4093,-6.8038E-05
303.5093,-6.803706E-05
303.6093,-6.80267E-05
303.7093,-6.798431E-05
303.8093,-6.798526E-05
303.9093,-6.798808E-05
304.0093,-6.794854E-05
304.1093,-6.787884E-05
304.2094,-6.787884E-05
304.3094,-6.785624E-05
304.4094,-6.780633E-05
304.5094,-6.776677E-05
304.6094,-6.776018E-05
304.7094,-6.773664E-05
304.8094,-6.773382E-05
304.9094,-6.76905E-05
305.0094,-6.766507E-05
305.1094,-6.764341E-05
305.2094,-6.762835E-05
305.3094,-6.757655E-05
305.4094,-6.756336E-05
305.5094,-6.755959E-05
305.6094,-6.752663E-05
305.7094,-6.750497E-05
305.8094,-6.751157E-05
305.9095,-6.748803E-05
306.0095,-6.745412E-05
306.1095,-6.745318E-05
306.2095,-6.743435E-05
306.3095,-6.739385E-05
306.4095,-6.740704E-05
306.5095,-6.732887E-05
306.6095,-6.731946E-05
306.7095,-6.732417E-05
306.8095,-6.729121E-05
306.9095,-6.723376E-05
307.0095,-6.721963E-05
307.1095,-6.723847E-05
307.2095,-6.720174E-05
307.3095,-6.71716E-05
307.4095,-6.712358E-05
307.5096,-6.711604E-05
307.6096,-6.713205E-05
307.7096,-6.709249E-05
307.8096,-6.704165E-05
307.9096,-6.702375E-05
308.0096,-6.701622E-05
308.1096,-6.698608E-05
308.2096,-6.697948E-05
308.3096,-6.692392E-05
308.4096,-6.689473E-05
308.5096,-6.690039E-05
308.6096,-6.689002E-05
308.7096,-6.685048E-05
308.8096,-6.683446E-05
308.9096,-6.682505E-05
309.0096,-6.676855E-05
309.1096,-6.675725E-05
309.2097,-6.67563E-05
309.3097,-6.673559E-05
309.4097,-6.66998E-05
309.5097,-6.668661E-05
309.6097,-6.668567E-05
309.7097,-6.664424E-05
309.8097,-6.663952E-05
309.9097,-6.658585E-05
310.0097,-6.656795E-05
310.1097,-6.658774E-05
310.2097,-6.654912E-05
310.3097,-6.651616E-05
310.4097,-6.650203E-05
310.5097,-6.650393E-05
310.6097,-6.647661E-05
310.7097,-6.643893E-05
310.8098,-6.642105E-05
310.9098,-6.638055E-05
311.0098,-6.639185E-05
311.1098,-6.637302E-05
311.2098,-6.633346E-05
311.3098,-6.631934E-05
311.4098,-6.631651E-05
311.5098,-6.628261E-05
311.6098,-6.625059E-05
311.7098,-6.624212E-05
311.8098,-6.62148E-05
311.9098,-6.61922E-05
312.0098,-6.619032E-05
312.1098,-6.614512E-05
312.2098,-6.610462E-05
312.3098,-6.612722E-05
312.4099,-6.609709E-05
312.5099,-6.605565E-05
312.6099,-6.602457E-05
312.7099,-6.600103E-05
312.8099,-6.600856E-05
312.9099,-6.59935E-05
313.0099,-6.5953E-05
313.1099,-6.592005E-05
313.2099,-6.593134E-05
313.3099,-6.589932E-05
313.4099,-6.587107E-05
313.5099,-6.584753E-05
313.6099,-6.585412E-05
313.7099,-6.584188E-05
313.8099,-6.580704E-05
313.9099,-6.57656E-05
314.0099,-6.575713E-05
314.11,-6.573452E-05
314.21,-6.569592E-05
314.31,-6.567519E-05
314.41,-6.567331E-05
314.51,-6.563658E-05
314.61,-6.56168E-05
314.71,-6.559514E-05
314.81,-6.558102E-05
314.91,-6.551509E-05
315.01,-6.551698E-05
315.11,-6.555089E-05
315.21,-6.552264E-05
315.31,-6.544353E-05
315.41,-6.546519E-05
315.51,-6.545389E-05
315.61,-6.540303E-05
315.7101,-6.540586E-05
315.8101,-6.538232E-05
315.9101,-6.532676E-05
316.0101,-6.53277E-05
316.1101,-6.532298E-05
316.2101,-6.530416E-05
316.3101,-6.526084E-05
316.4101,-6.524859E-05
316.5101,-6.525235E-05
316.6101,-6.522034E-05
316.7101,-6.519115E-05
316.8101,-6.516478E-05
316.9101,-6.51563E-05
317.0101,-6.514876E-05
317.1101,-6.509697E-05
317.2101,-6.508849E-05
317.3102,-6.505553E-05
317.4102,-6.501787E-05
317.5102,-6.502352E-05
317.6102,-6.50254E-05
317.7102,-6.498867E-05
317.8102,-6.494723E-05
317.9102,-6.496701E-05
318.0102,-6.4935E-05
318.1102,-6.490486E-05
318.2102,-6.487849E-05
318.3102,-6.487567E-05
318.4102,-6.487755E-05
318.5102,-6.485965E-05
318.6102,-6.481068E-05
318.7102,-6.480316E-05
318.8102,-6.47749E-05
318.9102,-6.475041E-05
319.0103,-6.47071E-05
319.1103,-6.472121E-05
319.2103,-6.469579E-05
319.3103,-6.465153E-05
319.4103,-6.46553E-05
319.5103,-6.465153E-05
319.6103,-6.458467E-05
319.7103,-6.456584E-05
319.8103,-6.459314E-05
319.9103,-6.457902E-05
320.0103,-6.45357E-05
320.1103,-6.452157E-05
320.2103,-6.450085E-05
320.3103,-6.449426E-05
320.4103,-6.447919E-05
320.5103,-6.442646E-05
320.6104,-6.438125E-05
320.7104,-6.439255E-05
320.8104,-6.436901E-05
320.9104,-6.431439E-05
321.0104,-6.434547E-05
321.1104,-6.432381E-05
321.2104,-6.428237E-05
321.3104,-6.427296E-05
321.4104,-6.425789E-05
321.5104,-6.423057E-05
321.6104,-6.420704E-05
321.7104,-6.416936E-05
321.8104,-6.417972E-05
321.9104,-6.413264E-05
322.0104,-6.412699E-05
322.1104,-6.41025E-05
322.2104,-6.40978E-05
322.3105,-6.406201E-05
322.4105,-6.402904E-05
322.5105,-6.402151E-05
322.6105,-6.402811E-05
322.7105,-6.398291E-05
322.8105,-6.394806E-05
322.9105,-6.398572E-05
323.0105,-6.395936E-05
323.1105,-6.389156E-05
323.2105,-6.388214E-05
323.3105,-6.387178E-05
323.4105,-6.385295E-05
323.5105,-6.38341E-05
323.6105,-6.382845E-05
323.7105,-6.379926E-05
323.8105,-6.377854E-05
323.9106,-6.375689E-05
324.0106,-6.373805E-05
324.1106,-6.373523E-05
324.2106,-6.372676E-05
324.3106,-6.36872E-05
324.4106,-6.366271E-05
324.5106,-6.364576E-05
324.6106,-6.362975E-05
324.7106,-6.36128E-05
324.8106,-6.362316E-05
324.9106,-6.357795E-05
325.0106,-6.354499E-05
325.1106,-6.354123E-05
325.2106,-6.351204E-05
325.3106,-6.349791E-05
325.4106,-6.347908E-05
325.5107,-6.346682E-05
325.6107,-6.344612E-05
325.7107,-6.34301E-05
325.8107,-6.342634E-05
325.9107,-6.338019E-05
326.0107,-6.3351E-05
326.1107,-6.334629E-05
326.2107,-6.332745E-05
326.3107,-6.331992E-05
326.4107,-6.329261E-05
326.5107,-6.327001E-05
326.6107,-6.325683E-05
326.7107,-6.3254E-05
326.8107,-6.320315E-05
326.9107,-6.318997E-05
327.0107,-6.319468E-05
327.1107,-6.316454E-05
327.2108,-6.314194E-05
327.3108,-6.31231E-05
327.4108,-6.311934E-05
327.5108,-6.308261E-05
327.6108,-6.306471E-05
327.7108,-6.302044E-05
327.8108,-6.300633E-05
327.9108,-6.304494E-05
328.0108,-6.299032E-05
328.1108,-6.296489E-05
328.2108,-6.294982E-05
328.3108,-6.293569E-05
328.4108,-6.292816E-05
328.5108,-6.289615E-05
328.6108,-6.287448E-05
328.7108,-6.283211E-05
328.8109,-6.285941E-05
328.9109,-6.283964E-05
329.0109,-6.278408E-05
329.1109,-6.277466E-05
329.2109,-6.278314E-05
329.3109,-6.274736E-05
329.4109,-6.270309E-05
329.5109,-6.267954E-05
329.6109,-6.268048E-05
329.7109,-6.269273E-05
329.8109,-6.265883E-05
329.9109,-6.259573E-05
330.0109,-6.259573E-05
330.1109,-6.262209E-05
330.2109,-6.257313E-05
330.3109,-6.252322E-05
330.4109,-6.250156E-05
330.511,-6.249497E-05
330.611,-6.250532E-05
330.711,-6.246765E-05
330.811,-6.243376E-05
330.911,-6.243281E-05
331.011,-6.243376E-05
331.111,-6.237537E-05
331.211,-6.235464E-05
331.311,-6.236124E-05
331.411,-6.235841E-05
331.511,-6.231698E-05
331.611,-6.230097E-05
331.711,-6.226519E-05
331.811,-6.2252E-05
331.911,-6.226519E-05
332.011,-6.223882E-05
332.1111,-6.219738E-05
332.2111,-6.218984E-05
332.3111,-6.216536E-05
332.4111,-6.2155E-05
332.5111,-6.218043E-05
332.6111,-6.213428E-05
332.7111,-6.208061E-05
332.8111,-6.208155E-05
332.9111,-6.207589E-05
333.0111,-6.205894E-05
333.1111,-6.201845E-05
333.2111,-6.199679E-05
333.3111,-6.198738E-05
333.4111,-6.196759E-05
333.5111,-6.197325E-05
333.6111,-6.191015E-05
333.7112,-6.19045E-05
333.8112,-6.19158E-05
333.9112,-6.188661E-05
334.0112,-6.184705E-05
334.1112,-6.185177E-05
334.2112,-6.183011E-05
334.3112,-6.180468E-05
334.4112,-6.180185E-05
334.5112,-6.176889E-05
334.6112,-6.174817E-05
334.7112,-6.172934E-05
334.8112,-6.17058E-05
334.9112,-6.170862E-05
335.0112,-6.168319E-05
335.1112,-6.162763E-05
335.2112,-6.162481E-05
335.3112,-6.161633E-05
335.4113,-6.160409E-05
335.5113,-6.158996E-05
335.6113,-6.157489E-05
335.7113,-6.153063E-05
335.8113,-6.150615E-05
335.9113,-6.153063E-05
336.0113,-6.152028E-05
336.1113,-6.145529E-05
336.2113,-6.143928E-05
336.3113,-6.14666E-05
336.4113,-6.14374E-05
336.5113,-6.141103E-05
336.6113,-6.140821E-05
336.7113,-6.140256E-05
336.8113,-6.138843E-05
336.9113,-6.134417E-05
337.0114,-6.134888E-05
337.1114,-6.13244E-05
337.2114,-6.131121E-05
337.3114,-6.127825E-05
337.4114,-6.126412E-05
337.5114,-6.126789E-05
337.6114,-6.12095E-05
337.7114,-6.118973E-05
337.8114,-6.118973E-05
337.9114,-6.117843E-05
338.0114,-6.116524E-05
338.1114,-6.11417E-05
338.2114,-6.112569E-05
338.3114,-6.108425E-05
338.4114,-6.108802E-05
338.5114,-6.109461E-05
338.6115,-6.105506E-05
338.7115,-6.103623E-05
338.8115,-6.102304E-05
338.9115,-6.101739E-05
339.0115,-6.099573E-05
339.1115,-6.097972E-05
339.2115,-6.095147E-05
339.3115,-6.092981E-05
339.4115,-6.094865E-05
339.5115,-6.092698E-05
339.6115,-6.090344E-05
339.7115,-6.09072E-05
339.8115,-6.083469E-05
339.9115,-6.083187E-05
340.0115,-6.086577E-05
340.1115,-6.084223E-05
340.2115,-6.078573E-05
340.3116,-6.077254E-05
340.4116,-6.077913E-05
340.5116,-6.073864E-05
340.6116,-6.072922E-05
340.7116,-6.07085E-05
340.8116,-6.068401E-05
340.9116,-6.070473E-05
341.0116,-6.068496E-05
341.1116,-6.063505E-05
341.2116,-6.059832E-05
341.3116,-6.061527E-05
341.4116,-6.059926E-05
341.5116,-6.056724E-05
341.6116,-6.055123E-05
341.7116,-6.05258E-05
341.8116,-6.052769E-05
341.9117,-6.052204E-05
342.0117,-6.046271E-05
342.1117,-6.046648E-05
342.2117,-6.047307E-05
342.3117,-6.04467E-05
342.4117,-6.043258E-05
342.5117,-6.040997E-05
342.6117,-6.039302E-05
342.7117,-6.036665E-05
342.8117,-6.038455E-05
342.9117,-6.033464E-05
343.0117,-6.030733E-05
343.1117,-6.030639E-05
343.2117,-6.03045E-05
343.3117,-6.028943E-05
343.4117,-6.023482E-05
343.5117,-6.023104E-05
343.6118,-6.022822E-05
343.7118,-6.021315E-05
343.8118,-6.016606E-05
343.9118,-6.013875E-05
344.0118,-6.015382E-05
344.1118,-6.014817E-05
344.2118,-6.009355E-05
344.3118,-6.010579E-05
344.4118,-6.008978E-05
344.5118,-6.002857E-05
344.6118,-6.000408E-05
344.7118,-6.0054E-05
344.8118,-6.003516E-05
344.9118,-5.996924E-05
345.0118,-5.996077E-05
345.1118,-5.995417E-05
345.2119,-5.992404E-05
345.3119,-5.992121E-05
345.4119,-5.988543E-05
345.5119,-5.984588E-05
345.6119,-5.984682E-05
345.7119,-5.985153E-05
345.8119,-5.980632E-05
345.9119,-5.980538E-05
346.0119,-5.977619E-05
346.1119,-5.97404E-05
346.2119,-5.976301E-05
346.3119,-5.973663E-05
346.4119,-5.967542E-05
346.5119,-5.968484E-05
346.6119,-5.969897E-05
346.7119,-5.966036E-05
346.812,-5.963304E-05
346.912,-5.961138E-05
347.012,-5.959349E-05
347.112,-5.958125E-05
347.212,-5.959349E-05
347.312,-5.954735E-05
347.412,-5.951721E-05
347.512,-5.952098E-05
347.612,-5.949649E-05
347.712,-5.947766E-05
347.812,-5.948048E-05
347.912,-5.944282E-05
348.012,-5.944941E-05
348.112,-5.944187E-05
348.212,-5.940232E-05
348.312,-5.938348E-05
348.412,-5.938348E-05
348.5121,-5.937689E-05
348.6121,-5.933734E-05
348.7121,-5.935523E-05
348.8121,-5.931662E-05
348.9121,-5.929025E-05
349.0121,-5.92846E-05
349.1121,-5.926954E-05
349.2121,-5.92281E-05
349.3121,-5.924223E-05
349.4121,-5.924129E-05
349.5121,-5.918007E-05
349.6121,-5.916124E-05
349.7121,-5.916783E-05
349.8121,-5.914711E-05
349.9121,-5.911509E-05
350.0121,-5.908684E-05
350.1122,-5.906989E-05
350.2122,-5.906895E-05
350.3122,-5.906424E-05
350.4122,-5.902562E-05
350.5122,-5.902752E-05
350.6122,-5.901245E-05
350.7122,-5.899926E-05
350.8122,-5.897289E-05
350.9122,-5.898042E-05
351.0122,-5.89663E-05
351.1122,-5.893051E-05
351.2122,-5.892204E-05
351.3122,-5.891921E-05
351.4122,-5.88872E-05
351.5122,-5.887589E-05
351.6122,-5.883446E-05
351.7122,-5.882316E-05
351.8123,-5.885706E-05
351.9123,-5.883634E-05
352.0123,-5.878078E-05
352.1123,-5.87723E-05
352.2123,-5.876948E-05
352.3123,-5.874217E-05
352.4123,-5.873746E-05
352.5123,-5.869602E-05
352.6123,-5.86979E-05
352.7123,-5.873558E-05
352.8123,-5.873558E-05
352.9123,-5.865741E-05
353.0123,-5.863952E-05
353.1123,-5.865741E-05
353.2123,-5.86367E-05
353.3123,-5.858866E-05
353.4124,-5.858584E-05
353.5124,-5.858678E-05
353.6124,-5.857454E-05
353.7124,-5.855006E-05
353.8124,-5.850768E-05
353.9124,-5.851427E-05
354.0124,-5.852463E-05
354.1124,-5.847283E-05
354.2124,-5.844458E-05
354.3124,-5.847095E-05
354.4124,-5.845306E-05
354.5124,-5.843516E-05
354.6124,-5.841727E-05
354.7124,-5.839467E-05
354.8124,-5.837583E-05
354.9124,-5.838431E-05
355.0125,-5.835982E-05
355.1125,-5.832309E-05
355.2125,-5.831839E-05
355.3125,-5.830238E-05
355.4125,-5.828919E-05
355.5125,-5.829202E-05
355.6125,-5.825718E-05
355.7125,-5.82261E-05
355.8125,-5.824117E-05
355.9125,-5.821951E-05
356.0125,-5.818937E-05
356.1125,-5.817807E-05
356.2125,-5.819596E-05
356.3125,-5.815641E-05
356.4125,-5.812533E-05
356.5125,-5.813758E-05
356.6125,-5.81178E-05
356.7126,-5.808107E-05
356.8126,-5.809332E-05
356.9126,-5.80886E-05
357.0126,-5.8066E-05
357.1126,-5.803775E-05
357.2126,-5.803587E-05
357.3126,-5.804811E-05
357.4126,-5.801421E-05
357.5126,-5.800103E-05
357.6126,-5.801515E-05
357.7126,-5.801609E-05
357.8126,-5.796712E-05
357.9126,-5.793322E-05
358.0126,-5.792474E-05
358.1126,-5.793134E-05
358.2126,-5.790214E-05
358.3127,-5.791721E-05
358.4127,-5.789743E-05
358.5127,-5.783528E-05
358.6127,-5.783528E-05
358.7127,-5.785035E-05
358.8127,-5.781174E-05
358.9127,-5.779855E-05
359.0127,-5.777972E-05
359.1127,-5.775523E-05
359.2127,-5.775429E-05
359.3127,-5.776936E-05
359.4127,-5.772133E-05
359.5127,-5.76799E-05
359.6127,-5.770815E-05
359.7127,-5.769308E-05
359.8127,-5.768272E-05
359.9128,-5.766106E-05
360.0128,-5.762621E-05
360.1128,-5.760361E-05
360.2128,-5.764034E-05
360.3128,-5.76055E-05
360.4128,-5.758007E-05
360.5128,-5.758007E-05
360.6128,-5.756877E-05
360.7128,-5.754146E-05
360.8128,-5.753864E-05
360.9128,-5.752922E-05
361.0128,-5.750097E-05
361.1128,-5.749908E-05
361.2128,-5.748496E-05
361.3128,-5.747459E-05
361.4128,-5.741998E-05
361.5128,-5.740585E-05
361.6129,-5.741715E-05
361.7129,-5.74228E-05
361.8129,-5.741809E-05
361.9129,-5.738796E-05
362.0129,-5.738231E-05
362.1129,-5.741527E-05
362.2129,-5.735594E-05
362.3129,-5.732863E-05
362.4129,-5.732486E-05
362.5129,-5.730414E-05
362.6129,-5.726835E-05
362.7129,-5.728813E-05
362.8129,-5.724858E-05
362.9129,-5.723916E-05
363.0129,-5.722881E-05
363.1129,-5.721656E-05
363.213,-5.717136E-05
363.313,-5.716948E-05
363.413,-5.716665E-05
363.513,-5.715158E-05
363.613,-5.711957E-05
363.713,-5.714499E-05
363.813,-5.710167E-05
363.913,-5.709979E-05
364.013,-5.708189E-05
364.113,-5.705458E-05
364.213,-5.706871E-05
364.313,-5.704517E-05
364.413,-5.703198E-05
364.513,-5.703387E-05
364.613,-5.700373E-05
364.713,-5.69623E-05
364.813,-5.699337E-05
364.9131,-5.69896E-05
365.0131,-5.693781E-05
365.1131,-5.69039E-05
365.2131,-5.69105E-05
365.3131,-5.690673E-05
365.4131,-5.687001E-05
365.5131,-5.682386E-05
365.6131,-5.683516E-05
365.7131,-5.680408E-05
365.8131,-5.680785E-05
365.9131,-5.677866E-05
366.0131,-5.677018E-05
366.1131,-5.675229E-05
366.2131,-5.674381E-05
366.3131,-5.672687E-05
366.4131,-5.670144E-05
366.5132,-5.670144E-05
366.6132,-5.666376E-05
366.7132,-5.666565E-05
366.8132,-5.667601E-05
366.9132,-5.663363E-05
367.0132,-5.659785E-05
367.1132,-5.662515E-05
367.2132,-5.661574E-05
367.3132,-5.657619E-05
367.4132,-5.659879E-05
367.5132,-5.656582E-05
367.6132,-5.65291E-05
367.7132,-5.654699E-05
367.8132,-5.653192E-05
367.9132,-5.648955E-05
368.0132,-5.648295E-05
368.1133,-5.644999E-05
368.2133,-5.644999E-05
368.3133,-5.644717E-05
368.4133,-5.641986E-05
368.5133,-5.639161E-05
368.6133,-5.638407E-05
368.7133,-5.638313E-05
368.8133,-5.6369E-05
368.9133,-5.634358E-05
369.0133,-5.633039E-05
369.1133,-5.629367E-05
369.2133,-5.628236E-05
369.3133,-5.629461E-05
369.4133,-5.625694E-05
369.5133,-5.624281E-05
369.6133,-5.625506E-05
369.7133,-5.620985E-05
369.8134,-5.618819E-05
369.9134,-5.62042E-05
370.0134,-5.619667E-05
370.1134,-5.615429E-05
370.2134,-5.616088E-05
370.3134,-5.613734E-05
370.4134,-5.61298E-05
370.5134,-5.612321E-05
370.6134,-5.609779E-05
370.7134,-5.608366E-05
370.8134,-5.607989E-05
370.9134,-5.606577E-05
371.0134,-5.604882E-05
371.1134,-5.601868E-05
371.2134,-5.604222E-05
371.3134,-5.601021E-05
371.4135,-5.596971E-05
371.5135,-5.59716E-05
371.6135,-5.598007E-05
371.7135,-5.595841E-05
371.8135,-5.593769E-05
371.9135,-5.591132E-05
372.0135,-5.587742E-05
372.1135,-5.591038E-05
372.2135,-5.588401E-05
372.3135,-5.584069E-05
372.4135,-5.585199E-05
372.5135,-5.583504E-05
372.6135,-5.580867E-05
372.7135,-5.580585E-05
372.8135,-5.577854E-05
372.9135,-5.5771E-05
373.0135,-5.577477E-05
373.1136,-5.574558E-05
373.2136,-5.573145E-05
373.3136,-5.572674E-05
373.4136,-5.569943E-05
373.5136,-5.567024E-05
373.6136,-5.56693E-05
373.7136,-5.566835E-05
373.8136,-5.559396E-05
373.9136,-5.56175E-05
374.0136,-5.564199E-05
374.1136,-5.563822E-05
374.2136,-5.555535E-05
374.3136,-5.559773E-05
374.4136,-5.559302E-05
374.5136,-5.554405E-05
374.6136,-5.555064E-05
374.7137,-5.55271E-05
374.8137,-5.550072E-05
374.9137,-5.550261E-05
375.0137,-5.544611E-05
375.1137,-5.545176E-05
375.2137,-5.549037E-05
375.3137,-5.546588E-05
375.4137,-5.542727E-05
375.5137,-5.540656E-05
375.6137,-5.542445E-05
375.7137,-5.537547E-05
375.8137,-5.537171E-05
375.9137,-5.535005E-05
376.0137,-5.531709E-05
376.1137,-5.533875E-05
376.2137,-5.533875E-05
376.3138,-5.529449E-05
376.4138,-5.527565E-05
376.5138,-5.526906E-05
376.6138,-5.526341E-05
376.7138,-5.52474E-05
376.8138,-5.524175E-05
376.9138,-5.518995E-05
377.0138,-5.518901E-05
377.1138,-5.517677E-05
377.2138,-5.516265E-05
377.3138,-5.517395E-05
377.4138,-5.513628E-05
377.5138,-5.509484E-05
377.6138,-5.510049E-05
377.7138,-5.511933E-05
377.8138,-5.510237E-05
377.9138,-5.504587E-05
378.0139,-5.505623E-05
378.1139,-5.502986E-05
378.2139,-5.50261E-05
378.3139,-5.503551E-05
378.4139,-5.497995E-05
378.5139,-5.494981E-05
378.6139,-5.500161E-05
378.7139,-5.499502E-05
378.8139,-5.49404E-05
378.9139,-5.494322E-05
379.0139,-5.493192E-05
379.1139,-5.49112E-05
379.2139,-5.490744E-05
379.3139,-5.490179E-05
379.4139,-5.484434E-05
379.5139,-5.485093E-05
379.614,-5.483398E-05
379.714,-5.480949E-05
379.814,-5.480102E-05
379.914,-5.478313E-05
380.014,-5.47577E-05
380.114,-5.475017E-05
380.214,-5.474075E-05
380.314,-5.471815E-05
380.414,-5.470402E-05
380.514,-5.469743E-05
380.614,-5.467577E-05
380.714,-5.467672E-05
380.814,-5.465882E-05
380.914,-5.461079E-05
381.014,-5.464093E-05
381.114,-5.463999E-05
381.2141,-5.46155E-05
381.3141,-5.457972E-05
381.4141,-5.458913E-05
381.5141,-5.455146E-05
381.6141,-5.453828E-05
381.7141,-5.452133E-05
381.8141,-5.449496E-05
381.9141,-5.448083E-05
382.0141,-5.449025E-05
382.1141,-5.449025E-05
382.2141,-5.445447E-05
382.3141,-5.44507E-05
382.4141,-5.441585E-05
382.5141,-5.440361E-05
382.6141,-5.439984E-05
382.7141,-5.440079E-05
382.8141,-5.438101E-05
382.9142,-5.436406E-05
383.0142,-5.436594E-05
383.1142,-5.4365E-05
383.2142,-5.432168E-05
383.3142,-5.434993E-05
383.4142,-5.43132E-05
383.5142,-5.42793E-05
383.6142,-5.427742E-05
383.7142,-5.427083E-05
383.8142,-5.426611E-05
383.9142,-5.42341E-05
384.0142,-5.421715E-05
384.1142,-5.42341E-05
384.2142,-5.421809E-05
384.3142,-5.416159E-05
384.4142,-5.414652E-05
384.5143,-5.415405E-05
384.6143,-5.416064E-05
384.7143,-5.411073E-05
384.8143,-5.410038E-05
384.9143,-5.409284E-05
385.0143,-5.407965E-05
385.1143,-5.407589E-05
385.2143,-5.405234E-05
385.3143,-5.405328E-05
385.4143,-5.403163E-05
385.5143,-5.402033E-05
385.6143,-5.399772E-05
385.7143,-5.399772E-05
385.8143,-5.401939E-05
385.9143,-5.400149E-05
386.0143,-5.396288E-05
386.1143,-5.398737E-05
386.2144,-5.397795E-05
386.3144,-5.39431E-05
386.4144,-5.394499E-05
386.5144,-5.392427E-05
386.6144,-5.389413E-05
386.7144,-5.389602E-05
386.8144,-5.388001E-05
386.9144,-5.384799E-05
387.0144,-5.386023E-05
387.1144,-5.381785E-05
387.2144,-5.379902E-05
387.3144,-5.381408E-05
387.4144,-5.378772E-05
387.5144,-5.377453E-05
387.6144,-5.373215E-05
387.7144,-5.375193E-05
387.8145,-5.372651E-05
387.9145,-5.373781E-05
388.0145,-5.368695E-05
388.1145,-5.366906E-05
388.2145,-5.369072E-05
388.3145,-5.367471E-05
388.4145,-5.360596E-05
388.5145,-5.364457E-05
388.6145,-5.363987E-05
388.7145,-5.361632E-05
388.8145,-5.358713E-05
388.9145,-5.358242E-05
389.0145,-5.355888E-05
389.1145,-5.357206E-05
389.2145,-5.355417E-05
389.3145,-5.34873E-05
389.4146,-5.352215E-05
389.5146,-5.354287E-05
389.6146,-5.350049E-05
389.7146,-5.344775E-05
389.8146,-5.347224E-05
389.9146,-5.345905E-05
390.0146,-5.344211E-05
390.1146,-5.344116E-05
390.2146,-5.341291E-05
390.3146,-5.338466E-05
390.4146,-5.340161E-05
390.5146,-5.338654E-05
390.6146,-5.3363E-05
390.7146,-5.334322E-05
390.8146,-5.334604E-05
390.9146,-5.331685E-05
391.0146,-5.32999E-05
391.1147,-5.32999E-05
391.2147,-5.329613E-05
391.3147,-5.327824E-05
391.4147,-5.324999E-05
391.5147,-5.323869E-05
391.6147,-5.325752E-05
391.7147,-5.322833E-05
391.8147,-5.319914E-05
391.9147,-5.321609E-05
392.0147,-5.32142E-05
392.1147,-5.313886E-05
392.2147,-5.318313E-05
392.3147,-5.31803E-05
392.4147,-5.315393E-05
392.5147,-5.311155E-05
392.6147,-5.312097E-05
392.7148,-5.312097E-05
392.8148,-5.307765E-05
392.9148,-5.309743E-05
393.0148,-5.305034E-05
393.1148,-5.305411E-05
393.2148,-5.304281E-05
393.3148,-5.30155E-05
393.4148,-5.301173E-05
393.5148,-5.302021E-05
393.6148,-5.300326E-05
393.7148,-5.2975E-05
393.8148,-5.29637E-05
393.9148,-5.295429E-05
394.0148,-5.293827E-05
394.1148,-5.290061E-05
394.2148,-5.289966E-05
394.3148,-5.287801E-05
394.4149,-5.289213E-05
394.5149,-5.287989E-05
394.6149,-5.28215E-05
394.7149,-5.284128E-05
394.8149,-5.284598E-05
394.9149,-5.281209E-05
395.0149,-5.276782E-05
395.1149,-5.27876E-05
395.2149,-5.277159E-05
395.3149,-5.277253E-05
395.4149,-5.27424E-05
395.5149,-5.272168E-05
395.6149,-5.26972E-05
395.7149,-5.271885E-05
395.8149,-5.270096E-05
395.9149,-5.268119E-05
396.015,-5.267365E-05
396.115,-5.264069E-05
396.215,-5.263221E-05
396.315,-5.264069E-05
396.415,-5.261997E-05
396.515,-5.257006E-05
396.615,-5.257571E-05
396.715,-5.257853E-05
396.815,-5.255122E-05
396.915,-5.255593E-05
397.015,-5.249661E-05
397.115,-5.247212E-05
397.215,-5.252297E-05
397.315,-5.250884E-05
397.415,-5.245705E-05
397.515,-5.243162E-05
397.6151,-5.244858E-05
397.7151,-5.240526E-05
397.8151,-5.239961E-05
397.9151,-5.238548E-05
398.0151,-5.232992E-05
398.1151,-5.233369E-05
398.2151,-5.233086E-05
398.3151,-5.230826E-05
398.4151,-5.227435E-05
398.5151,-5.225175E-05
398.6151,-5.222727E-05
398.7151,-5.224046E-05
398.8151,-5.224234E-05
398.9151,-5.218489E-05
399.0151,-5.216135E-05
399.1151,-5.219055E-05
399.2151,-5.216417E-05
399.3152,-5.214628E-05
399.4152,-5.213121E-05
399.5152,-5.212462E-05
399.6152,-5.209825E-05
399.7152,-5.208978E-05
399.8152,-5.208413E-05
399.9152,-5.20587E-05
400.0152,-5.205399E-05
400.1152,-5.204175E-05
400.2152,-5.203327E-05
400.3152,-5.201067E-05
400.4152,-5.196547E-05
400.5152,-5.198242E-05
400.6152,-5.200031E-05
400.7152,-5.195134E-05
400.8152,-5.195134E-05
400.9153,-5.195228E-05
401.0153,-5.192026E-05
401.1153,-5.188542E-05
401.2153,-5.191838E-05
401.3153,-5.188354E-05
401.4153,-5.185529E-05
401.5153,-5.18534E-05
401.6153,-5.187318E-05
401.7153,-5.181197E-05
401.8153,-5.181573E-05
401.9153,-5.182986E-05
402.0153,-5.181479E-05
402.1153,-5.17969E-05
402.2153,-5.178466E-05
402.3153,-5.175452E-05
402.4153,-5.175547E-05
402.5154,-5.176865E-05
402.6154,-5.172438E-05
402.7154,-5.172909E-05
402.8154,-5.172344E-05
402.9154,-5.169896E-05
403.0154,-5.168106E-05
403.1154,-5.168012E-05
403.2154,-5.168578E-05
403.3154,-5.164622E-05
403.4154,-5.164434E-05
403.5154,-5.161985E-05
403.6154,-5.160855E-05
403.7154,-5.161797E-05
403.8154,-5.159537E-05
403.9154,-5.158312E-05
404.0154,-5.157371E-05
404.1154,-5.155487E-05
404.2155,-5.154357E-05
404.3155,-5.152851E-05
404.4155,-5.154828E-05
404.5155,-5.15125E-05
404.6155,-5.148895E-05
404.7155,-5.147954E-05
404.8155,-5.146635E-05
404.9155,-5.147483E-05
405.0155,-5.144375E-05
405.1155,-5.144092E-05
405.2155,-5.143339E-05
405.3155,-5.144186E-05
405.4155,-5.144375E-05
405.5155,-5.139949E-05
405.6155,-5.137218E-05
405.7155,-5.137971E-05
405.8156,-5.138913E-05
405.9156,-5.137218E-05
406.0156,-5.131944E-05
406.1156,-5.137689E-05
406.2156,-5.136747E-05
406.3156,-5.132697E-05
406.4156,-5.130908E-05
406.5156,-5.132038E-05
406.6156,-5.129684E-05
406.7156,-5.130061E-05
406.8156,-5.128083E-05
406.9156,-5.124975E-05
407.0156,-5.123845E-05
407.1156,-5.124787E-05
407.2156,-5.123185E-05
407.3156,-5.119137E-05
407.4156,-5.121114E-05
407.5157,-5.121679E-05
407.6157,-5.118571E-05
407.7157,-5.116782E-05
407.8157,-5.117253E-05
407.9157,-5.112827E-05
408.0157,-5.114051E-05
408.1157,-5.111697E-05
408.2157,-5.111508E-05
408.3157,-5.111226E-05
408.4157,-5.111038E-05
408.5157,-5.109248E-05
408.6157,-5.108024E-05
408.7157,-5.112262E-05
408.8157,-5.110849E-05
408.9157,-5.106517E-05
409.0157,-5.111132E-05
409.1158,-5.10727E-05
409.2158,-5.104822E-05
409.3158,-5.105858E-05
409.4158,-5.102844E-05
409.5158,-5.099831E-05
409.6158,-5.099548E-05
409.7158,-5.096912E-05
409.8158,-5.096629E-05
409.9158,-5.094463E-05
410.0158,-5.092391E-05
410.1158,-5.091355E-05
410.2158,-5.091638E-05
410.3158,-5.090884E-05
410.4158,-5.087965E-05
410.5158,-5.08627E-05
410.6158,-5.089378E-05
410.7159,-5.086082E-05
410.8159,-5.083257E-05
410.9159,-5.083162E-05
411.0159,-5.083162E-05
411.1159,-5.08175E-05
411.2159,-5.080714E-05
411.3159,-5.078359E-05
411.4159,-5.07883E-05
411.5159,-5.080337E-05
411.6159,-5.078642E-05
411.7159,-5.073651E-05
411.8159,-5.076005E-05
411.9159,-5.07657E-05
412.0159,-5.072332E-05
412.1159,-5.068283E-05
412.2159,-5.07092E-05
412.3159,-5.067153E-05
412.416,-5.066965E-05
412.516,-5.067624E-05
412.616,-5.06461E-05
412.716,-5.061785E-05
412.816,-5.063951E-05
412.916,-5.061879E-05
413.016,-5.059713E-05
413.116,-5.060937E-05
413.216,-5.059054E-05
413.316,-5.055663E-05
413.416,-5.05717E-05
413.516,-5.055758E-05
413.616,-5.055758E-05
413.716,-5.054251E-05
413.816,-5.052274E-05
413.916,-5.049825E-05
414.0161,-5.052462E-05
414.1161,-5.050767E-05
414.2161,-5.047565E-05
414.3161,-5.046341E-05
414.4161,-5.044551E-05
414.5161,-5.044175E-05
414.6161,-5.043798E-05
414.7161,-5.043421E-05
414.8161,-5.03909E-05
414.9161,-5.04069E-05
415.0161,-5.038524E-05
415.1161,-5.039655E-05
415.2161,-5.037959E-05
415.3161,-5.035887E-05
415.4161,-5.033816E-05
415.5161,-5.035605E-05
415.6161,-5.03504E-05
415.7162,-5.029013E-05
415.8162,-5.02826E-05
415.9162,-5.03099E-05
416.0162,-5.027223E-05
416.1162,-5.026847E-05
416.2162,-5.027694E-05
416.3162,-5.027129E-05
416.4162,-5.02534E-05
416.5162,-5.027788E-05
416.6162,-5.025246E-05
416.7162,-5.022044E-05
416.8162,-5.028354E-05
416.9162,-5.024869E-05
417.0162,-5.022327E-05
417.1162,-5.024304E-05
417.2162,-5.022232E-05
417.3163,-5.019313E-05
417.4163,-5.019313E-05
417.5163,-5.017712E-05
417.6163,-5.014133E-05
417.7163,-5.016393E-05
417.8163,-5.013568E-05
417.9163,-5.012062E-05
418.0163,-5.013192E-05
418.1163,-5.013192E-05
418.2163,-5.008671E-05
418.3163,-5.007636E-05
418.4163,-5.008766E-05
418.5163,-5.003774E-05
418.6163,-5.003398E-05
418.7163,-5.005846E-05
418.8163,-5.000384E-05
418.9164,-4.999536E-05
419.0164,-5.00142E-05
419.1164,-5.000478E-05
419.2164,-4.998407E-05
419.3164,-4.998501E-05
419.4164,-4.995582E-05
419.5164,-4.993792E-05
419.6164,-4.995016E-05
419.7164,-4.994545E-05
419.8164,-4.991909E-05
419.9164,-4.990684E-05
420.0164,-4.986823E-05
420.1164,-4.988142E-05
420.2164,-4.992097E-05
420.3164,-4.987105E-05
420.4164,-4.983998E-05
420.5164,-4.983339E-05
420.6165,-4.982397E-05
420.7165,-4.982114E-05
420.8165,-4.979948E-05
420.9165,-4.981079E-05
421.0165,-4.978348E-05
421.1165,-4.977783E-05
421.2165,-4.977217E-05
421.3165,-4.975899E-05
421.4165,-4.973827E-05
421.5165,-4.972697E-05
421.6165,-4.973074E-05
421.7165,-4.972509E-05
421.8165,-4.972038E-05
421.9165,-4.969119E-05
422.0165,-4.96554E-05
422.1165,-4.969495E-05
422.2166,-4.96667E-05
422.3166,-4.963939E-05
422.4166,-4.96441E-05
422.5166,-4.961679E-05
422.6166,-4.963468E-05
422.7166,-4.963468E-05
422.8166,-4.960078E-05
422.9166,-4.954145E-05
423.0166,-4.96149E-05
423.1166,-4.956782E-05
423.2166,-4.952074E-05
423.3166,-4.953863E-05
423.4166,-4.954333E-05
423.5166,-4.951791E-05
423.6166,-4.952827E-05
423.7166,-4.949719E-05
423.8167,-4.948777E-05
423.9167,-4.948213E-05
424.0167,-4.948966E-05
424.1167,-4.946235E-05
424.2167,-4.943786E-05
424.3167,-4.942374E-05
424.4167,-4.942185E-05
424.5167,-4.944351E-05
424.6167,-4.940208E-05
424.7167,-4.937665E-05
424.8167,-4.936158E-05
424.9167,-4.938983E-05
425.0167,-4.936629E-05
425.1167,-4.934557E-05
425.2167,-4.93484E-05
425.3167,-4.929755E-05
425.4167,-4.930602E-05
425.5168,-4.933804E-05
425.6168,-4.930037E-05
425.7168,-4.92853E-05
425.8168,-4.928907E-05
425.9168,-4.926082E-05
426.0168,-4.923351E-05
426.1168,-4.924198E-05
426.2168,-4.92401E-05
426.3168,-4.92222E-05
426.4168,-4.920148E-05
426.5168,-4.919019E-05
426.6168,-4.915629E-05
426.7168,-4.918548E-05
426.8168,-4.915629E-05
426.9168,-4.915063E-05
427.0168,-4.914121E-05
427.1169,-4.912991E-05
427.2169,-4.910637E-05
427.3169,-4.912238E-05
427.4169,-4.910637E-05
427.5169,-4.907624E-05
427.6169,-4.909413E-05
427.7169,-4.907247E-05
427.8169,-4.904233E-05
427.9169,-4.904139E-05
428.0169,-4.906399E-05
428.1169,-4.904422E-05
428.2169,-4.90122E-05
428.3169,-4.903198E-05
428.4169,-4.901691E-05
428.5169,-4.899242E-05
428.6169,-4.898677E-05
428.7169,-4.896605E-05
428.817,-4.899242E-05
428.917,-4.898394E-05
429.017,-4.894439E-05
429.117,-4.892367E-05
429.217,-4.895287E-05
429.317,-4.892932E-05
429.417,-4.890484E-05
429.517,-4.889448E-05
429.617,-4.887376E-05
429.717,-4.886906E-05
429.817,-4.885022E-05
429.917,-4.886152E-05
430.017,-4.882103E-05
430.117,-4.881915E-05
430.217,-4.88248E-05
430.317,-4.880878E-05
430.4171,-4.879466E-05
430.5171,-4.879183E-05
430.6171,-4.877582E-05
430.7171,-4.875699E-05
430.8171,-4.877111E-05
430.9171,-4.874852E-05
431.0171,-4.872497E-05
431.1171,-4.873251E-05
431.2171,-4.871273E-05
431.3171,-4.870519E-05
431.4171,-4.869295E-05
431.5171,-4.866564E-05
431.6171,-4.867788E-05
431.7171,-4.869954E-05
431.8171,-4.866187E-05
431.9171,-4.862985E-05
432.0172,-4.865622E-05
432.1172,-4.863079E-05
432.2172,-4.85969E-05
432.3172,-4.859218E-05
432.4172,-4.857053E-05
432.5172,-4.859596E-05
432.6172,-4.860066E-05
432.7172,-4.856111E-05
432.8172,-4.855169E-05
432.9172,-4.858183E-05
433.0172,-4.85338E-05
433.1172,-4.851308E-05
433.2172,-4.854604E-05
433.3172,-4.852909E-05
433.4172,-4.850837E-05
433.5172,-4.849613E-05
433.6172,-4.849613E-05
433.7173,-4.850084E-05
433.8173,-4.84933E-05
433.9173,-4.845846E-05
434.0173,-4.843586E-05
434.1173,-4.842361E-05
434.2173,-4.843303E-05
434.3173,-4.84142E-05
434.4173,-4.839536E-05
434.5173,-4.839254E-05
434.6173,-4.837088E-05
434.7173,-4.838783E-05
434.8173,-4.839725E-05
434.9173,-4.834169E-05
435.0173,-4.833321E-05
435.1173,-4.834451E-05
435.2173,-4.831249E-05
435.3174,-4.830402E-05
435.4174,-4.831249E-05
435.5174,-4.832003E-05
435.6174,-4.825693E-05
435.7174,-4.826446E-05
435.8174,-4.830119E-05
435.9174,-4.825222E-05
436.0174,-4.824657E-05
436.1174,-4.825881E-05
436.2174,-4.823998E-05
436.3174,-4.823433E-05
436.4174,-4.825505E-05
436.5174,-4.823433E-05
436.6174,-4.818536E-05
436.7174,-4.82428E-05
436.8174,-4.822679E-05
436.9174,-4.81637E-05
437.0175,-4.817594E-05
437.1175,-4.816464E-05
437.2175,-4.815616E-05
437.3175,-4.8175E-05
437.4175,-4.814581E-05
437.5175,-4.811473E-05
437.6175,-4.811284E-05
437.7175,-4.812509E-05
437.8175,-4.812885E-05
437.9175,-4.807706E-05
438.0175,-4.807329E-05
438.1175,-4.808365E-05
438.2175,-4.806858E-05
438.3175,-4.807047E-05
438.4175,-4.804693E-05
438.5175,-4.802526E-05
438.6176,-4.803562E-05
438.7176,-4.801773E-05
438.8176,-4.79923E-05
438.9176,-4.801868E-05
439.0176,-4.798006E-05
439.1176,-4.798759E-05
439.2176,-4.797064E-05
439.3176,-4.795934E-05
439.4176,-4.795652E-05
439.5176,-4.794899E-05
439.6176,-4.793297E-05
439.7176,-4.789813E-05
439.8176,-4.791885E-05
439.9176,-4.792826E-05
440.0176,-4.789813E-05
440.1176,-4.7884E-05
440.2177,-4.786517E-05
440.3177,-4.785293E-05
440.4177,-4.786517E-05
440.5177,-4.786517E-05
440.6177,-4.781997E-05
440.7177,-4.781997E-05
440.8177,-4.783127E-05
440.9177,-4.781055E-05
441.0177,-4.77823E-05
441.1177,-4.780207E-05
441.2177,-4.778983E-05
441.3177,-4.777006E-05
441.4177,-4.775593E-05
441.5177,-4.773898E-05
441.6177,-4.776252E-05
441.7177,-4.773427E-05
441.8177,-4.76966E-05
441.9178,-4.773803E-05
442.0178,-4.772956E-05
442.1178,-4.771543E-05
442.2178,-4.768436E-05
442.3178,-4.768812E-05
442.4178,-4.768342E-05
442.5178,-4.765987E-05
442.6178,-4.764857E-05
442.7178,-4.764292E-05
442.8178,-4.761844E-05
442.9178,-4.764575E-05
443.0178,-4.760054E-05
443.1178,-4.761655E-05
443.2178,-4.75996E-05
443.3178,-4.7577E-05
443.4178,-4.756664E-05
443.5179,-4.756193E-05
443.6179,-4.754781E-05
443.7179,-4.752521E-05
443.8179,-4.752521E-05
443.9179,-4.752238E-05
444.0179,-4.750543E-05
444.1179,-4.749978E-05
444.2179,-4.746117E-05
444.3179,-4.745834E-05
444.4179,-4.746493E-05
444.5179,-4.746399E-05
444.6179,-4.742632E-05
444.7179,-4.742349E-05
444.8179,-4.743197E-05
444.9179,-4.741879E-05
445.0179,-4.737735E-05
445.118,-4.73943E-05
445.218,-4.74009E-05
445.318,-4.7383E-05
445.418,-4.736888E-05
445.518,-4.73378E-05
445.618,-4.734345E-05
445.718,-4.736794E-05
445.818,-4.733403E-05
445.918,-4.731708E-05
446.018,-4.735475E-05
446.118,-4.733309E-05
446.218,-4.730484E-05
446.318,-4.72973E-05
446.418,-4.729354E-05
446.518,-4.728977E-05
446.618,-4.728694E-05
446.718,-4.726811E-05
446.8181,-4.72295E-05
446.9181,-4.724646E-05
447.0181,-4.725587E-05
447.1181,-4.722573E-05
447.2181,-4.718807E-05
447.3181,-4.72003E-05
447.4181,-4.720502E-05
447.5181,-4.720596E-05
447.6181,-4.719654E-05
447.7181,-4.71504E-05
447.8181,-4.714851E-05
447.9181,-4.71504E-05
448.0181,-4.71551E-05
448.1181,-4.713721E-05
448.2181,-4.712403E-05
448.3181,-4.710048E-05
448.4182,-4.71099E-05
448.5182,-4.709389E-05
448.6182,-4.707883E-05
448.7182,-4.706281E-05
448.8182,-4.707788E-05
448.9182,-4.705434E-05
449.0182,-4.703362E-05
449.1182,-4.703739E-05
449.2182,-4.699972E-05
449.3182,-4.701102E-05
449.4182,-4.702044E-05
449.5182,-4.699784E-05
449.6182,-4.698089E-05
449.7182,-4.700349E-05
449.8182,-4.69903E-05
449.9182,-4.696864E-05
450.0182,-4.697147E-05
450.1183,-4.69564E-05
450.2183,-4.693945E-05
450.3183,-4.698371E-05
450.4183,-4.69451E-05
450.5183,-4.689613E-05
450.6183,-4.692344E-05
450.7183,-4.693003E-05
450.8183,-4.690084E-05
450.9183,-4.686599E-05
451.0183,-4.686505E-05
451.1183,-4.685752E-05
451.2183,-4.68594E-05
451.3183,-4.685092E-05
451.4183,-4.683021E-05
451.5183,-4.682738E-05
451.6183,-4.681608E-05
451.7184,-4.681043E-05
451.8184,-4.679819E-05
451.9184,-4.681326E-05
452.0184,-4.674828E-05
452.1184,-4.674169E-05
452.2184,-4.679819E-05
452.3184,-4.678406E-05
452.4184,-4.673791E-05
452.5184,-4.672662E-05
452.6184,-4.673886E-05
452.7184,-4.671908E-05
452.8184,-4.672944E-05
452.9184,-4.672379E-05
453.0184,-4.670307E-05
453.1184,-4.670872E-05
453.2184,-4.668895E-05
453.3185,-4.6672E-05
453.4185,-4.667388E-05
453.5185,-4.665504E-05
453.6185,-4.662962E-05
453.7185,-4.662302E-05
453.8185,-4.664375E-05
453.9185,-4.659948E-05
454.0185,-4.659854E-05
454.1185,-4.662773E-05
454.2185,-4.658724E-05
454.3185,-4.658441E-05
454.4185,-4.659383E-05
454.5185,-4.657971E-05
454.6185,-4.656558E-05
454.7185,-4.657029E-05
454.8185,-4.653921E-05
454.9185,-4.653356E-05
455.0186,-4.654769E-05
455.1186,-4.653356E-05
455.2186,-4.653168E-05
455.3186,-4.653545E-05
455.4186,-4.648083E-05
455.5186,-4.647894E-05
455.6186,-4.650249E-05
455.7186,-4.649307E-05
455.8186,-4.647894E-05
455.9186,-4.647141E-05
456.0186,-4.647046E-05
456.1186,-4.643845E-05
456.2186,-4.645257E-05
456.3186,-4.646105E-05
456.4186,-4.642432E-05
456.5186,-4.638948E-05
456.6187,-4.639983E-05
456.7187,-4.64102E-05
456.8187,-4.64149E-05
456.9187,-4.642338E-05
457.0187,-4.636876E-05
457.1187,-4.636499E-05
457.2187,-4.636782E-05
457.3187,-4.63584E-05
457.4187,-4.636593E-05
457.5187,-4.635652E-05
457.6187,-4.63584E-05
457.7187,-4.634992E-05
457.8187,-4.635463E-05
457.9187,-4.631319E-05
458.0187,-4.631037E-05
458.1187,-4.633109E-05
458.2188,-4.629719E-05
458.3188,-4.629248E-05
458.4188,-4.628494E-05
458.5188,-4.62727E-05
458.6188,-4.628023E-05
458.7188,-4.625857E-05
458.8188,-4.622468E-05
458.9188,-4.620395E-05
459.0188,-4.624068E-05
459.1188,-4.622562E-05
459.2188,-4.619171E-05
459.3188,-4.619454E-05
459.4188,-4.618606E-05
459.5188,-4.61823E-05
459.6188,-4.617194E-05
459.7188,-4.616817E-05
459.8188,-4.614839E-05
459.9189,-4.616534E-05
460.0189,-4.614557E-05
460.1189,-4.612485E-05
460.2189,-4.612673E-05
460.3189,-4.610978E-05
460.4189,-4.610978E-05
460.5189,-4.608342E-05
460.6189,-4.610319E-05
460.7189,-4.611167E-05
460.8189,-4.606269E-05
460.9189,-4.607682E-05
461.0189,-4.606647E-05
461.1189,-4.604951E-05
461.2189,-4.604763E-05
461.3189,-4.600431E-05
461.4189,-4.599583E-05
461.519,-4.605893E-05
461.619,-4.605045E-05
461.719,-4.598642E-05
461.819,-4.599112E-05
461.919,-4.601843E-05
462.019,-4.595345E-05
462.119,-4.597229E-05
462.219,-4.599395E-05
462.319,-4.596475E-05
462.419,-4.595628E-05
462.519,-4.596099E-05
462.619,-4.592897E-05
462.719,-4.593933E-05
462.819,-4.591955E-05
462.919,-4.590261E-05
463.019,-4.589036E-05
463.119,-4.591673E-05
463.2191,-4.590449E-05
463.3191,-4.587906E-05
463.4191,-4.587906E-05
463.5191,-4.587435E-05
463.6191,-4.585457E-05
463.7191,-4.584986E-05
463.8191,-4.584892E-05
463.9191,-4.584233E-05
464.0191,-4.582915E-05
464.1191,-4.584045E-05
464.2191,-4.580937E-05
464.3191,-4.581691E-05
464.4191,-4.582161E-05
464.5191,-4.581408E-05
464.6191,-4.578583E-05
464.7191,-4.581125E-05
464.8192,-4.576982E-05
464.9192,-4.57491E-05
465.0192,-4.576511E-05
465.1192,-4.577359E-05
465.2192,-4.571991E-05
465.3192,-4.57378E-05
465.4192,-4.573591E-05
465.5192,-4.575098E-05
465.6192,-4.570107E-05
465.7192,-4.573121E-05
465.8192,-4.573686E-05
465.9192,-4.572744E-05
466.0192,-4.570013E-05
466.1192,-4.56926E-05
466.2192,-4.568224E-05
466.3192,-4.570578E-05
466.4193,-4.56634E-05
466.5193,-4.563797E-05
466.6193,-4.56634E-05
466.7193,-4.565304E-05
466.8193,-4.563233E-05
466.9193,-4.564739E-05
467.0193,-4.56295E-05
467.1193,-4.561161E-05
467.2193,-4.562573E-05
467.3193,-4.562856E-05
467.4193,-4.559371E-05
467.5193,-4.560125E-05
467.6193,-4.558712E-05
467.7193,-4.558524E-05
467.8193,-4.561443E-05
467.9193,-4.557205E-05
468.0193,-4.556075E-05
468.1194,-4.556358E-05
468.2194,-4.558053E-05
468.3194,-4.555981E-05
468.4194,-4.553627E-05
468.5194,-4.554004E-05
468.6194,-4.551932E-05
468.7194,-4.552497E-05
468.8194,-4.551649E-05
468.9194,-4.549107E-05
469.0194,-4.548353E-05
469.1194,-4.550425E-05
469.2194,-4.550237E-05
469.3194,-4.549107E-05
469.4194,-4.546846E-05
469.5194,-4.547035E-05
469.6194,-4.545151E-05
469.7195,-4.546752E-05
469.8195,-4.545151E-05
469.9195,-4.542891E-05
470.0195,-4.544303E-05
470.1195,-4.541855E-05
470.2195,-4.54016E-05
470.3195,-4.541949E-05
470.4195,-4.538371E-05
470.5195,-4.536487E-05
470.6195,-4.539784E-05
470.7195,-4.538653E-05
470.8195,-4.534227E-05
470.9195,-4.534604E-05
471.0195,-4.534039E-05
471.1195,-4.533945E-05
471.2195,-4.533756E-05
471.3195,-4.531402E-05
471.4196,-4.530837E-05
471.5196,-4.53046E-05
471.6196,-4.530272E-05
471.7196,-4.529048E-05
471.8196,-4.526505E-05
471.9196,-4.527541E-05
472.0196,-4.524716E-05
472.1196,-4.526222E-05
472.2196,-4.527541E-05
472.3196,-4.523679E-05
472.4196,-4.522079E-05
472.5196,-4.52594E-05
472.6196,-4.524527E-05
472.7196,-4.521796E-05
472.8196,-4.520478E-05
472.9196,-4.522644E-05
473.0197,-4.517935E-05
473.1197,-4.521702E-05
473.2197,-4.520196E-05
473.3197,-4.515393E-05
473.4197,-4.516617E-05
473.5197,-4.518406E-05
473.6197,-4.517276E-05
473.7197,-4.515487E-05
473.8197,-4.515581E-05
473.9197,-4.514827E-05
474.0197,-4.513227E-05
474.1197,-4.512002E-05
474.2197,-4.510778E-05
474.3197,-4.511626E-05
474.4197,-4.51285E-05
474.5197,-4.508612E-05
474.6198,-4.509365E-05
474.7198,-4.512096E-05
474.8198,-4.507388E-05
474.9198,-4.507199E-05
475.0198,-4.506069E-05
475.1198,-4.505881E-05
475.2198,-4.506069E-05
475.3198,-4.50654E-05
475.4198,-4.502302E-05
475.5198,-4.502962E-05
475.6198,-4.503715E-05
475.7198,-4.504186E-05
475.8198,-4.501926E-05
475.9198,-4.501078E-05
476.0198,-4.497217E-05
476.1198,-4.4991E-05
476.2198,-4.500984E-05
476.3199,-4.499383E-05
476.4199,-4.496746E-05
476.5199,-4.495899E-05
476.6199,-4.496464E-05
476.7199,-4.495522E-05
476.8199,-4.497782E-05
476.9199,-4.494392E-05
477.0199,-4.492131E-05
477.1199,-4.493168E-05
477.2199,-4.492696E-05
477.3199,-4.491378E-05
477.4199,-4.490154E-05
477.5199,-4.489683E-05
477.6199,-4.488742E-05
477.7199,-4.49006E-05
477.8199,-4.487706E-05
477.92,-4.488553E-05
478.02,-4.486858E-05
478.12,-4.486952E-05
478.22,-4.485917E-05
478.32,-4.484786E-05
478.42,-4.484033E-05
478.52,-4.482903E-05
478.62,-4.482808E-05
478.72,-4.482808E-05
478.82,-4.480737E-05
478.92,-4.482808E-05
479.02,-4.482526E-05
479.12,-4.477817E-05
479.22,-4.478194E-05
479.32,-4.480454E-05
479.42,-4.477535E-05
479.5201,-4.474427E-05
479.6201,-4.4781E-05
479.7201,-4.477629E-05
479.8201,-4.474427E-05
479.9201,-4.474427E-05
480.0201,-4.474992E-05
480.1201,-4.475181E-05
480.2201,-4.475557E-05
480.3201,-4.473109E-05
480.4201,-4.471225E-05
480.5201,-4.470754E-05
480.6201,-4.473485E-05
480.7201,-4.471319E-05
480.8201,-4.469719E-05
480.9201,-4.469342E-05
481.0201,-4.466799E-05
481.1201,-4.468588E-05
481.2202,-4.468683E-05
481.3202,-4.465198E-05
481.4202,-4.462562E-05
481.5202,-4.465104E-05
481.6202,-4.466423E-05
481.7202,-4.46322E-05
481.8202,-4.464068E-05
481.9202,-4.462373E-05
482.0202,-4.460113E-05
482.1202,-4.464256E-05
482.2202,-4.461149E-05
482.3202,-4.460301E-05
482.4202,-4.461431E-05
482.5202,-4.459265E-05
482.6202,-4.458889E-05
482.7202,-4.458324E-05
482.8203,-4.457287E-05
482.9203,-4.457193E-05
483.0203,-4.45757E-05
483.1203,-4.454839E-05
483.2203,-4.455028E-05
483.3203,-4.454274E-05
483.4203,-4.455969E-05
483.5203,-4.451543E-05
483.6203,-4.452014E-05
483.7203,-4.453992E-05
483.8203,-4.452202E-05
483.9203,-4.451638E-05
484.0203,-4.450695E-05
484.1203,-4.447588E-05
484.2203,-4.449283E-05
484.3203,-4.451073E-05
484.4203,-4.449E-05
484.5204,-4.446552E-05
484.6204,-4.44853E-05
484.7204,-4.447776E-05
484.8204,-4.445045E-05
484.9204,-4.445328E-05
485.0204,-4.44787E-05
485.1204,-4.449095E-05
485.2204,-4.447211E-05
485.3204,-4.445987E-05
485.4204,-4.447117E-05
485.5204,-4.447117E-05
485.6204,-4.442691E-05
485.7204,-4.442597E-05
485.8204,-4.443632E-05
485.9204,-4.443726E-05
486.0204,-4.43996E-05
486.1205,-4.442314E-05
486.2205,-4.443821E-05
486.3205,-4.440148E-05
486.4205,-4.436946E-05
486.5205,-4.440901E-05
486.6205,-4.442031E-05
486.7205,-4.439018E-05
486.8205,-4.438171E-05
486.9205,-4.438171E-05
487.0205,-4.438359E-05
487.1205,-4.439489E-05
487.2205,-4.435816E-05
487.3205,-4.434968E-05
487.4205,-4.434215E-05
487.5205,-4.434404E-05
487.6205,-4.434592E-05
487.7206,-4.434686E-05
487.8206,-4.432991E-05
487.9206,-4.431578E-05
488.0206,-4.430637E-05
488.1206,-4.431202E-05
488.2206,-4.42913E-05
488.3206,-4.430166E-05
488.4206,-4.427623E-05
488.5206,-4.426022E-05
488.6206,-4.427717E-05
488.7206,-4.427529E-05
488.8206,-4.426022E-05
488.9206,-4.42395E-05
489.0206,-4.42395E-05
489.1206,-4.422632E-05
489.2206,-4.425551E-05
489.3206,-4.423668E-05
489.4207,-4.421596E-05
489.5207,-4.421125E-05
489.6207,-4.422255E-05
489.7207,-4.419712E-05
489.8207,-4.421502E-05
489.9207,-4.420748E-05
490.0207,-4.416228E-05
490.1207,-4.418959E-05
490.2207,-4.418771E-05
490.3207,-4.414627E-05
490.4207,-4.420089E-05
490.5207,-4.417829E-05
490.6207,-4.414345E-05
490.7207,-4.412367E-05
490.8207,-4.415569E-05
490.9207,-4.415757E-05
491.0208,-4.41378E-05
491.1208,-4.41604E-05
491.2208,-4.413591E-05
491.3208,-4.410766E-05
491.4208,-4.412838E-05
491.5208,-4.408883E-05
491.6208,-4.408412E-05
491.7208,-4.413874E-05
491.8208,-4.411049E-05
491.9208,-4.406905E-05
492.0208,-4.408789E-05
492.1208,-4.408318E-05
492.2208,-4.408318E-05
492.3208,-4.408506E-05
492.4208,-4.405398E-05
492.5208,-4.40408E-05
492.6208,-4.40521E-05
492.7209,-4.405681E-05
492.8209,-4.404551E-05
492.9209,-4.403609E-05
493.0209,-4.402291E-05
493.1209,-4.400596E-05
493.2209,-4.402855E-05
493.3209,-4.402761E-05
493.4209,-4.401443E-05
493.5209,-4.399371E-05
493.6209,-4.40003E-05
493.7209,-4.397488E-05
493.8209,-4.398806E-05
493.9209,-4.399842E-05
494.0209,-4.3973E-05
494.1209,-4.392497E-05
494.2209,-4.398806E-05
494.321,-4.397865E-05
494.421,-4.39551E-05
494.521,-4.395322E-05
494.621,-4.393532E-05
494.721,-4.393062E-05
494.821,-4.396358E-05
494.921,-4.392026E-05
495.021,-4.390707E-05
495.121,-4.391272E-05
495.221,-4.389389E-05
495.321,-4.390707E-05
495.421,-4.390331E-05
495.521,-4.386469E-05
495.621,-4.385716E-05
495.721,-4.388071E-05
495.821,-4.386093E-05
495.9211,-4.384303E-05
496.0211,-4.385904E-05
496.1211,-4.383456E-05
496.2211,-4.381384E-05
496.3211,-4.382797E-05
496.4211,-4.38355E-05
496.5211,-4.379312E-05
496.6211,-4.37903E-05
496.7211,-4.380065E-05
496.8211,-4.379312E-05
496.9211,-4.378182E-05
497.0211,-4.37903E-05
497.1211,-4.374981E-05
497.2211,-4.375828E-05
497.3211,-4.376111E-05
497.4211,-4.372061E-05
497.5211,-4.374321E-05
497.6212,-4.377429E-05
497.7212,-4.37159E-05
497.8212,-4.369424E-05
497.9212,-4.37272E-05
498.0212,-4.372438E-05
498.1212,-4.370648E-05
498.2212,-4.3682E-05
498.3212,-4.369047E-05
498.4212,-4.36707E-05
498.5212,-4.36933E-05
498.6212,-4.369613E-05
498.7212,-4.367164E-05
498.8212,-4.367541E-05
498.9212,-4.366976E-05
499.0212,-4.366128E-05
499.1212,-4.365375E-05
499.2213,-4.363491E-05
499.3213,-4.362362E-05
499.4213,-4.363115E-05
499.5213,-4.361137E-05
499.6213,-4.361325E-05
499.7213,-4.361137E-05
499.8213,-4.361231E-05
499.9213,-4.35624E-05
500.0213,-4.357558E-05
500.1213,-4.358406E-05
500.2213,-4.358688E-05
500.3213,-4.357746E-05
500.4213,-4.356052E-05
500.5213,-4.353509E-05
500.6213,-4.354451E-05
500.7213,-4.355769E-05
500.8214,-4.353885E-05
500.9214,-4.352567E-05
501.0214,-4.354262E-05
501.1214,-4.348612E-05
501.2214,-4.351625E-05
501.3214,-4.352379E-05
501.4214,-4.349083E-05
501.5214,-4.347199E-05
501.6214,-4.348989E-05
501.7214,-4.350589E-05
501.8214,-4.347294E-05
501.9214,-4.346823E-05
502.0214,-4.346258E-05
502.1214,-4.345033E-05
502.2214,-4.347011E-05
502.3214,-4.345033E-05
502.4214,-4.342961E-05
502.5215,-4.342773E-05
502.6215,-4.342208E-05
502.7215,-4.341172E-05
502.8215,-4.34202E-05
502.9215,-4.341643E-05
503.0215,-4.339948E-05
503.1215,-4.339289E-05
503.2215,-4.338535E-05
503.3215,-4.337594E-05
503.4215,-4.340042E-05
503.5215,-4.33684E-05
503.6215,-4.334203E-05
503.7215,-4.335993E-05
503.8215,-4.338159E-05
503.9215,-4.331755E-05
504.0215,-4.33345E-05
504.1216,-4.332226E-05
504.2216,-4.332791E-05
504.3216,-4.334486E-05
504.4216,-4.332791E-05
504.5216,-4.328082E-05
504.6216,-4.330625E-05
504.7216,-4.332791E-05
504.8216,-4.330436E-05
504.9216,-4.326387E-05
505.0216,-4.328458E-05
505.1216,-4.3294E-05
505.2216,-4.328365E-05
505.3216,-4.326293E-05
505.4216,-4.32488E-05
505.5216,-4.327329E-05
505.6216,-4.327612E-05
505.7216,-4.325539E-05
505.8217,-4.323279E-05
505.9217,-4.329589E-05
506.0217,-4.324692E-05
506.1217,-4.322526E-05
506.2217,-4.323939E-05
506.3217,-4.326105E-05
506.4217,-4.322714E-05
506.5217,-4.324221E-05
506.6217,-4.324127E-05
506.7217,-4.321584E-05
506.8217,-4.322526E-05
506.9217,-4.321679E-05
507.0217,-4.319042E-05
507.1217,-4.319418E-05
507.2217,-4.318006E-05
507.3217,-4.317064E-05
507.4218,-4.315651E-05
507.5218,-4.316593E-05
507.6218,-4.315181E-05
507.7218,-4.315086E-05
507.8218,-4.315369E-05
507.9218,-4.312167E-05
508.0218,-4.312544E-05
508.1218,-4.31405E-05
508.2218,-4.310566E-05
508.3218,-4.310754E-05
508.4218,-4.311319E-05
508.5218,-4.307552E-05
508.6218,-4.308212E-05
508.7218,-4.310754E-05
508.8218,-4.307741E-05
508.9218,-4.307647E-05
509.0219,-4.306987E-05
509.1219,-4.305198E-05
509.2219,-4.303409E-05
509.3219,-4.304633E-05
509.4219,-4.305858E-05
509.5219,-4.305104E-05
509.6219,-4.304256E-05
509.7219,-4.30275E-05
509.8219,-4.30322E-05
509.9219,-4.30435E-05
510.0219,-4.30322E-05
510.1219,-4.302373E-05
510.2219,-4.30162E-05
510.3219,-4.302373E-05
510.4219,-4.30209E-05
510.5219,-4.300866E-05
510.6219,-4.299924E-05
510.722,-4.297759E-05
510.822,-4.299642E-05
510.922,-4.299359E-05
511.022,-4.293992E-05
511.122,-4.298889E-05
511.222,-4.300112E-05
511.322,-4.297476E-05
511.422,-4.29305E-05
511.522,-4.295498E-05
511.622,-4.295404E-05
511.722,-4.293803E-05
511.822,-4.293992E-05
511.922,-4.291731E-05
512.022,-4.290036E-05
512.122,-4.293238E-05
512.222,-4.289471E-05
512.322,-4.286646E-05
512.4219,-4.291637E-05
512.5219,-4.289942E-05
512.6219,-4.288247E-05
512.7219,-4.285328E-05
512.8218,-4.288435E-05
512.9218,-4.286646E-05
513.0218,-4.285516E-05
513.1218,-4.287776E-05
513.2217,-4.28674E-05
513.3217,-4.284292E-05
513.4217,-4.282973E-05
513.5217,-4.283538E-05
513.6216,-4.285893E-05
513.7216,-4.284103E-05
513.8216,-4.279206E-05
513.9216,-4.280148E-05
514.0215,-4.283727E-05
514.1215,-4.280148E-05
514.2215,-4.279394E-05
514.3215,-4.280619E-05
514.4214,-4.276852E-05
514.5214,-4.277699E-05
514.6214,-4.277981E-05
514.7214,-4.276758E-05
514.8214,-4.279959E-05
514.9213,-4.280431E-05
515.0213,-4.27544E-05
515.1213,-4.274121E-05
515.2213,-4.277417E-05
515.3212,-4.276758E-05
515.4212,-4.27365E-05
515.5212,-4.273273E-05
515.6212,-4.272143E-05
515.7211,-4.269977E-05
515.8211,-4.271578E-05
515.9211,-4.272802E-05
516.0211,-4.269412E-05
516.121,-4.27073E-05
516.221,-4.269412E-05
516.321,-4.268188E-05
516.421,-4.267246E-05
516.5209,-4.26687E-05
516.6209,-4.268094E-05
516.7209,-4.266775E-05
516.8209,-4.267435E-05
516.9208,-4.267811E-05
517.0208,-4.265363E-05
517.1208,-4.266399E-05
517.2208,-4.266116E-05
517.3207,-4.263762E-05
517.4207,-4.264233E-05
517.5207,-4.263197E-05
517.6207,-4.262632E-05
517.7206,-4.264327E-05
517.8206,-4.26169E-05
517.9206,-4.261408E-05
518.0206,-4.263385E-05
518.1205,-4.260748E-05
518.2205,-4.258582E-05
518.3205,-4.260278E-05
518.4205,-4.261125E-05
518.5204,-4.256887E-05
518.6204,-4.257547E-05
518.7204,-4.255757E-05
518.8204,-4.257264E-05
518.9203,-4.259335E-05
519.0203,-4.255004E-05
519.1203,-4.256134E-05
519.2203,-4.254533E-05
519.3203,-4.255474E-05
519.4202,-4.253968E-05
519.5202,-4.254156E-05
519.6202,-4.252932E-05
519.7202,-4.252932E-05
519.8201,-4.252273E-05
519.9201,-4.252932E-05
520.0201,-4.248223E-05
520.1201,-4.250013E-05
520.22,-4.251519E-05
520.32,-4.250295E-05
520.42,-4.249636E-05
520.52,-4.2486E-05
520.6199,-4.245963E-05
520.7199,-4.248506E-05
520.8199,-4.249918E-05
520.9199,-4.244927E-05
521.0198,-4.242949E-05
521.1198,-4.246434E-05
521.2198,-4.245963E-05
521.3198,-4.245398E-05
521.4197,-4.244174E-05
521.5197,-4.239465E-05
521.6197,-4.241914E-05
521.7197,-4.247093E-05
521.8196,-4.242102E-05
521.9196,-4.238712E-05
522.0196,-4.242102E-05
522.1196,-4.240501E-05
522.2195,-4.240124E-05
522.3195,-4.243138E-05
522.4195,-4.239371E-05
522.5195,-4.237582E-05
522.6194,-4.240219E-05
522.7194,-4.239842E-05
522.8194,-4.23664E-05
522.9194,-4.236923E-05
523.0193,-4.236451E-05
523.1193,-4.235604E-05
523.2193,-4.235792E-05
523.3193,-4.234945E-05
523.4193,-4.234568E-05
523.5192,-4.233344E-05
523.6192,-4.232967E-05
523.7192,-4.230142E-05
523.8192,-4.231555E-05
523.9191,-4.233344E-05
524.0191,-4.230047E-05
524.1191,-4.228635E-05
524.2191,-4.227882E-05
524.319,-4.228259E-05
524.419,-4.228353E-05
524.519,-4.228541E-05
524.619,-4.224774E-05
524.7189,-4.22355E-05
524.8189,-4.224115E-05
524.9189,-4.223927E-05
525.0189,-4.223739E-05
525.1188,-4.223173E-05
525.2188,-4.22016E-05
525.3188,-4.219501E-05
525.4188,-4.221855E-05
525.5187,-4.219971E-05
525.6187,-4.220913E-05
525.7187,-4.220913E-05
525.8187,-4.217146E-05
525.9186,-4.216675E-05
526.0186,-4.218935E-05
526.1186,-4.217429E-05
526.2186,-4.218182E-05
526.3185,-4.216582E-05
526.4185,-4.214039E-05
526.5185,-4.213379E-05
526.6185,-4.215357E-05
526.7184,-4.212438E-05
526.8184,-4.210178E-05
526.9184,-4.209895E-05
527.0184,-4.209141E-05
527.1183,-4.20754E-05
527.2183,-4.209518E-05
527.3183,-4.209801E-05
527.4183,-4.20641E-05
527.5182,-4.205092E-05
527.6182,-4.205469E-05
527.7182,-4.203679E-05
527.8182,-4.203868E-05
527.9182,-4.203679E-05
528.0181,-4.199536E-05
528.1181,-4.201984E-05
528.2181,-4.203585E-05
528.3181,-4.198877E-05
528.418,-4.19963E-05
528.518,-4.198594E-05
528.618,-4.197935E-05
528.718,-4.197652E-05
528.8179,-4.198594E-05
528.9179,-4.196899E-05
529.0179,-4.195581E-05
529.1179,-4.199536E-05
529.2178,-4.19737E-05
529.3178,-4.195581E-05
529.4178,-4.197276E-05
529.5178,-4.196522E-05
529.6177,-4.191814E-05
529.7177,-4.194356E-05
529.8177,-4.194921E-05
529.9177,-4.188517E-05
530.0176,-4.192661E-05
530.1176,-4.194168E-05
530.2176,-4.190683E-05
530.3176,-4.187294E-05
530.4175,-4.190024E-05
530.5175,-4.190213E-05
530.6175,-4.189177E-05
530.7175,-4.189459E-05
530.8174,-4.188706E-05
530.9174,-4.187764E-05
531.0174,-4.188141E-05
531.1174,-4.187576E-05
531.2173,-4.187482E-05
531.3173,-4.186446E-05
531.4173,-4.184845E-05
531.5173,-4.186163E-05
531.6172,-4.186163E-05
531.7172,-4.185221E-05
531.8172,-4.182302E-05
531.9172,-4.184374E-05
532.0172,-4.18362E-05
532.1171,-4.183903E-05
532.2171,-4.180795E-05
532.3171,-4.180042E-05
532.4171,-4.183244E-05
532.517,-4.182585E-05
532.617,-4.180984E-05
532.717,-4.179288E-05
532.817,-4.180513E-05
532.9169,-4.179382E-05
533.0169,-4.179194E-05
533.1169,-4.179382E-05
533.2169,-4.177311E-05
533.3168,-4.178535E-05
533.4168,-4.181455E-05
533.5168,-4.179571E-05
533.6168,-4.177782E-05
533.7167,-4.176087E-05
533.8167,-4.176652E-05
533.9167,-4.177217E-05
534.0167,-4.175993E-05
534.1166,-4.177123E-05
534.2166,-4.174768E-05
534.3166,-4.174203E-05
534.4166,-4.174015E-05
534.5165,-4.173544E-05
534.6165,-4.17232E-05
534.7165,-4.171567E-05
534.8165,-4.17345E-05
534.9164,-4.172885E-05
535.0164,-4.172602E-05
535.1164,-4.170531E-05
535.2164,-4.171284E-05
535.3163,-4.172602E-05
535.4163,-4.170154E-05
535.5163,-4.16667E-05
535.6163,-4.169495E-05
535.7162,-4.169683E-05
535.8162,-4.166105E-05
535.9162,-4.167235E-05
536.0162,-4.167611E-05
536.1161,-4.166858E-05
536.2161,-4.162432E-05
536.3161,-4.165916E-05
536.4161,-4.167799E-05
536.5161,-4.164598E-05
536.616,-4.16441E-05
536.716,-4.165727E-05
536.816,-4.162902E-05
536.916,-4.164598E-05
537.0159,-4.163279E-05
537.1159,-4.163655E-05
537.2159,-4.161679E-05
537.3159,-4.164974E-05
537.4158,-4.165257E-05
537.5158,-4.159983E-05
537.6158,-4.160831E-05
537.7158,-4.161867E-05
537.8157,-4.162902E-05
537.9157,-4.158947E-05
538.0157,-4.1581E-05
538.1157,-4.159983E-05
538.2156,-4.160266E-05
538.3156,-4.155934E-05
538.4156,-4.158759E-05
538.5156,-4.160642E-05
538.6155,-4.157911E-05
538.7155,-4.156216E-05
538.8155,-4.155463E-05
538.9155,-4.156875E-05
539.0154,-4.156875E-05
539.1154,-4.156405E-05
539.2154,-4.153109E-05
539.3154,-4.152732E-05
539.4153,-4.155557E-05
539.5153,-4.153109E-05
539.6153,-4.152167E-05
539.7153,-4.151602E-05
539.8152,-4.151037E-05
539.9152,-4.151037E-05
540.0152,-4.151884E-05
540.1152,-4.152261E-05
540.2151,-4.149906E-05
540.3151,-4.151131E-05
540.4151,-4.149341E-05
540.5151,-4.146705E-05
540.6151,-4.147081E-05
540.715,-4.147647E-05
540.815,-4.146611E-05
540.915,-4.146234E-05
541.015,-4.146611E-05
541.1149,-4.146987E-05
541.2149,-4.147458E-05
541.3149,-4.143974E-05
541.4149,-4.144162E-05
541.5148,-4.145292E-05
541.6148,-4.145386E-05
541.7148,-4.14049E-05
541.8148,-4.14322E-05
541.9147,-4.14614E-05
542.0147,-4.141243E-05
542.1147,-4.141713E-05
542.2147,-4.143032E-05
542.3146,-4.142561E-05
542.4146,-4.140772E-05
542.5146,-4.139359E-05
542.6146,-4.13757E-05
542.7145,-4.13757E-05
542.8145,-4.139924E-05
542.9145,-4.139265E-05
543.0145,-4.136063E-05
543.1144,-4.13757E-05
543.2144,-4.137758E-05
543.3144,-4.135122E-05
543.4144,-4.132296E-05
543.5143,-4.134933E-05
543.6143,-4.136252E-05
543.7143,-4.13305E-05
543.8143,-4.133332E-05
543.9142,-4.134086E-05
544.0142,-4.132296E-05
544.1142,-4.13305E-05
544.2142,-4.131072E-05
544.3141,-4.132767E-05
544.4141,-4.131637E-05
544.5141,-4.128812E-05
544.6141,-4.127964E-05
544.7141,-4.129188E-05
544.814,-4.127682E-05
544.914,-4.129659E-05
545.014,-4.129E-05
545.114,-4.125516E-05
545.2139,-4.126646E-05
545.3139,-4.126646E-05
545.4139,-4.126552E-05
545.5139,-4.124762E-05
545.6138,-4.125704E-05
545.7138,-4.125893E-05
545.8138,-4.124009E-05
545.9138,-4.12335E-05
546.0137,-4.123915E-05
546.1137,-4.124668E-05
546.2137,-4.12269E-05
546.3137,-4.119959E-05
546.4136,-4.119206E-05
546.5136,-4.12335E-05
546.6136,-4.122597E-05
546.7136,-4.117793E-05
546.8135,-4.119959E-05
546.9135,-4.120148E-05
547.0135,-4.117228E-05
547.1135,-4.12109E-05
547.2134,-4.117793E-05
547.3134,-4.116193E-05
547.4134,-4.118264E-05
547.5134,-4.117323E-05
547.6133,-4.116098E-05
547.7133,-4.115156E-05
547.8133,-4.119018E-05
547.9133,-4.11591E-05
548.0132,-4.111672E-05
548.1132,-4.115628E-05
548.2132,-4.116569E-05
548.3132,-4.114309E-05
548.4131,-4.113933E-05
548.5131,-4.116193E-05
548.6131,-4.112426E-05
548.7131,-4.112426E-05
548.813,-4.113555E-05
548.913,-4.112143E-05
549.013,-4.111578E-05
549.113,-4.112897E-05
549.213,-4.112802E-05
549.3129,-4.112897E-05
549.4129,-4.109789E-05
549.5129,-4.11139E-05
549.6129,-4.109506E-05
549.7128,-4.107811E-05
549.8128,-4.111767E-05
549.9128,-4.109224E-05
550.0128,-4.110354E-05
550.1127,-4.109224E-05
550.2127,-4.110636E-05
550.3127,-4.109035E-05
550.4127,-4.108188E-05
550.5126,-4.106022E-05
550.6126,-4.108753E-05
550.7126,-4.109224E-05
550.8126,-4.106587E-05
550.9125,-4.104798E-05
551.0125,-4.104892E-05
551.1125,-4.103385E-05
551.2125,-4.106304E-05
551.3124,-4.100936E-05
551.4124,-4.099995E-05
551.5124,-4.106587E-05
551.6124,-4.105268E-05
551.7123,-4.101407E-05
551.8123,-4.102255E-05
551.9123,-4.105739E-05
552.0123,-4.101219E-05
552.1122,-4.100183E-05
552.2122,-4.103009E-05
552.3122,-4.104044E-05
552.4122,-4.10395E-05
552.5121,-4.103762E-05
552.6121,-4.102443E-05
552.7121,-4.101031E-05
552.8121,-4.10395E-05
552.912,-4.102443E-05
553.012,-4.098394E-05
553.112,-4.101219E-05
553.212,-4.101219E-05
553.312,-4.099053E-05
553.4119,-4.099712E-05
553.5119,-4.098488E-05
553.6119,-4.095757E-05
553.7119,-4.098017E-05
553.8118,-4.097358E-05
553.9118,-4.096793E-05
554.0118,-4.095004E-05
554.1118,-4.094062E-05
554.2117,-4.095945E-05
554.3117,-4.098865E-05
554.4117,-4.093685E-05
554.5117,-4.093214E-05
554.6116,-4.094062E-05
554.7116,-4.093497E-05
554.8116,-4.093026E-05
554.9116,-4.091802E-05
555.0115,-4.090201E-05
555.1115,-4.087752E-05
555.2115,-4.089448E-05
555.3115,-4.091236E-05
555.4114,-4.08521E-05
555.5114,-4.085116E-05
555.6114,-4.088883E-05
555.7114,-4.087658E-05
555.8113,-4.086622E-05
555.9113,-4.086245E-05
556.0113,-4.085304E-05
556.1113,-4.085116E-05
556.2112,-4.086057E-05
556.3112,-4.085021E-05
556.4112,-4.083891E-05
556.5112,-4.083985E-05
556.6111,-4.081819E-05
556.7111,-4.083514E-05
556.8111,-4.085963E-05
556.9111,-4.081819E-05
557.011,-4.080407E-05
557.111,-4.081442E-05
557.211,-4.08342E-05
557.311,-4.080501E-05
557.4109,-4.079842E-05
557.5109,-4.080972E-05
557.6109,-4.080501E-05
557.7109,-4.082667E-05
557.8109,-4.079088E-05
557.9108,-4.078806E-05
558.0108,-4.078523E-05
558.1108,-4.077959E-05
558.2108,-4.077394E-05
558.3107,-4.078241E-05
558.4107,-4.079371E-05
558.5107,-4.079277E-05
558.6107,-4.078335E-05
558.7106,-4.07777E-05
558.8106,-4.07711E-05
558.9106,-4.076263E-05
559.0106,-4.077676E-05
559.1105,-4.076734E-05
559.2105,-4.074568E-05
559.3105,-4.075887E-05
559.4105,-4.074663E-05
559.5104,-4.074851E-05
559.6104,-4.075416E-05
559.7104,-4.073438E-05
559.8104,-4.072873E-05
559.9103,-4.072213E-05
560.0103,-4.076075E-05
560.1103,-4.071931E-05
560.2103,-4.07146E-05
560.3102,-4.07212E-05
560.4102,-4.071931E-05
560.5102,-4.072402E-05
560.6102,-4.070801E-05
560.7101,-4.070801E-05
560.8101,-4.071366E-05
560.9101,-4.072402E-05
561.0101,-4.067787E-05
561.11,-4.069294E-05
561.21,-4.073532E-05
561.31,-4.070613E-05
561.41,-4.066846E-05
561.5099,-4.071083E-05
561.6099,-4.072778E-05
561.7099,-4.070425E-05
561.8099,-4.069012E-05
561.9099,-4.069859E-05
562.0098,-4.068918E-05
562.1098,-4.07099E-05
562.2098,-4.069954E-05
562.3098,-4.068447E-05
562.4097,-4.068447E-05
562.5097,-4.067599E-05
562.6097,-4.068824E-05
562.7097,-4.067599E-05
562.8096,-4.068352E-05
562.9096,-4.06468E-05
563.0096,-4.06581E-05
563.1096,-4.068635E-05
563.2095,-4.063926E-05
563.3095,-4.066375E-05
563.4095,-4.067128E-05
563.5095,-4.065056E-05
563.6094,-4.065621E-05
563.7094,-4.067128E-05
563.8094,-4.069294E-05
563.9094,-4.066093E-05
564.0093,-4.069012E-05
564.1093,-4.066846E-05
564.2093,-4.064397E-05
564.3093,-4.069106E-05
564.4092,-4.067128E-05
564.5092,-4.063079E-05
564.6092,-4.063832E-05
564.7092,-4.064397E-05
564.8091,-4.061855E-05
564.9091,-4.063738E-05
565.0091,-4.065339E-05
565.1091,-4.061855E-05
565.209,-4.060254E-05
565.309,-4.059218E-05
565.409,-4.061478E-05
565.509,-4.063832E-05
565.6089,-4.06176E-05
565.7089,-4.058653E-05
565.8089,-4.057523E-05
565.9089,-4.061478E-05
566.0089,-4.058558E-05
566.1088,-4.056487E-05
566.2088,-4.057334E-05
566.3088,-4.059124E-05
566.4088,-4.05903E-05
566.5087,-4.057711E-05
566.6087,-4.056675E-05
566.7087,-4.05724E-05
566.8087,-4.060065E-05
566.9086,-4.056958E-05
567.0086,-4.053379E-05
567.1086,-4.056675E-05
567.2086,-4.05611E-05
567.3085,-4.05498E-05
567.4085,-4.055075E-05
567.5085,-4.055545E-05
567.6085,-4.051684E-05
567.7084,-4.054321E-05
567.8084,-4.054886E-05
567.9084,-4.051872E-05
568.0084,-4.048765E-05
568.1083,-4.053756E-05
568.2083,-4.052344E-05
568.3083,-4.052814E-05
568.4083,-4.050931E-05
568.5082,-4.050648E-05
568.6082,-4.051307E-05
568.7082,-4.051966E-05
568.8082,-4.048953E-05
568.9081,-4.049047E-05
569.0081,-4.050931E-05
569.1081,-4.0482E-05
569.2081,-4.045845E-05
569.308,-4.049424E-05
569.408,-4.048482E-05
569.508,-4.044244E-05
569.608,-4.045751E-05
569.7079,-4.048576E-05
569.8079,-4.044903E-05
569.9079,-4.043302E-05
570.0079,-4.044621E-05
570.1078,-4.046222E-05
570.2078,-4.045657E-05
570.3078,-4.044433E-05
570.4078,-4.042267E-05
570.5078,-4.04368E-05
570.6077,-4.045657E-05
570.7077,-4.043962E-05
570.8077,-4.03963E-05
570.9077,-4.043114E-05
571.0076,-4.04368E-05
571.1076,-4.042737E-05
571.2076,-4.042172E-05
571.3076,-4.041702E-05
571.4075,-4.042549E-05
571.5075,-4.041514E-05
571.6075,-4.040289E-05
571.7075,-4.038217E-05
571.8074,-4.043114E-05
571.9074,-4.040759E-05
572.0074,-4.036522E-05
572.1074,-4.039253E-05
572.2073,-4.041514E-05
572.3073,-4.035863E-05
572.4073,-4.036711E-05
572.5073,-4.038876E-05
572.6072,-4.037276E-05
572.7072,-4.036051E-05
572.8072,-4.036993E-05
572.9072,-4.033602E-05
573.0071,-4.03398E-05
573.1071,-4.034639E-05
573.2071,-4.032379E-05
573.3071,-4.033602E-05
573.407,-4.036522E-05
573.507,-4.031625E-05
573.607,-4.029176E-05
573.707,-4.03445E-05
573.8069,-4.034356E-05
573.9069,-4.030589E-05
574.0069,-4.030401E-05
574.1069,-4.029365E-05
574.2068,-4.029648E-05
574.3068,-4.03219E-05
574.4068,-4.02993E-05
574.5068,-4.027387E-05
574.6068,-4.029742E-05
574.7067,-4.030024E-05
574.8067,-4.02814E-05
574.9067,-4.02767E-05
575.0067,-4.025787E-05
575.1066,-4.026445E-05
575.2066,-4.0288E-05
575.3066,-4.027858E-05
575.4066,-4.023244E-05
575.5065,-4.02814E-05
575.6065,-4.027387E-05
575.7065,-4.024374E-05
575.8065,-4.023432E-05
575.9064,-4.023714E-05
576.0064,-4.024091E-05
576.1064,-4.023526E-05
576.2064,-4.024468E-05
576.3063,-4.02362E-05
576.4063,-4.024091E-05
576.5063,-4.023714E-05
576.6063,-4.021172E-05
576.7062,-4.024656E-05
576.8062,-4.025033E-05
576.9062,-4.021454E-05
577.0062,-4.017875E-05
577.1061,-4.023997E-05
577.2061,-4.024939E-05
577.3061,-4.022302E-05
577.4061,-4.020701E-05
577.506,-4.021737E-05
577.606,-4.019853E-05
577.706,-4.023714E-05
577.806,-4.022961E-05
577.9059,-4.018629E-05
578.0059,-4.021737E-05
578.1059,-4.022302E-05
578.2059,-4.018347E-05
578.3058,-4.017122E-05
578.4058,-4.018347E-05
578.5058,-4.019006E-05
578.6058,-4.019477E-05
578.7057,-4.017499E-05
578.8057,-4.014109E-05
578.9057,-4.018441E-05
579.0057,-4.018064E-05
579.1057,-4.015333E-05
579.2056,-4.014674E-05
579.3056,-4.016275E-05
579.4056,-4.014862E-05
579.5056,-4.01345E-05
579.6055,-4.014862E-05
579.7055,-4.014392E-05
579.8055,-4.015239E-05
579.9055,-4.015427E-05
580.0054,-4.013638E-05
580.1054,-4.014109E-05
580.2054,-4.013732E-05
580.3054,-4.013544E-05
580.4053,-4.012037E-05
580.5053,-4.012131E-05
580.6053,-4.011378E-05
580.7053,-4.011189E-05
580.8052,-4.015145E-05
580.9052,-4.013638E-05
581.0052,-4.00714E-05
581.1052,-4.010813E-05
581.2051,-4.011283E-05
581.3051,-4.009871E-05
581.4051,-4.008458E-05
581.5051,-4.009494E-05
581.605,-4.009118E-05
581.705,-4.010907E-05
581.805,-4.009589E-05
581.905,-4.005163E-05
582.0049,-4.008176E-05
582.1049,-4.010248E-05
582.2049,-4.007799E-05
582.3049,-4.004315E-05
582.4048,-4.008647E-05
582.5048,-4.0094E-05
582.6048,-4.006198E-05
582.7048,-4.009965E-05
582.8047,-4.009212E-05
582.9047,-4.007234E-05
583.0047,-4.009871E-05
583.1047,-4.008647E-05
583.2047,-4.006575E-05
583.3046,-4.008458E-05
583.4046,-4.007046E-05
583.5046,-4.003656E-05
583.6046,-4.007517E-05
583.7045,-4.005916E-05
583.8045,-4.001395E-05
583.9045,-4.005539E-05
584.0045,-4.006387E-05
584.1044,-3.998006E-05
584.2044,-4.001207E-05
584.3044,-4.006293E-05
584.4044,-4.007988E-05
584.5043,-4.000642E-05
584.6043,-4.003656E-05
584.7043,-4.00601E-05
584.8043,-4.00149E-05
584.9042,-4.001772E-05
585.0042,-4.002902E-05
585.1042,-4.001395E-05
585.2042,-3.999324E-05
585.3041,-3.998665E-05
585.4041,-4.001772E-05
585.5041,-3.999512E-05
585.6041,-3.998853E-05
585.704,-3.997063E-05
585.804,-3.997158E-05
585.904,-3.999889E-05
586.004,-3.996499E-05
586.1039,-3.997817E-05
586.2039,-3.994521E-05
586.3039,-3.996122E-05
586.4039,-3.995934E-05
586.5038,-3.996216E-05
586.6038,-3.993297E-05
586.7038,-3.996875E-05
586.8038,-3.994898E-05
586.9037,-3.992355E-05
587.0037,-3.992731E-05
587.1037,-3.994427E-05
587.2037,-3.992167E-05
587.3036,-3.99405E-05
587.4036,-3.991037E-05
587.5036,-3.99405E-05
587.6036,-3.992072E-05
587.7036,-3.99292E-05
587.8035,-3.993108E-05
587.9035,-3.990942E-05
588.0035,-3.992072E-05
588.1035,-3.991696E-05
588.2034,-3.990189E-05
588.3034,-3.990754E-05
588.4034,-3.987175E-05
588.5034,-3.988305E-05
588.6033,-3.99292E-05
588.7033,-3.992167E-05
588.8033,-3.988023E-05
588.9033,-3.988682E-05
589.0032,-3.990095E-05
589.1032,-3.988965E-05
589.2032,-3.989059E-05
589.3032,-3.989436E-05
589.4031,-3.984821E-05
589.5031,-3.987175E-05
589.6031,-3.989624E-05
589.7031,-3.986893E-05
589.803,-3.985292E-05
589.903,-3.988305E-05
590.003,-3.985386E-05
590.103,-3.987834E-05
590.2029,-3.988117E-05
590.3029,-3.985104E-05
590.4029,-3.985951E-05
590.5029,-3.988682E-05
590.6028,-3.98614E-05
590.7028,-3.981619E-05
590.8028,-3.987364E-05
590.9028,-3.987552E-05
591.0027,-3.979736E-05
591.1027,-3.985668E-05
591.2027,-3.987081E-05
591.3027,-3.983974E-05
591.4026,-3.981619E-05
591.5026,-3.98661E-05
591.6026,-3.987458E-05
591.7026,-3.986422E-05
591.8026,-3.983409E-05
591.9025,-3.985574E-05
592.0025,-3.983785E-05
592.1025,-3.983409E-05
592.2025,-3.981996E-05
592.3024,-3.983597E-05
592.4024,-3.984162E-05
592.5024,-3.98209E-05
592.6024,-3.979736E-05
592.7023,-3.981054E-05
592.8023,-3.982561E-05
592.9023,-3.981996E-05
593.0023,-3.98096E-05
593.1022,-3.979641E-05
593.2022,-3.979171E-05
593.3022,-3.981525E-05
593.4022,-3.980018E-05
593.5021,-3.977758E-05
593.6021,-3.978794E-05
593.7021,-3.978982E-05
593.8021,-3.977005E-05
593.902,-3.9787E-05
594.002,-3.977193E-05
594.102,-3.976722E-05
594.202,-3.97644E-05
594.3019,-3.976252E-05
594.4019,-3.974933E-05
594.5019,-3.97578E-05
594.6019,-3.975404E-05
594.7018,-3.973991E-05
594.8018,-3.974462E-05
594.9018,-3.972955E-05
595.0018,-3.971543E-05
595.1017,-3.972672E-05
595.2017,-3.973897E-05
595.3017,-3.970318E-05
595.4017,-3.969471E-05
595.5016,-3.972202E-05
595.6016,-3.971825E-05
595.7016,-3.971731E-05
595.8016,-3.969848E-05
595.9016,-3.96495E-05
596.0015,-3.970601E-05
596.1015,-3.971072E-05
596.2015,-3.967493E-05
596.3015,-3.963067E-05
596.4014,-3.970413E-05
596.5014,-3.968906E-05
596.6014,-3.965704E-05
596.7014,-3.96787E-05
596.8013,-3.969188E-05
596.9013,-3.966175E-05
597.0013,-3.969659E-05
597.1013,-3.967587E-05
597.2012,-3.966646E-05
597.3012,-3.969094E-05
597.4012,-3.96495E-05
597.5012,-3.961749E-05
597.6011,-3.965986E-05
597.7011,-3.964856E-05
597.8011,-3.960712E-05
597.9011,-3.963255E-05
598.001,-3.96495E-05
598.101,-3.959583E-05
598.201,-3.958923E-05
598.301,-3.963067E-05
598.4009,-3.963067E-05
598.5009,-3.960901E-05
598.6009,-3.959489E-05
598.7009,-3.96043E-05
598.8008,-3.958452E-05
598.9008,-3.959959E-05
599.0008,-3.958923E-05
599.1008,-3.956475E-05
599.2007,-3.957793E-05
599.3007,-3.958452E-05
599.4007,-3.958076E-05
599.5007,-3.955627E-05
599.6006,-3.956946E-05
599.7006,-3.958076E-05
599.8006,-3.957887E-05
599.9006,-3.956946E-05
600.0005,-3.954968E-05
