EXPID. 0865
[电化学]: i-t : @ 0(V) X 600(sec)
起始电位 (V),0
静置时间 (秒),0
运行时间 (秒),600
记录间隔,0.1
电解液 信息:
HNO3,0.4
0.1,-0.01005814
0.2,-0.01005814
0.3,-0.01005814
0.4,-0.01005814
0.5,-0.01005814
0.6,-0.01005814
0.7,-0.01005814
0.8000001,-0.01005814
0.9000001,-0.01005814
1,-0.01005814
1.1,-0.01005814
1.2,-0.01005814
1.3,-0.01005814
1.4,-0.01005814
1.5,-0.01005814
1.6,-0.01005814
1.7,-0.01005814
1.8,-0.01005814
1.9,-0.01005814
2,-0.01005814
2.1,-0.01005814
2.2,-0.01005814
2.3,-0.01005814
2.4,-0.01005814
2.5,-0.01005814
2.6,-0.01005814
2.7,-0.01005814
2.799999,-0.01005814
2.899999,-0.01005814
2.999999,-0.01005814
3.099999,-0.01005814
3.199999,-0.01005814
3.299999,-0.01005814
3.399999,-0.01005814
3.499999,-0.01005814
3.599999,-0.01005814
3.699999,-0.01005814
3.799999,-0.01005814
3.899998,-0.01005814
3.999998,-0.01005814
4.099998,-0.01005814
4.199998,-0.01005814
4.299998,-0.01005814
4.399998,-0.01005814
4.499998,-0.01005814
4.599998,-0.01005814
4.699998,-0.01005814
4.799998,-0.01005814
4.899998,-0.01005814
4.999998,-0.01005814
5.099998,-0.01005814
5.199997,-0.01005814
5.299997,-0.01005814
5.399997,-0.01005814
5.499997,-0.01005814
5.599997,-0.01005814
5.699997,-0.01005814
5.799997,-0.01005814
5.899997,-0.01005814
5.999997,-0.01005814
6.099997,-0.01005814
6.199996,-0.01005814
6.299996,-0.01005814
6.399996,-0.01005814
6.499996,-0.01005814
6.599996,-0.01005814
6.699996,-0.01005814
6.799996,-0.01005814
6.899996,-0.01005814
6.999996,-0.01005814
7.099996,-0.01005814
7.199996,-0.01005814
7.299995,-0.01005814
7.399995,-0.01005814
7.499995,-0.01005814
7.599995,-0.00552812
7.699995,0.001691149
7.799995,-0.00358421
7.899995,-0.007169982
7.999995,-0.008579899
8.099995,-0.009137539
8.199995,-0.009399682
8.299995,-0.009489682
8.399996,-0.009450156
8.499996,-0.009319995
8.599997,-0.009148506
8.699997,-0.008968072
8.799997,-0.008782238
8.899998,-0.008613201
8.999998,-0.008453875
9.099998,-0.008302677
9.199999,-0.008167003
9.299999,-0.008043675
9.4,-0.007916359
9.5,-0.007811233
9.6,-0.00770261
9.700001,-0.007600964
9.800001,-0.007513368
9.900002,-0.007422455
10,-0.007339127
10.1,-0.007260195
10.2,-0.007183942
10.3,-0.007113158
10.4,-0.007038789
10.5,-0.006973155
10.6,-0.006900255
10.7,-0.006847522
10.8,-0.006780636
10.90001,-0.006717924
11.00001,-0.006663161
11.10001,-0.006601863
11.20001,-0.006542597
11.30001,-0.006491623
11.40001,-0.006435957
11.50001,-0.006380694
11.60001,-0.00632641
11.70001,-0.006274436
11.80001,-0.006220811
11.90001,-0.006176278
12.00001,-0.006123492
12.10001,-0.006069414
12.20001,-0.006022723
12.30001,-0.005971761
12.40001,-0.005923068
12.50001,-0.005875222
12.60001,-0.005824875
12.70001,-0.005777533
12.80001,-0.005730845
12.90001,-0.005680172
13.00001,-0.00563306
13.10001,-0.005584978
13.20001,-0.005537736
13.30001,-0.00549139
13.40001,-0.00544563
13.50002,-0.005397162
13.60002,-0.005352372
13.70002,-0.005310077
13.80002,-0.005265943
13.90002,-0.005224117
14.00002,-0.005183188
14.10002,-0.005142279
14.20002,-0.005102174
14.30002,-0.005063228
14.40002,-0.005024226
14.50002,-0.004986001
14.60002,-0.004948156
14.70002,-0.004911834
14.80002,-0.004874952
14.90002,-0.004839998
15.00002,-0.004804968
15.10002,-0.004770313
15.20002,-0.004737178
15.30002,-0.004704888
15.40002,-0.004672796
15.50002,-0.004641324
15.60002,-0.004611812
15.70002,-0.004581351
15.80002,-0.004553406
15.90002,-0.004524703
16.00002,-0.004496985
16.10003,-0.004470019
16.20003,-0.004442705
16.30003,-0.004416256
16.40003,-0.004391094
16.50003,-0.004365986
16.60003,-0.00434038
16.70003,-0.004316448
16.80003,-0.004292597
16.90003,-0.004268175
17.00003,-0.004246001
17.10003,-0.004222756
17.20003,-0.004199676
17.30003,-0.004178272
17.40003,-0.004155577
17.50003,-0.004133857
17.60003,-0.004113135
17.70003,-0.004091856
17.80003,-0.004071212
17.90003,-0.004050693
18.00003,-0.004030199
18.10003,-0.004010474
18.20003,-0.003990953
18.30003,-0.003970748
18.40003,-0.003951839
18.50003,-0.003932901
18.60003,-0.003913463
18.70004,-0.003894746
18.80004,-0.003876574
18.90004,-0.003858335
19.00004,-0.003839879
19.10004,-0.003822649
19.20004,-0.003804532
19.30004,-0.003786738
19.40004,-0.003769528
19.50004,-0.003751989
19.60004,-0.003735294
19.70004,-0.00371834
19.80004,-0.003701005
19.90004,-0.003684564
20.00004,-0.00366846
20.10004,-0.003652057
20.20004,-0.003635684
20.30004,-0.003618917
20.40004,-0.0036037
20.50004,-0.003588339
20.60004,-0.003572698
20.70004,-0.003557115
20.80004,-0.003542209
20.90004,-0.003526247
21.00004,-0.003511194
21.10004,-0.003496217
21.20004,-0.003481279
21.30005,-0.003466056
21.40005,-0.003451492
21.50005,-0.003436782
21.60005,-0.003422185
21.70005,-0.003407952
21.80005,-0.003393324
21.90005,-0.003379112
22.00005,-0.003365087
22.10005,-0.00335089
22.20005,-0.003336881
22.30005,-0.003323192
22.40005,-0.00330917
22.50005,-0.0032955
22.60005,-0.003282377
22.70005,-0.003268969
22.80005,-0.003255237
22.90005,-0.003242411
23.00005,-0.003229183
23.10005,-0.00321585
23.20005,-0.00320287
23.30005,-0.003190071
23.40005,-0.003177174
23.50005,-0.003164506
23.60005,-0.003152067
23.70005,-0.003138901
23.80005,-0.003126337
23.90005,-0.003114138
24.00006,-0.003101537
24.10006,-0.003089337
24.20006,-0.00307705
24.30006,-0.003064795
24.40006,-0.003052579
24.50006,-0.003040977
24.60006,-0.003028775
24.70006,-0.003017046
24.80006,-0.003005432
24.90006,-0.00299364
25.00006,-0.002981895
25.10006,-0.002970227
25.20006,-0.002958635
25.30006,-0.002947593
25.40006,-0.002936182
25.50006,-0.002924875
25.60006,-0.002913192
25.70006,-0.002902244
25.80006,-0.002890911
25.90006,-0.002880199
26.00006,-0.002868714
26.10006,-0.002858315
26.20006,-0.002847291
26.30006,-0.002836064
26.40006,-0.00282559
26.50006,-0.002814999
26.60007,-0.002803906
26.70007,-0.002793516
26.80007,-0.002783214
26.90007,-0.002772375
27.00007,-0.002761804
27.10007,-0.002751689
27.20007,-0.002740993
27.30007,-0.002730705
27.40007,-0.002720707
27.50007,-0.002710023
27.60007,-0.002700188
27.70007,-0.002690182
27.80007,-0.002679762
27.90007,-0.002670094
28.00007,-0.002660141
28.10007,-0.002650036
28.20007,-0.002640434
28.30007,-0.00263083
28.40007,-0.002620687
28.50007,-0.002611473
28.60007,-0.002601823
28.70007,-0.002591981
28.80007,-0.002582439
28.90007,-0.002572925
29.00007,-0.002563664
29.10007,-0.002554464
29.20008,-0.002544994
29.30008,-0.002535613
29.40008,-0.002526439
29.50008,-0.002516997
29.60008,-0.002507619
29.70008,-0.0024989
29.80008,-0.002489675
29.90008,-0.002480402
30.00008,-0.002471661
30.10008,-0.002462938
30.20008,-0.002453536
30.30008,-0.002444938
30.40008,-0.002436202
30.50008,-0.002427088
30.60008,-0.002418588
30.70008,-0.002409984
30.80008,-0.002401022
30.90008,-0.002392454
31.00008,-0.002384095
31.10008,-0.002375296
31.20008,-0.002366953
31.30008,-0.002358637
31.40008,-0.002349839
31.50008,-0.002341466
31.60008,-0.002333478
31.70008,-0.002324814
31.80009,-0.002316728
31.90009,-0.002308754
32.00008,-0.002300222
32.10008,-0.002292179
32.20008,-0.002284164
32.30008,-0.00227574
32.40008,-0.002267764
32.50008,-0.002260203
32.60007,-0.002251809
32.70007,-0.002243962
32.80007,-0.002236756
32.90007,-0.002228305
33.00007,-0.00222043
33.10007,-0.002213087
33.20007,-0.002204894
33.30006,-0.002197195
33.40006,-0.002189794
33.50006,-0.00218197
33.60006,-0.002174203
33.70006,-0.002166883
33.80006,-0.002159318
33.90005,-0.002151831
34.00005,-0.002144445
34.10005,-0.002136892
34.20005,-0.002129439
34.30005,-0.00212211
34.40005,-0.002114675
34.50005,-0.002107452
34.60004,-0.002100179
34.70004,-0.002092997
34.80004,-0.002085627
34.90004,-0.00207868
35.00004,-0.002071293
35.10004,-0.002064247
35.20004,-0.002057295
35.30003,-0.002050111
35.40003,-0.002043032
35.50003,-0.002036298
35.60003,-0.002029056
35.70003,-0.002022099
35.80003,-0.002015511
35.90002,-0.002008449
36.00002,-0.002001735
36.10002,-0.001995104
36.20002,-0.001988085
36.30002,-0.001981271
36.40002,-0.001974803
36.50002,-0.001967814
36.60001,-0.001961077
36.70001,-0.00195465
36.80001,-0.001947956
36.90001,-0.001941424
37.00001,-0.001935247
37.10001,-0.001928312
37.2,-0.001921788
37.3,-0.001915621
37.4,-0.001909069
37.5,-0.001902631
37.6,-0.00189632
37.7,-0.001889776
37.8,-0.001883444
37.89999,-0.001877358
37.99999,-0.001871068
38.09999,-0.001864471
38.19999,-0.00185879
38.29999,-0.001852366
38.39999,-0.001846254
38.49998,-0.001840249
38.59998,-0.001834152
38.69998,-0.001827979
38.79998,-0.001822018
38.89998,-0.001815833
38.99998,-0.001809818
39.09998,-0.001803889
39.19997,-0.00179781
39.29997,-0.001792068
39.39997,-0.001786101
39.49997,-0.00178
39.59997,-0.001774373
39.69997,-0.00176854
39.79996,-0.00176235
39.89996,-0.001757053
39.99996,-0.001751342
40.09996,-0.001745269
40.19996,-0.001739856
40.29996,-0.001734078
40.39996,-0.00172808
40.49995,-0.001722817
40.59995,-0.001717191
40.69995,-0.001711384
40.79995,-0.00170596
40.89995,-0.001700549
40.99995,-0.00169491
41.09995,-0.001689475
41.19994,-0.001684092
41.29994,-0.00167852
41.39994,-0.00167323
41.49994,-0.001667839
41.59994,-0.001662267
41.69994,-0.001656917
41.79993,-0.001651716
41.89993,-0.001646233
41.99993,-0.001641188
42.09993,-0.001635854
42.19993,-0.00163037
42.29993,-0.001625314
42.39993,-0.001620142
42.49992,-0.001614758
42.59992,-0.001609781
42.69992,-0.001604612
42.79992,-0.001599295
42.89992,-0.001594411
42.99992,-0.001589261
43.09991,-0.001584271
43.19991,-0.001579272
43.29991,-0.001574143
43.39991,-0.00156913
43.49991,-0.001564219
43.59991,-0.001559278
43.69991,-0.001554295
43.7999,-0.001549559
43.8999,-0.001544562
43.9999,-0.001539789
44.0999,-0.001534975
44.1999,-0.001530181
44.2999,-0.001525257
44.39989,-0.001520646
44.49989,-0.00151586
44.59989,-0.001511004
44.69989,-0.001506309
44.79989,-0.001501607
44.89989,-0.001496729
44.99989,-0.001492057
45.09988,-0.001487403
45.19988,-0.001482771
45.29988,-0.001478138
45.39988,-0.001473696
45.49988,-0.001468914
45.59988,-0.001464569
45.69987,-0.00145999
45.79987,-0.001455304
45.89987,-0.001450988
45.99987,-0.001446466
46.09987,-0.001441955
46.19987,-0.001437624
46.29987,-0.001433087
46.39986,-0.001428703
46.49986,-0.001424327
46.59986,-0.00141994
46.69986,-0.001415516
46.79986,-0.00141118
46.89986,-0.001406915
46.99986,-0.001402493
47.09985,-0.001398425
47.19985,-0.001394061
47.29985,-0.001389802
47.39985,-0.00138559
47.49985,-0.001381554
47.59985,-0.001377151
47.69984,-0.001373019
47.79984,-0.001368952
47.89984,-0.001364638
47.99984,-0.001360566
48.09984,-0.001356503
48.19984,-0.001352167
48.29984,-0.001348211
48.39983,-0.001344017
48.49983,-0.001339885
48.59983,-0.001335838
48.69983,-0.001331812
48.79983,-0.001327798
48.89983,-0.001323796
48.99982,-0.001319733
49.09982,-0.0013158
49.19982,-0.001311886
49.29982,-0.001307859
49.39982,-0.001303922
49.49982,-0.001300178
49.59982,-0.001296168
49.69981,-0.001292258
49.79981,-0.001288519
49.89981,-0.001284557
49.99981,-0.001280766
50.09981,-0.001277065
50.19981,-0.001273165
50.2998,-0.001269272
50.3998,-0.001265622
50.4998,-0.001261685
50.5998,-0.001257946
50.6998,-0.001254334
50.7998,-0.001250492
50.8998,-0.001246791
50.99979,-0.001243214
51.09979,-0.001239467
51.19979,-0.001235856
51.29979,-0.001232275
51.39979,-0.001228653
51.49979,-0.001225122
51.59978,-0.0012216
51.69978,-0.00121792
51.79978,-0.00121442
51.89978,-0.001210837
51.99978,-0.00120727
52.09978,-0.001203782
52.19978,-0.001200375
52.29977,-0.001196763
52.39977,-0.001193272
52.49977,-0.001189886
52.59977,-0.001186299
52.69977,-0.001182841
52.79977,-0.001179489
52.89977,-0.001176056
52.99976,-0.001172651
53.09976,-0.001169237
53.19976,-0.001165906
53.29976,-0.001162611
53.39976,-0.001159196
53.49976,-0.001155971
53.59975,-0.001152486
53.69975,-0.001149363
53.79975,-0.001146012
53.89975,-0.001142661
53.99975,-0.001139483
54.09975,-0.001136258
54.19975,-0.001132914
54.29974,-0.001129761
54.39974,-0.001126573
54.49974,-0.001123439
54.59974,-0.001120154
54.69974,-0.001117181
54.79974,-0.001114009
54.89973,-0.001110761
54.99973,-0.001107543
55.09973,-0.001104486
55.19973,-0.001101361
55.29973,-0.001098235
55.39973,-0.00109529
55.49973,-0.00109216
55.59972,-0.001089062
55.69972,-0.001086005
55.79972,-0.001083051
55.89972,-0.00107992
55.99972,-0.001076978
56.09972,-0.001074062
56.19971,-0.0010709
56.29971,-0.001068082
56.39971,-0.001065159
56.49971,-0.001062159
56.59971,-0.001059153
56.69971,-0.001056361
56.79971,-0.001053323
56.8997,-0.001050385
56.9997,-0.001047666
57.0997,-0.001044604
57.1997,-0.001041717
57.2997,-0.00103899
57.3997,-0.001035985
57.49969,-0.001033145
57.59969,-0.001030278
57.69969,-0.001027359
57.79969,-0.001024527
57.89969,-0.001021791
57.99969,-0.001018957
58.09969,-0.001016093
58.19968,-0.001013387
58.29968,-0.001010606
58.39968,-0.00100777
58.49968,-0.001005103
58.59968,-0.001002344
58.69968,-0.0009996042
58.79967,-0.0009968526
58.89967,-0.0009941648
58.99967,-0.0009914424
59.09967,-0.0009887697
59.19967,-0.0009860905
59.29967,-0.0009833548
59.39967,-0.0009806991
59.49966,-0.0009781093
59.59966,-0.0009753783
59.69966,-0.0009727998
59.79966,-0.0009701978
59.89966,-0.0009674753
59.99966,-0.0009650061
60.09966,-0.0009623193
60.19965,-0.000959723
60.29965,-0.0009572
60.39965,-0.0009545867
60.49965,-0.0009519339
60.59965,-0.0009494693
60.69965,-0.0009468909
60.79964,-0.0009443473
60.89964,-0.0009419261
60.99964,-0.000939262
61.09964,-0.000936675
61.19964,-0.0009343753
61.29964,-0.0009318335
61.39964,-0.0009293606
61.49963,-0.000927025
61.59963,-0.0009244777
61.69963,-0.0009220509
61.79963,-0.0009195751
61.89963,-0.0009172593
61.99963,-0.0009146846
62.09962,-0.0009123595
62.19962,-0.0009100664
62.29962,-0.0009076028
62.39962,-0.0009052419
62.49962,-0.0009029111
62.59962,-0.0009004249
62.69962,-0.0008981412
62.79961,-0.0008958406
62.89961,-0.0008934524
62.99961,-0.0008911885
63.09961,-0.0008888548
63.19961,-0.0008864638
63.29961,-0.0008842055
63.3996,-0.0008819897
63.4996,-0.0008795722
63.5996,-0.0008772941
63.6996,-0.0008750434
63.7996,-0.0008726504
63.8996,-0.0008703686
63.9996,-0.000868277
64.09959,-0.000865805
64.19959,-0.0008636494
64.29959,-0.0008615917
64.39959,-0.000859195
64.49959,-0.0008569895
64.59959,-0.0008549073
64.69958,-0.0008526754
64.79958,-0.0008504303
64.89958,-0.0008484583
64.99958,-0.0008461257
65.09958,-0.0008439154
65.19958,-0.0008419076
65.29958,-0.0008396719
65.39957,-0.0008375022
65.49957,-0.000835486
65.59957,-0.0008333002
65.69957,-0.00083109
65.79957,-0.000829101
65.89957,-0.0008270009
65.99957,-0.0008248162
66.09956,-0.0008227877
66.19956,-0.0008207629
66.29956,-0.0008185894
66.39956,-0.0008165732
66.49956,-0.0008145813
66.59956,-0.0008124352
66.69955,-0.0008104161
66.79955,-0.0008084818
66.89955,-0.0008064043
66.99955,-0.0008043514
67.09955,-0.0008023417
67.19955,-0.0008002766
67.29955,-0.0007983252
67.39954,-0.0007964606
67.49954,-0.0007942899
67.59954,-0.0007923293
67.69954,-0.0007904307
67.79954,-0.0007883909
67.89954,-0.0007864679
67.99953,-0.0007845666
68.09953,-0.0007826153
68.19953,-0.0007807855
68.29953,-0.0007789162
68.39953,-0.0007769169
68.49953,-0.0007751501
68.59953,-0.0007731962
68.69952,-0.0007712647
68.79952,-0.0007694828
68.89952,-0.0007675184
68.99952,-0.0007657706
69.09952,-0.0007640387
69.19952,-0.0007621317
69.29951,-0.0007603311
69.39951,-0.0007585945
69.49951,-0.0007568316
69.59951,-0.0007550235
69.69951,-0.0007532907
69.79951,-0.0007515099
69.89951,-0.0007497206
69.9995,-0.0007480989
70.0995,-0.0007462381
70.1995,-0.0007444705
70.2995,-0.000742846
70.3995,-0.0007409851
70.4995,-0.0007391186
70.59949,-0.00073748
70.69949,-0.000735717
70.79949,-0.0007338732
70.89949,-0.0007321658
70.99949,-0.0007303464
71.09949,-0.000728542
71.19949,-0.0007268281
71.29948,-0.0007250124
71.39948,-0.0007232024
71.49948,-0.0007215035
71.59948,-0.0007197283
71.69948,-0.0007178929
71.79948,-0.0007161131
71.89948,-0.0007143774
71.99947,-0.0007126343
72.09947,-0.0007109354
72.19947,-0.0007091395
72.29947,-0.0007074454
72.39947,-0.0007057964
72.49947,-0.0007040081
72.59946,-0.0007023496
72.69946,-0.0007006696
72.79946,-0.0006989538
72.89946,-0.0006973424
72.99946,-0.0006957236
73.09946,-0.0006939729
73.19946,-0.0006923287
73.29945,-0.000690756
73.39945,-0.0006890496
73.49945,-0.0006874325
73.59945,-0.0006858655
73.69945,-0.0006841592
73.79945,-0.0006825271
73.89944,-0.0006809544
73.99944,-0.0006793272
74.09944,-0.0006778486
74.19944,-0.000676339
74.29944,-0.0006745441
74.39944,-0.0006729478
74.49944,-0.0006714928
74.59943,-0.0006698232
74.69943,-0.0006682806
74.79943,-0.0006667974
74.89943,-0.0006651437
74.99943,-0.0006636266
75.09943,-0.0006621528
75.19942,-0.0006605508
75.29942,-0.0006590291
75.39942,-0.0006575609
75.49942,-0.0006559637
75.59942,-0.0006544428
75.69942,-0.000653065
75.79942,-0.0006514745
75.89941,-0.0006499724
75.99941,-0.0006484327
76.09941,-0.0006470418
76.19941,-0.0006455152
76.29941,-0.0006440593
76.39941,-0.0006424988
76.4994,-0.0006410062
76.5994,-0.0006396124
76.6994,-0.0006380633
76.7994,-0.0006365885
76.8994,-0.0006351317
76.9994,-0.0006336333
77.0994,-0.0006322274
77.19939,-0.0006308082
77.29939,-0.0006293334
77.39939,-0.0006278813
77.49939,-0.0006264818
77.59939,-0.0006249648
77.69939,-0.0006236096
77.79939,-0.0006222017
77.89938,-0.0006207119
77.99938,-0.0006193031
78.09938,-0.0006180326
78.19938,-0.0006165145
78.29938,-0.0006151491
78.39938,-0.0006138052
78.49937,-0.0006123983
78.59937,-0.0006109452
78.69937,-0.0006096635
78.79937,-0.0006081577
78.89937,-0.000606843
78.99937,-0.0006055406
79.09937,-0.0006041205
79.19936,-0.0006027483
79.29936,-0.0006013415
79.39936,-0.0006001068
79.49936,-0.0005988279
79.59936,-0.0005974935
79.69936,-0.0005960705
79.79935,-0.0005947973
79.89935,-0.0005933829
79.99935,-0.0005921331
80.09935,-0.000590842
80.19935,-0.0005895679
80.29935,-0.000588208
80.39935,-0.0005869131
80.49934,-0.0005856644
80.59934,-0.0005843159
80.69934,-0.0005830539
80.79934,-0.000581808
80.89934,-0.0005804594
80.99934,-0.0005793444
81.09933,-0.0005780609
81.19933,-0.0005767124
81.29933,-0.0005755135
81.39933,-0.0005743118
81.49933,-0.0005729482
81.59933,-0.000571755
81.69933,-0.0005704696
81.79932,-0.0005691483
81.89932,-0.0005679693
81.99932,-0.0005667619
82.09932,-0.0005654586
82.19932,-0.0005642438
82.29932,-0.0005630337
82.39931,-0.0005617397
82.49931,-0.0005605447
82.59931,-0.0005593581
82.69931,-0.0005580764
82.79931,-0.0005568173
82.89931,-0.0005556787
82.99931,-0.0005544215
83.0993,-0.0005532312
83.1993,-0.0005520766
83.2993,-0.0005508222
83.3993,-0.0005496705
83.4993,-0.0005484877
83.5993,-0.0005472295
83.6993,-0.0005461418
83.79929,-0.0005449883
83.89929,-0.0005437036
83.99929,-0.0005425689
84.09929,-0.0005415161
84.19929,-0.0005402457
84.29929,-0.0005391476
84.39928,-0.0005380797
84.49928,-0.0005368337
84.59928,-0.0005357075
84.69928,-0.0005346658
84.79928,-0.000533468
84.89928,-0.0005323201
84.99928,-0.0005313095
85.09927,-0.0005300674
85.19927,-0.0005289618
85.29927,-0.0005279457
85.39927,-0.0005267835
85.49927,-0.0005257213
85.59927,-0.0005246336
85.69926,-0.0005234744
85.79926,-0.0005224874
85.89926,-0.0005214497
85.99926,-0.0005202828
86.09926,-0.0005192168
86.19926,-0.0005181865
86.29926,-0.0005170358
86.39925,-0.0005159895
86.49925,-0.0005149686
86.59925,-0.000513831
86.69925,-0.0005127895
86.79925,-0.000511778
86.89925,-0.000510647
86.99924,-0.0005096479
87.09924,-0.0005086967
87.19924,-0.0005075129
87.29924,-0.0005064789
87.39924,-0.0005054779
87.49924,-0.0005043722
87.59924,-0.0005033533
87.69923,-0.0005023513
87.79923,-0.0005012881
87.89923,-0.0005002823
87.99923,-0.0004992803
88.09923,-0.0004982953
88.19923,-0.0004972584
88.29922,-0.0004961679
88.39922,-0.0004951753
88.49922,-0.0004942383
88.59922,-0.0004931487
88.69922,-0.0004921278
88.79922,-0.0004911617
88.89922,-0.0004901757
88.99921,-0.0004891228
89.09921,-0.0004881933
89.19921,-0.0004872431
89.29921,-0.0004861931
89.39921,-0.0004852843
89.49921,-0.0004843058
89.59921,-0.0004832784
89.6992,-0.0004823603
89.7992,-0.0004813611
89.8992,-0.0004803176
89.9992,-0.0004794371
90.0992,-0.0004784539
90.1992,-0.0004774284
90.29919,-0.0004765102
90.39919,-0.0004756005
90.49919,-0.0004745298
90.59919,-0.0004735805
90.69919,-0.0004727386
90.79919,-0.0004716876
90.89919,-0.000470743
90.99918,-0.0004698512
91.09918,-0.0004688087
91.19918,-0.0004678566
91.29918,-0.000467043
91.39918,-0.0004660532
91.49918,-0.0004650522
91.59917,-0.000464134
91.69917,-0.000463261
91.79917,-0.0004623663
91.89917,-0.0004614792
91.99917,-0.0004604697
92.09917,-0.0004595157
92.19917,-0.0004586842
92.29916,-0.000457766
92.39916,-0.0004568309
92.49916,-0.0004559437
92.59916,-0.0004549766
92.69916,-0.0004540876
92.79916,-0.0004532372
92.89915,-0.0004523689
92.99915,-0.0004514733
93.09915,-0.0004505834
93.19915,-0.0004496822
93.29915,-0.0004488195
93.39915,-0.0004479164
93.49915,-0.000447034
93.59914,-0.0004462712
93.69914,-0.0004453455
93.79914,-0.0004443699
93.89914,-0.0004435864
93.99914,-0.0004427256
94.09914,-0.0004418912
94.19913,-0.0004411539
94.29913,-0.0004403185
94.39913,-0.0004394069
94.49913,-0.0004386507
94.59913,-0.0004378032
94.69913,-0.0004368671
94.79913,-0.0004360939
94.89912,-0.0004352624
94.99912,-0.0004343593
95.09912,-0.0004335418
95.19912,-0.0004327837
95.29912,-0.0004318053
95.39912,-0.0004310754
95.49911,-0.0004302637
95.59911,-0.0004293455
95.69911,-0.0004285469
95.79911,-0.0004277624
95.89911,-0.0004268602
95.99911,-0.000426105
96.09911,-0.0004252508
96.1991,-0.0004243919
96.2991,-0.0004236009
96.3991,-0.0004229154
96.4991,-0.0004219877
96.5991,-0.0004211901
96.6991,-0.000420432
96.7991,-0.000419608
96.89909,-0.0004188132
96.99909,-0.0004180814
97.09909,-0.0004171906
97.19909,-0.0004164221
97.29909,-0.0004156433
97.39909,-0.0004148212
97.49908,-0.0004140348
97.59908,-0.0004132391
97.69908,-0.0004124461
97.79908,-0.0004117144
97.89908,-0.0004109167
97.99908,-0.0004100908
98.09908,-0.0004093619
98.19907,-0.0004086048
98.29907,-0.0004078081
98.39907,-0.0004070698
98.49907,-0.0004063541
98.59907,-0.0004054236
98.69907,-0.0004047635
98.79906,-0.0004039649
98.89906,-0.0004031795
98.99906,-0.0004024346
99.09906,-0.0004016586
99.19906,-0.0004008826
99.29906,-0.0004001273
99.39906,-0.0003994154
99.49905,-0.0003986658
99.59905,-0.0003979077
99.69905,-0.0003972061
99.79905,-0.0003964254
99.89905,-0.0003957144
99.99905,-0.000395009
100.099,-0.0003942773
100.199,-0.0003934928
100.299,-0.0003928336
100.399,-0.0003920868
100.499,-0.0003913551
100.599,-0.0003906366
100.699,-0.0003898964
100.799,-0.0003891787
100.899,-0.0003884781
100.999,-0.0003877323
101.099,-0.0003870636
101.199,-0.0003863074
101.299,-0.000385587
101.399,-0.0003849127
101.499,-0.000384262
101.599,-0.0003834879
101.699,-0.0003828503
101.799,-0.0003821714
101.899,-0.0003814095
101.999,-0.000380755
102.099,-0.0003801089
102.199,-0.0003793829
102.299,-0.0003787095
102.399,-0.0003780183
102.499,-0.0003772668
102.599,-0.0003766386
102.699,-0.0003759936
102.799,-0.0003752562
102.899,-0.0003746563
102.999,-0.0003739999
103.099,-0.0003732409
103.199,-0.0003726448
103.299,-0.000371995
103.399,-0.0003712661
103.499,-0.0003706163
103.599,-0.0003700051
103.699,-0.0003693073
103.799,-0.0003686791
103.899,-0.0003680454
103.999,-0.0003672891
104.099,-0.0003667326
104.199,-0.0003660413
104.299,-0.0003653445
104.399,-0.0003647352
104.499,-0.0003640873
104.599,-0.0003634073
104.699,-0.0003627773
104.799,-0.0003621397
104.899,-0.0003614363
104.999,-0.0003608609
105.099,-0.0003602685
105.199,-0.0003596244
105.299,-0.0003589661
105.399,-0.0003583041
105.499,-0.0003577315
105.599,-0.0003571429
105.699,-0.0003565025
105.799,-0.0003558255
105.899,-0.0003552388
105.999,-0.0003545984
106.099,-0.0003540051
106.199,-0.0003534071
106.299,-0.0003527733
106.3989,-0.0003521951
106.4989,-0.0003516376
106.5989,-0.0003510217
106.6989,-0.0003504425
106.7989,-0.0003498445
106.8989,-0.0003492437
106.9989,-0.0003487078
107.0989,-0.0003481259
107.1989,-0.0003475514
107.2989,-0.0003469007
107.3989,-0.0003464194
107.4989,-0.0003458403
107.5989,-0.0003452517
107.6989,-0.0003446989
107.7989,-0.0003441395
107.8989,-0.0003435283
107.9989,-0.0003430066
108.0989,-0.0003424303
108.1989,-0.0003418605
108.2989,-0.0003412851
108.3989,-0.0003406711
108.4989,-0.0003401475
108.5989,-0.0003395749
108.6989,-0.0003389694
108.7989,-0.000338395
108.8989,-0.0003378224
108.9989,-0.0003372319
109.0989,-0.0003367074
109.1989,-0.0003361659
109.2989,-0.0003355086
109.3989,-0.0003349784
109.4989,-0.0003344124
109.5989,-0.0003338558
109.6989,-0.0003333181
109.7989,-0.0003327436
109.8989,-0.0003321503
109.9989,-0.0003316154
110.0989,-0.000331089
110.1989,-0.0003304797
110.2989,-0.0003299552
110.3989,-0.0003294165
110.4989,-0.0003288298
110.5989,-0.0003282996
110.6989,-0.0003277948
110.7989,-0.0003271507
110.8989,-0.000326645
110.9989,-0.0003261185
111.0989,-0.0003255752
111.1989,-0.0003249837
111.2989,-0.000324398
111.3989,-0.0003238716
111.4989,-0.0003233074
111.5989,-0.0003228112
111.6989,-0.0003222122
111.7989,-0.0003216378
111.8989,-0.0003211952
111.9989,-0.0003206433
112.0989,-0.0003200689
112.1989,-0.0003195349
112.2989,-0.0003190556
112.3989,-0.0003185254
112.4989,-0.0003180149
112.5989,-0.0003174282
112.6989,-0.0003169357
112.7989,-0.0003163725
112.8988,-0.0003158499
112.9988,-0.0003152943
113.0988,-0.0003148601
113.1988,-0.0003143224
113.2988,-0.0003137696
113.3988,-0.0003132884
113.4988,-0.0003127337
113.5988,-0.0003121781
113.6988,-0.0003117242
113.7988,-0.0003111959
113.8988,-0.0003107212
113.9988,-0.0003102287
114.0988,-0.0003096853
114.1988,-0.0003091589
114.2988,-0.0003087163
114.3988,-0.0003082257
114.4988,-0.0003076587
114.5988,-0.0003071963
114.6988,-0.0003066304
114.7988,-0.0003061699
114.8988,-0.0003056839
114.9988,-0.0003051876
115.0988,-0.0003046838
115.1988,-0.0003042054
115.2988,-0.0003037345
115.3988,-0.0003032618
115.4988,-0.0003027438
115.5988,-0.0003022711
115.6988,-0.0003017221
115.7988,-0.0003013105
115.8988,-0.0003008019
115.9988,-0.0003002859
116.0988,-0.0002998197
116.1988,-0.0002993197
116.2988,-0.0002988187
116.3988,-0.0002983469
116.4988,-0.0002978845
116.5988,-0.000297408
116.6988,-0.0002969183
116.7988,-0.0002965077
116.8988,-0.0002960641
116.9988,-0.0002955622
117.0988,-0.0002951488
117.1988,-0.0002947146
117.2988,-0.0002941562
117.3988,-0.0002937362
117.4988,-0.0002933453
117.5988,-0.0002928698
117.6988,-0.0002924074
117.7988,-0.0002919582
117.8988,-0.0002915504
117.9988,-0.0002911577
118.0988,-0.0002907189
118.1988,-0.0002902433
118.2988,-0.0002898336
118.3988,-0.0002894136
118.4988,-0.0002889729
118.5988,-0.0002885312
118.6988,-0.0002880726
118.7988,-0.0002875961
118.8988,-0.0002871685
118.9988,-0.0002867617
119.0988,-0.0002863097
119.1988,-0.000285835
119.2988,-0.0002854414
119.3988,-0.00028498
119.4987,-0.0002845675
119.5987,-0.0002841691
119.6987,-0.0002837623
119.7987,-0.0002833206
119.8987,-0.000282895
119.9987,-0.0002824392
120.0987,-0.0002820417
120.1987,-0.0002816688
120.2987,-0.0002811838
120.3987,-0.000280744
120.4987,-0.0002803363
120.5987,-0.0002798795
120.6987,-0.0002794417
120.7987,-0.000279048
120.8987,-0.0002785724
120.9987,-0.0002781363
121.0987,-0.0002777117
121.1987,-0.0002773011
121.2987,-0.0002769686
121.3987,-0.0002765693
121.4987,-0.0002760194
121.5987,-0.0002756238
121.6987,-0.0002752519
121.7987,-0.0002747998
121.8987,-0.0002743761
121.9987,-0.0002739617
122.0987,-0.0002734927
122.1987,-0.0002730953
122.2987,-0.0002727572
122.3987,-0.0002722958
122.4987,-0.0002718729
122.5987,-0.0002715094
122.6987,-0.0002710489
122.7987,-0.0002706534
122.8987,-0.0002702475
122.9987,-0.0002698247
123.0987,-0.0002694122
123.1987,-0.0002690364
123.2987,-0.0002686616
123.3987,-0.0002682077
123.4987,-0.000267816
123.5987,-0.0002673705
123.6987,-0.0002669807
123.7987,-0.0002666491
123.8987,-0.0002662451
123.9987,-0.0002658431
124.0987,-0.0002654532
124.1987,-0.0002650425
124.2987,-0.0002646404
124.3987,-0.0002643052
124.4987,-0.0002638917
124.5987,-0.0002635038
124.6987,-0.0002631591
124.7987,-0.0002627231
124.8987,-0.0002623454
124.9987,-0.0002619885
125.0987,-0.0002615902
125.1987,-0.0002612078
125.2987,-0.0002608509
125.3987,-0.0002604281
125.4987,-0.000260058
125.5987,-0.0002597152
125.6987,-0.0002592942
125.7987,-0.0002589166
125.8987,-0.0002585776
125.9986,-0.0002582037
126.0986,-0.0002578006
126.1986,-0.0002574663
126.2986,-0.0002571009
126.3986,-0.0002567666
126.4986,-0.0002563626
126.5986,-0.0002559925
126.6986,-0.0002556572
126.7986,-0.0002552579
126.8986,-0.0002548718
126.9986,-0.0002546326
127.0986,-0.0002542757
127.1986,-0.0002537908
127.2986,-0.0002535628
127.3986,-0.0002532728
127.4986,-0.000252883
127.5986,-0.000252575
127.6986,-0.0002522482
127.7986,-0.0002519506
127.8986,-0.0002516455
127.9986,-0.0002512773
128.0986,-0.0002509966
128.1986,-0.0002507019
128.2986,-0.0002503996
128.3986,-0.0002501114
128.4986,-0.0002498505
128.5986,-0.0002495313
128.6987,-0.0002492102
128.7987,-0.0002489248
128.8987,-0.0002486338
128.9987,-0.0002482383
129.0987,-0.0002479605
129.1987,-0.0002476441
129.2987,-0.0002472504
129.3987,-0.0002469736
129.4987,-0.000246626
129.5987,-0.0002461816
129.6987,-0.0002458538
129.7987,-0.0002455176
129.8987,-0.0002451108
129.9987,-0.0002447935
130.0987,-0.000244429
130.1987,-0.0002440269
130.2988,-0.0002436539
130.3988,-0.0002433243
130.4988,-0.0002429326
130.5988,-0.0002425728
130.6988,-0.0002422178
130.7988,-0.0002418581
130.8988,-0.0002415454
130.9988,-0.0002411358
131.0988,-0.0002407939
131.1988,-0.0002404596
131.2988,-0.0002401168
131.3988,-0.0002397382
131.4988,-0.0002394491
131.5988,-0.0002390592
131.6988,-0.000238707
131.7988,-0.0002384207
131.8988,-0.0002380921
131.9989,-0.0002376768
132.0989,-0.0002373952
132.1989,-0.0002370722
132.2989,-0.0002367332
132.3989,-0.0002364073
132.4989,-0.0002360834
132.5989,-0.000235702
132.6989,-0.0002354082
132.7989,-0.0002350955
132.8989,-0.000234747
132.9989,-0.0002344221
133.0989,-0.0002341246
133.1989,-0.0002337554
133.2989,-0.0002334672
133.3989,-0.0002331358
133.4989,-0.0002327939
133.599,-0.0002325048
133.699,-0.0002321818
133.799,-0.0002318465
133.899,-0.000231547
133.999,-0.0002312297
134.099,-0.0002309001
134.199,-0.0002306175
134.299,-0.0002302945
134.399,-0.0002299612
134.499,-0.0002296617
134.599,-0.0002293151
134.699,-0.0002289987
134.799,-0.000228736
134.899,-0.0002283923
134.999,-0.0002280975
135.099,-0.0002278018
135.1991,-0.000227507
135.2991,-0.0002271897
135.3991,-0.0002268525
135.4991,-0.0002265662
135.5991,-0.0002262837
135.6991,-0.0002259447
135.7991,-0.0002256358
135.8991,-0.0002253919
135.9991,-0.0002250962
136.0991,-0.0002247562
136.1991,-0.0002244841
136.2991,-0.0002242355
136.3991,-0.0002238851
136.4991,-0.0002235932
136.5991,-0.0002233464
136.6991,-0.0002230357
136.7991,-0.0002226863
136.8992,-0.000222416
136.9992,-0.0002221467
137.0992,-0.0002218331
137.1992,-0.0002215233
137.2992,-0.0002212464
137.3992,-0.0002209591
137.4992,-0.0002207106
137.5992,-0.0002204148
137.6992,-0.000220105
137.7992,-0.0002198404
137.8992,-0.0002195419
137.9992,-0.0002192452
138.0992,-0.0002189665
138.1992,-0.0002186773
138.2992,-0.0002183487
138.3992,-0.0002181114
138.4993,-0.0002178401
138.5993,-0.0002175444
138.6993,-0.0002172949
138.7993,-0.0002170086
138.8993,-0.000216663
138.9993,-0.0002164125
139.0993,-0.0002161356
139.1993,-0.000215839
139.2993,-0.0002155856
139.3993,-0.000215305
139.4993,-0.00021503
139.5993,-0.0002147729
139.6993,-0.0002145045
139.7993,-0.0002142409
139.8993,-0.00021398
139.9993,-0.0002136758
140.0993,-0.0002134159
140.1994,-0.0002131692
140.2994,-0.0002128575
140.3994,-0.0002125731
140.4994,-0.0002123583
140.5994,-0.000212072
140.6994,-0.0002117688
140.7994,-0.0002115221
140.8994,-0.0002112348
140.9994,-0.0002110088
141.0994,-0.0002107499
141.1994,-0.000210457
141.2994,-0.0002101585
141.3994,-0.0002099974
141.4994,-0.0002097074
141.5994,-0.0002094022
141.6994,-0.0002090962
141.7995,-0.0002089464
141.8995,-0.0002086432
141.9995,-0.0002084021
142.0995,-0.0002080961
142.1995,-0.000207871
142.2995,-0.0002076195
142.3995,-0.0002073803
142.4995,-0.0002070988
142.5995,-0.0002068869
142.6995,-0.0002066326
142.7995,-0.0002064169
142.8995,-0.0002061843
142.9995,-0.0002058896
143.0995,-0.0002056475
143.1995,-0.0002054347
143.2995,-0.0002051767
143.3996,-0.0002049299
143.4996,-0.0002046559
143.5996,-0.0002044393
143.6996,-0.0002041794
143.7996,-0.0002039675
143.8996,-0.0002037453
143.9996,-0.0002034618
144.0996,-0.0002032508
144.1996,-0.000202973
144.2996,-0.0002027357
144.3996,-0.0002025163
144.4996,-0.000202263
144.5996,-0.0002020709
144.6996,-0.0002018128
144.7996,-0.0002015877
144.8996,-0.0002013598
144.9996,-0.0002011592
145.0997,-0.0002009361
145.1997,-0.0002006856
145.2997,-0.0002004219
145.3997,-0.0002002392
145.4997,-0.0002000264
145.5997,-0.0001997401
145.6997,-0.0001995291
145.7997,-0.0001993285
145.8997,-0.0001990696
145.9997,-0.0001988407
146.0997,-0.0001986486
146.1997,-0.0001984085
146.2997,-0.0001981985
146.3997,-0.0001979545
146.4997,-0.0001976909
146.5997,-0.0001974724
146.6998,-0.0001972577
146.7998,-0.0001970024
146.8998,-0.0001967896
146.9998,-0.0001965363
147.0998,-0.0001962877
147.1998,-0.0001960956
147.2998,-0.0001958658
147.3998,-0.0001956096
147.4998,-0.0001953751
147.5998,-0.0001951397
147.6998,-0.0001948892
147.7998,-0.0001946754
147.8998,-0.0001944683
147.9998,-0.0001941904
148.0998,-0.0001939654
148.1998,-0.0001937497
148.2999,-0.0001934738
148.3999,-0.0001932892
148.4999,-0.0001930924
148.5999,-0.0001927807
148.6999,-0.0001925697
148.7999,-0.0001923625
148.8999,-0.0001921111
148.9999,-0.0001918578
149.0999,-0.0001916553
149.1999,-0.0001914029
149.2999,-0.000191224
149.3999,-0.0001909782
149.4999,-0.0001907333
149.5999,-0.0001905102
149.6999,-0.0001902964
149.7999,-0.0001900459
149.8999,-0.0001898491
150,-0.0001896014
150.1,-0.0001893057
150.2,-0.0001891644
150.3,-0.0001889299
150.4,-0.0001886625
150.5,-0.0001884572
150.6,-0.0001882425
150.7,-0.0001880117
150.8,-0.0001878168
150.9,-0.0001876115
151,-0.0001873619
151.1,-0.0001871651
151.2,-0.0001869579
151.3,-0.0001866792
151.4,-0.000186504
151.5,-0.0001863176
151.6001,-0.0001860511
151.7001,-0.0001858458
151.8001,-0.0001856037
151.9001,-0.0001853674
152.0001,-0.0001852327
152.1001,-0.0001850189
152.2001,-0.0001847392
152.3001,-0.0001845113
152.4001,-0.0001843173
152.5001,-0.0001840781
152.6001,-0.0001838832
152.7001,-0.0001836478
152.8001,-0.0001833916
152.9001,-0.0001832051
153.0001,-0.0001830046
153.1001,-0.0001827597
153.2001,-0.0001825299
153.3002,-0.0001823303
153.4002,-0.0001820996
153.5002,-0.0001819536
153.6002,-0.0001816908
153.7002,-0.0001814563
153.8002,-0.0001812755
153.9002,-0.0001810778
154.0002,-0.0001808339
154.1002,-0.0001806465
154.2002,-0.0001804468
154.3002,-0.0001801784
154.4002,-0.000180024
154.5002,-0.0001798752
154.6002,-0.0001796068
154.7002,-0.0001794175
154.8002,-0.0001792066
154.9003,-0.00017899
155.0003,-0.0001788289
155.1003,-0.0001786406
155.2003,-0.000178375
155.3003,-0.000178198
155.4003,-0.0001780275
155.5003,-0.0001777911
155.6003,-0.0001775613
155.7003,-0.0001774088
155.8003,-0.000177163
155.9003,-0.0001770236
156.0003,-0.0001768956
156.1003,-0.0001766629
156.2003,-0.0001764869
156.3003,-0.00017629
156.4003,-0.0001761695
156.5004,-0.0001759397
156.6004,-0.0001757561
156.7004,-0.0001755894
156.8004,-0.0001753888
156.9004,-0.0001752127
157.0004,-0.0001750074
157.1004,-0.0001748473
157.2004,-0.0001746702
157.3004,-0.0001744565
157.4004,-0.0001743152
157.5004,-0.0001741579
157.6004,-0.000173931
157.7004,-0.0001737671
157.8004,-0.0001736014
157.9004,-0.0001733744
158.0004,-0.0001732529
158.1004,-0.0001730759
158.2005,-0.0001728423
158.3005,-0.0001726756
158.4005,-0.0001725146
158.5005,-0.0001723084
158.6005,-0.0001721549
158.7005,-0.0001719816
158.8005,-0.0001717697
158.9005,-0.0001716379
159.0005,-0.0001714373
159.1005,-0.0001712574
159.2005,-0.0001710832
159.3005,-0.0001709118
159.4005,-0.0001707093
159.5005,-0.0001705247
159.6005,-0.0001703562
159.7005,-0.0001701509
159.8006,-0.0001699804
159.9006,-0.0001698005
160.0006,-0.0001696056
160.1006,-0.0001694163
160.2006,-0.0001692996
160.3006,-0.0001690914
160.4006,-0.000168952
160.5006,-0.0001687778
160.6006,-0.0001685848
160.7006,-0.0001684671
160.8006,-0.0001682702
160.9006,-0.0001680518
161.0006,-0.0001678794
161.1006,-0.0001677551
161.2006,-0.0001674924
161.3006,-0.0001673229
161.4007,-0.0001672287
161.5007,-0.0001669829
161.6007,-0.0001667851
161.7007,-0.0001666391
161.8007,-0.0001664329
161.9007,-0.0001662709
162.0007,-0.0001661287
162.1007,-0.000165914
162.2007,-0.000165769
162.3007,-0.0001656155
162.4007,-0.0001654441
162.5007,-0.0001653405
162.6007,-0.0001651691
162.7007,-0.0001649827
162.8007,-0.0001648254
162.9007,-0.0001647086
163.0007,-0.0001645306
163.1008,-0.0001643715
163.2008,-0.0001642057
163.3008,-0.0001640353
163.4008,-0.0001638884
163.5008,-0.0001637283
163.6008,-0.0001635051
163.7008,-0.0001634335
163.8008,-0.0001632555
163.9008,-0.0001630314
164.0008,-0.0001628826
164.1008,-0.0001627395
164.2008,-0.0001625229
164.3008,-0.0001623938
164.4008,-0.0001622187
164.5008,-0.0001620275
164.6008,-0.0001618721
164.7009,-0.0001617045
164.8009,-0.0001615199
164.9009,-0.0001613438
165.0009,-0.0001611903
165.1009,-0.0001610095
165.2009,-0.0001608456
165.3009,-0.0001606855
165.4009,-0.0001604934
165.5009,-0.0001603719
165.6009,-0.0001602052
165.7009,-0.000159999
165.8009,-0.0001598144
165.9009,-0.0001596751
166.0009,-0.000159498
166.1009,-0.0001593426
166.2009,-0.0001591524
166.3009,-0.0001589537
166.401,-0.0001588134
166.501,-0.0001586589
166.601,-0.0001584715
166.701,-0.0001583124
166.801,-0.0001581768
166.901,-0.0001580195
167.001,-0.0001578792
167.101,-0.0001577021
167.201,-0.0001574996
167.301,-0.000157364
167.401,-0.0001572181
167.501,-0.0001570391
167.601,-0.0001569045
167.701,-0.0001567434
167.801,-0.00015654
167.901,-0.000156427
168.0011,-0.0001562462
168.1011,-0.0001560682
168.2011,-0.0001559618
168.3011,-0.0001557913
168.4011,-0.0001555804
168.5011,-0.0001554646
168.6011,-0.0001553299
168.7011,-0.0001551491
168.8011,-0.000155005
168.9011,-0.0001548496
169.0011,-0.0001546632
169.1011,-0.0001545709
169.2011,-0.0001544032
169.3011,-0.0001541866
169.4011,-0.0001540783
169.5011,-0.0001539653
169.6012,-0.0001537817
169.7012,-0.0001536461
169.8012,-0.0001534879
169.9012,-0.0001532882
170.0012,-0.0001531658
170.1012,-0.0001530565
170.2012,-0.0001528484
170.3012,-0.0001527213
170.4012,-0.0001525631
170.5012,-0.0001524162
170.6012,-0.0001523474
170.7012,-0.000152177
170.8012,-0.0001519698
170.9012,-0.0001518182
171.0012,-0.0001517127
171.1012,-0.0001515357
171.2012,-0.0001514057
171.3013,-0.0001512729
171.4013,-0.0001510648
171.5013,-0.0001509527
171.6013,-0.0001508152
171.7013,-0.0001506721
171.8013,-0.000150496
171.9013,-0.0001503566
172.0013,-0.0001502116
172.1013,-0.0001501579
172.2013,-0.0001499837
172.3013,-0.0001497841
172.4013,-0.000149671
172.5013,-0.0001495364
172.6013,-0.0001493763
172.7013,-0.000149252
172.8013,-0.0001491211
172.9014,-0.000148945
173.0014,-0.0001488028
173.1014,-0.0001487048
173.2014,-0.0001485334
173.3014,-0.000148411
173.4014,-0.0001482358
173.5014,-0.0001480927
173.6014,-0.0001480296
173.7014,-0.0001479458
173.8014,-0.0001476962
173.9014,-0.0001475653
174.0014,-0.0001474947
174.1014,-0.0001473468
174.2014,-0.000147167
174.3014,-0.0001470464
174.4014,-0.0001468816
174.5014,-0.0001467809
174.6015,-0.000146682
174.7015,-0.0001465078
174.8015,-0.0001463759
174.9015,-0.0001462742
175.0015,-0.0001461217
175.1015,-0.000145986
175.2015,-0.0001458335
175.3015,-0.000145696
175.4015,-0.0001455858
175.5015,-0.0001454351
175.6015,-0.0001452958
175.7015,-0.0001452082
175.8015,-0.000145081
175.9015,-0.0001449143
176.0015,-0.0001447929
176.1015,-0.000144662
176.2016,-0.0001445113
176.3016,-0.0001444105
176.4016,-0.0001443098
176.5016,-0.0001441657
176.6016,-0.0001440197
176.7016,-0.0001439265
176.8016,-0.0001438059
176.9016,-0.0001436119
177.0016,-0.0001435394
177.1016,-0.0001434085
177.2016,-0.0001432889
177.3016,-0.0001431505
177.4016,-0.0001430507
177.5016,-0.0001429791
177.6016,-0.000142836
177.7016,-0.0001426796
177.8017,-0.0001425393
177.9017,-0.0001424244
178.0017,-0.0001422813
178.1017,-0.0001421786
178.2017,-0.0001420684
178.3017,-0.0001419036
178.4017,-0.0001417765
178.5017,-0.0001417002
178.6017,-0.0001415232
178.7017,-0.0001414384
178.8017,-0.0001413527
178.9017,-0.0001411926
179.0017,-0.0001411022
179.1017,-0.0001409506
179.2017,-0.0001408423
179.3017,-0.0001407227
179.4017,-0.0001405683
179.5018,-0.0001404392
179.6018,-0.0001403517
179.7018,-0.0001402273
179.8018,-0.0001400851
179.9018,-0.0001399985
180.0018,-0.0001398413
180.1018,-0.0001397141
180.2018,-0.0001396124
180.3018,-0.0001395107
180.4018,-0.0001393563
180.5018,-0.0001392094
180.6018,-0.0001391124
180.7018,-0.0001390116
180.8018,-0.0001389108
180.9018,-0.000138763
181.0018,-0.0001386236
181.1019,-0.0001385256
181.2019,-0.0001384023
181.3019,-0.0001382526
181.4019,-0.0001381678
181.5019,-0.0001380322
181.6019,-0.0001378646
181.7019,-0.0001377873
181.8019,-0.0001376705
181.9019,-0.0001375397
182.0019,-0.0001374323
182.1019,-0.0001372854
182.2019,-0.0001371564
182.3019,-0.0001370556
182.4019,-0.0001369445
182.5019,-0.00013679
182.6019,-0.0001366846
182.702,-0.0001366262
182.802,-0.0001364548
182.902,-0.000136371
183.002,-0.0001362307
183.102,-0.0001360583
183.202,-0.0001359943
183.302,-0.0001358822
183.402,-0.0001357193
183.502,-0.0001356185
183.602,-0.0001355065
183.702,-0.0001353492
183.802,-0.0001352644
183.902,-0.0001351486
184.002,-0.0001350064
184.102,-0.000134883
184.202,-0.0001348162
184.302,-0.0001346749
184.4021,-0.000134544
184.5021,-0.0001344357
184.6021,-0.000134301
184.7021,-0.0001342201
184.8021,-0.0001340901
184.9021,-0.0001339488
185.0021,-0.00013385
185.1021,-0.0001337464
185.2021,-0.0001336362
185.3021,-0.0001335787
185.4021,-0.0001334262
185.5021,-0.0001332482
185.6021,-0.000133155
185.7021,-0.0001330419
185.8021,-0.0001328979
185.9021,-0.0001328075
186.0022,-0.0001326577
186.1022,-0.0001325193
186.2022,-0.0001324364
186.3022,-0.0001323309
186.4022,-0.000132168
186.5022,-0.000132071
186.6022,-0.0001319429
186.7022,-0.0001318158
186.8022,-0.0001317386
186.9022,-0.0001315964
187.0022,-0.0001314466
187.1022,-0.000131361
187.2022,-0.000131263
187.3022,-0.0001310992
187.4022,-0.0001309899
187.5022,-0.000130875
187.6022,-0.0001307582
187.7023,-0.000130666
187.8023,-0.0001305558
187.9023,-0.0001304051
188.0023,-0.0001303081
188.1023,-0.0001302318
188.2023,-0.0001300821
188.3023,-0.0001299634
188.4023,-0.0001298382
188.5023,-0.0001296932
188.6023,-0.0001296206
188.7023,-0.0001295086
188.8023,-0.0001293758
188.9023,-0.0001292731
189.0023,-0.0001291385
189.1023,-0.000129065
189.2023,-0.0001289746
189.3024,-0.0001288447
189.4024,-0.0001286874
189.5024,-0.000128596
189.6024,-0.0001285056
189.7024,-0.0001283813
189.8024,-0.0001282608
189.9024,-0.0001281591
190.0024,-0.0001280423
190.1024,-0.0001279519
190.2024,-0.0001278624
190.3024,-0.0001277391
190.4024,-0.0001276383
190.5024,-0.0001275733
190.6024,-0.0001274669
190.7024,-0.000127368
190.8024,-0.0001272682
190.9025,-0.0001271947
191.0025,-0.0001270667
191.1025,-0.0001269602
191.2025,-0.0001268924
191.3025,-0.0001267964
191.4025,-0.0001266702
191.5025,-0.0001265318
191.6025,-0.0001264272
191.7025,-0.0001263199
191.8025,-0.0001262426
191.9025,-0.000126156
192.0025,-0.0001260025
192.1025,-0.0001258904
192.2025,-0.0001257793
192.3025,-0.0001257059
192.4025,-0.0001256183
192.5025,-0.0001254883
192.6026,-0.0001253612
192.7026,-0.0001252745
192.8026,-0.0001251776
192.9026,-0.0001250579
193.0026,-0.0001249986
193.1026,-0.0001249007
193.2026,-0.0001247528
193.3026,-0.0001246587
193.4026,-0.0001245551
193.5026,-0.0001244609
193.6026,-0.0001243903
193.7026,-0.000124282
193.8026,-0.0001241624
193.9026,-0.0001240625
194.0026,-0.0001239552
194.1026,-0.000123861
194.2027,-0.0001237913
194.3027,-0.0001236454
194.4027,-0.0001235502
194.5027,-0.0001234655
194.6027,-0.000123376
194.7027,-0.0001232621
194.8027,-0.0001231585
194.9027,-0.0001230841
195.0027,-0.0001229569
195.1027,-0.0001228929
195.2027,-0.0001228072
195.3027,-0.0001226697
195.4027,-0.0001226217
195.5027,-0.0001225181
195.6027,-0.0001223834
195.7027,-0.0001223335
195.8027,-0.000122228
195.9028,-0.0001221471
196.0028,-0.0001220906
196.1028,-0.0001219389
196.2028,-0.0001218353
196.3028,-0.0001217468
196.4028,-0.0001216743
196.5028,-0.0001215538
196.6028,-0.0001214464
196.7028,-0.0001213654
196.8028,-0.0001212232
196.9028,-0.0001211535
197.0028,-0.0001211046
197.1028,-0.000120968
197.2028,-0.0001209011
197.3028,-0.0001208051
197.4028,-0.0001207128
197.5029,-0.0001206601
197.6029,-0.0001205678
197.7029,-0.000120467
197.8029,-0.0001204096
197.9029,-0.0001202937
198.0029,-0.0001202043
198.1029,-0.0001201327
198.2029,-0.000120079
198.3029,-0.0001199594
198.4029,-0.0001198747
198.5029,-0.0001197861
198.6029,-0.0001196694
198.7029,-0.0001196345
198.8029,-0.0001195234
198.9029,-0.0001194104
199.0029,-0.0001193247
199.103,-0.0001192484
199.203,-0.0001191439
199.303,-0.0001190893
199.403,-0.0001190054
199.503,-0.0001188406
199.603,-0.0001188388
199.703,-0.0001187408
199.803,-0.0001186099
199.903,-0.000118511
200.003,-0.0001184395
200.103,-0.000118334
200.203,-0.0001182756
200.303,-0.0001181786
200.403,-0.0001180242
200.503,-0.0001180025
200.603,-0.0001179441
200.703,-0.0001178047
200.8031,-0.000117703
200.9031,-0.0001176795
201.0031,-0.00011759
201.1031,-0.0001174893
201.2031,-0.0001174092
201.3031,-0.0001173103
201.4031,-0.0001172209
201.5031,-0.0001171531
201.6031,-0.0001170419
201.7031,-0.0001169609
201.8031,-0.0001168771
201.9031,-0.0001167764
202.0031,-0.000116701
202.1031,-0.0001166276
202.2031,-0.0001165042
202.3031,-0.0001164458
202.4032,-0.0001163658
202.5032,-0.0001162207
202.6032,-0.0001161501
202.7032,-0.000116103
202.8032,-0.0001159815
202.9032,-0.000115926
203.0032,-0.0001158214
203.1032,-0.0001157226
203.2032,-0.0001156388
203.3032,-0.0001155606
203.4032,-0.000115457
203.5032,-0.0001153911
203.6032,-0.0001152978
203.7032,-0.0001152056
203.8032,-0.0001151255
203.9032,-0.0001150699
204.0033,-0.000114956
204.1033,-0.0001148449
204.2033,-0.0001147827
204.3033,-0.0001146678
204.4033,-0.0001146311
204.5033,-0.0001145134
204.6033,-0.0001143768
204.7033,-0.0001143486
204.8033,-0.0001142723
204.9033,-0.0001141791
205.0033,-0.0001141009
205.1033,-0.0001140171
205.2033,-0.0001139022
205.3033,-0.0001138626
205.4033,-0.0001137543
205.5033,-0.0001136423
205.6033,-0.0001135886
205.7034,-0.0001134907
205.8034,-0.000113372
205.9034,-0.0001133051
206.0034,-0.0001132524
206.1034,-0.0001131469
206.2034,-0.0001130368
206.3034,-0.0001129755
206.4034,-0.0001128729
206.5034,-0.0001128145
206.6034,-0.0001127232
206.7034,-0.0001126064
206.8034,-0.0001125546
206.9034,-0.0001124792
207.0034,-0.0001123738
207.1034,-0.0001123417
207.2034,-0.0001122297
207.3035,-0.0001121167
207.4035,-0.000112046
207.5035,-0.0001119943
207.6035,-0.0001118728
207.7035,-0.0001117842
207.8035,-0.0001116967
207.9035,-0.0001116119
208.0035,-0.0001115224
208.1035,-0.0001114264
208.2035,-0.0001113435
208.3035,-0.0001112691
208.4035,-0.0001111928
208.5035,-0.0001111006
208.6035,-0.0001110101
208.7035,-0.0001109376
208.8035,-0.0001108783
208.9035,-0.0001107644
209.0036,-0.0001106984
209.1036,-0.000110609
209.2036,-0.0001105317
209.3036,-0.0001104602
209.4036,-0.0001103754
209.5036,-0.0001103038
209.6036,-0.0001102031
209.7036,-0.0001101579
209.8036,-0.0001100807
209.9036,-0.0001099742
210.0036,-0.0001099121
210.1036,-0.0001098546
210.2036,-0.0001097878
210.3036,-0.0001096936
210.4036,-0.0001095975
210.5036,-0.0001095156
210.6037,-0.0001094393
210.7037,-0.0001093932
210.8037,-0.0001092896
210.9037,-0.0001092284
211.0037,-0.0001091333
211.1037,-0.0001090485
211.2037,-0.0001089911
211.3037,-0.0001089101
211.4037,-0.0001088281
211.5037,-0.0001087396
211.6037,-0.000108669
211.7037,-0.0001085692
211.8037,-0.0001085108
211.9037,-0.0001084581
212.0037,-0.0001083328
212.1037,-0.0001082923
212.2038,-0.0001082057
212.3038,-0.0001081379
212.4038,-0.0001080795
212.5038,-0.0001079862
212.6038,-0.000107909
212.7038,-0.0001078337
212.8038,-0.0001077838
212.9038,-0.000107667
213.0038,-0.0001075983
213.1038,-0.0001075389
213.2038,-0.0001074466
213.3038,-0.0001073741
213.4038,-0.0001072969
213.5038,-0.0001072489
213.6038,-0.0001071811
213.7038,-0.000107102
213.8038,-0.0001070634
213.9039,-0.0001069786
214.0039,-0.0001069146
214.1039,-0.0001068072
214.2039,-0.000106729
214.3039,-0.0001066942
214.4039,-0.0001065944
214.5039,-0.0001065134
214.6039,-0.0001064606
214.7039,-0.0001063928
214.8039,-0.0001063166
214.9039,-0.0001062657
215.0039,-0.0001061546
215.1039,-0.0001060745
215.2039,-0.0001060114
215.3039,-0.0001059606
215.4039,-0.0001058438
215.504,-0.0001057939
215.604,-0.0001057487
215.704,-0.0001056592
215.804,-0.0001055726
215.904,-0.0001055067
216.004,-0.0001054059
216.104,-0.0001053805
216.204,-0.0001052995
216.304,-0.0001051959
216.404,-0.0001051262
216.504,-0.0001050819
216.604,-0.0001049915
216.704,-0.0001049181
216.804,-0.0001048672
216.904,-0.0001047608
217.004,-0.0001046996
217.104,-0.0001046252
217.2041,-0.0001045659
217.3041,-0.000104499
217.4041,-0.0001044152
217.5041,-0.0001043163
217.6041,-0.0001042862
217.7041,-0.0001042372
217.8041,-0.0001041412
217.9041,-0.0001040555
218.0041,-0.000104015
218.1041,-0.0001039368
218.2041,-0.000103868
218.3041,-0.0001037805
218.4041,-0.0001036741
218.5041,-0.0001036637
218.6041,-0.0001036006
218.7041,-0.0001034998
218.8042,-0.0001034462
218.9042,-0.0001034584
219.0042,-0.0001033021
219.1042,-0.0001032399
219.2042,-0.0001031853
219.3042,-0.0001031071
219.4042,-0.0001030035
219.5042,-0.0001029376
219.6042,-0.0001028934
219.7042,-0.0001028114
219.8042,-0.0001027352
219.9042,-0.0001026636
220.0042,-0.0001025854
220.1042,-0.0001025261
220.2042,-0.0001024809
220.3042,-0.0001023952
220.4043,-0.0001023368
220.5043,-0.000102253
220.6043,-0.0001021739
220.7043,-0.0001021127
220.8043,-0.0001020835
220.9043,-0.0001019884
221.0043,-0.0001019008
221.1043,-0.0001018424
221.2043,-0.0001017859
221.3043,-0.0001017237
221.4043,-0.0001016625
221.5043,-0.0001015947
221.6043,-0.0001015222
221.7043,-0.0001014666
221.8043,-0.0001014148
221.9043,-0.0001013244
222.0043,-0.0001012981
222.1044,-0.0001012152
222.2044,-0.0001011408
222.3044,-0.0001010852
222.4044,-0.0001009939
222.5044,-0.0001009204
222.6044,-0.0001008809
222.7044,-0.0001008065
222.8044,-0.0001006916
222.9044,-0.0001006775
223.0044,-0.0001006134
223.1044,-0.0001005164
223.2044,-0.0001004609
223.3044,-0.0001003912
223.4044,-0.0001003055
223.5044,-0.0001002782
223.6044,-0.0001002424
223.7045,-0.0001001209
223.8045,-0.0001000418
223.9045,-0.0001000051
224.0045,-9.99382E-05
224.1045,-9.988358E-05
224.2045,-9.981296E-05
224.3045,-9.970936E-05
224.4045,-9.965475E-05
224.5045,-9.962084E-05
224.6045,-9.953891E-05
224.7045,-9.945886E-05
224.8045,-9.937599E-05
224.9045,-9.930913E-05
225.0045,-9.927617E-05
225.1045,-9.920271E-05
225.2045,-9.911042E-05
225.3046,-9.909818E-05
225.4046,-9.901437E-05
225.5046,-9.894469E-05
225.6046,-9.889383E-05
225.7046,-9.882131E-05
225.8046,-9.877141E-05
225.9046,-9.870547E-05
226.0046,-9.864709E-05
226.1046,-9.856045E-05
226.2046,-9.853314E-05
226.3046,-9.846628E-05
226.4046,-9.836928E-05
226.5046,-9.834857E-05
226.6046,-9.827228E-05
226.7046,-9.820071E-05
226.8046,-9.813855E-05
226.9046,-9.810842E-05
227.0047,-9.800388E-05
227.1047,-9.796622E-05
227.2047,-9.793891E-05
227.3047,-9.782401E-05
227.4047,-9.774303E-05
227.5047,-9.770536E-05
227.6047,-9.769123E-05
227.7047,-9.762814E-05
227.8047,-9.754056E-05
227.9047,-9.746616E-05
228.0047,-9.739836E-05
228.1047,-9.735504E-05
228.2047,-9.729194E-05
228.3047,-9.719872E-05
228.4047,-9.713184E-05
228.5047,-9.706781E-05
228.6048,-9.70113E-05
228.7048,-9.697834E-05
228.8048,-9.687946E-05
228.9048,-9.68126E-05
229.0048,-9.678247E-05
229.1048,-9.668264E-05
229.2048,-9.666569E-05
229.3048,-9.658847E-05
229.4048,-9.649712E-05
229.5048,-9.64651E-05
229.6048,-9.642367E-05
229.7048,-9.634738E-05
229.8048,-9.628994E-05
229.9048,-9.623438E-05
230.0048,-9.614303E-05
230.1048,-9.610724E-05
230.2048,-9.606392E-05
230.3049,-9.597351E-05
230.4049,-9.591701E-05
230.5049,-9.585015E-05
230.6049,-9.58153E-05
230.7049,-9.572866E-05
230.8049,-9.568252E-05
230.9049,-9.563167E-05
231.0049,-9.554691E-05
231.1049,-9.551112E-05
231.2049,-9.543014E-05
231.3049,-9.537269E-05
231.4049,-9.533219E-05
231.5049,-9.526157E-05
231.6049,-9.517587E-05
231.7049,-9.512596E-05
231.8049,-9.50864E-05
231.905,-9.502519E-05
232.005,-9.497057E-05
232.105,-9.489524E-05
232.205,-9.482178E-05
232.305,-9.479259E-05
232.405,-9.473702E-05
232.505,-9.465604E-05
232.605,-9.460989E-05
232.705,-9.456374E-05
232.805,-9.451007E-05
232.905,-9.445262E-05
233.005,-9.436128E-05
233.105,-9.430948E-05
233.205,-9.423884E-05
233.305,-9.422567E-05
233.405,-9.414467E-05
233.5051,-9.408064E-05
233.6051,-9.399305E-05
233.7051,-9.394503E-05
233.8051,-9.392431E-05
233.9051,-9.38923E-05
234.0051,-9.377929E-05
234.1051,-9.371713E-05
234.2051,-9.375668E-05
234.3051,-9.368417E-05
234.4051,-9.355515E-05
234.5051,-9.348264E-05
234.6051,-9.352596E-05
234.7051,-9.342613E-05
234.8051,-9.334797E-05
234.9051,-9.32811E-05
235.0051,-9.327075E-05
235.1051,-9.319729E-05
235.2052,-9.315962E-05
235.3052,-9.310123E-05
235.4052,-9.303344E-05
235.5052,-9.298635E-05
235.6052,-9.294302E-05
235.7052,-9.291759E-05
235.8052,-9.282719E-05
235.9052,-9.273679E-05
236.0052,-9.27236E-05
236.1052,-9.268028E-05
236.2052,-9.258893E-05
236.3052,-9.254843E-05
236.4052,-9.2491E-05
236.5052,-9.23761E-05
236.6052,-9.238929E-05
236.7052,-9.233089E-05
236.8053,-9.225839E-05
236.9053,-9.220094E-05
237.0053,-9.213125E-05
237.1053,-9.205969E-05
237.2053,-9.202107E-05
237.3053,-9.198152E-05
237.4053,-9.187699E-05
237.5053,-9.184685E-05
237.6053,-9.179505E-05
237.7053,-9.172819E-05
237.8053,-9.170559E-05
237.9053,-9.162084E-05
238.0053,-9.152101E-05
238.1053,-9.148617E-05
238.2053,-9.145415E-05
238.3053,-9.138446E-05
238.4053,-9.134396E-05
238.5054,-9.127898E-05
238.6054,-9.120741E-05
238.7054,-9.11688E-05
238.8054,-9.114526E-05
238.9054,-9.103789E-05
239.0054,-9.099177E-05
239.1054,-9.09814E-05
239.2054,-9.090229E-05
239.3054,-9.08505E-05
239.4054,-9.081377E-05
239.5054,-9.079964E-05
239.6054,-9.074314E-05
239.7054,-9.067816E-05
239.8054,-9.059246E-05
239.9054,-9.053408E-05
240.0054,-9.05077E-05
240.1055,-9.041165E-05
240.2055,-9.036174E-05
240.3055,-9.031749E-05
240.4055,-9.024214E-05
240.5055,-9.022236E-05
240.6055,-9.019411E-05
240.7055,-9.009051E-05
240.8055,-9.008299E-05
240.9055,-9.002083E-05
241.0055,-8.994454E-05
241.1055,-8.991724E-05
241.2055,-8.988428E-05
241.3055,-8.979011E-05
241.4055,-8.976562E-05
241.5055,-8.971759E-05
241.6055,-8.962437E-05
241.7056,-8.960176E-05
241.8056,-8.956315E-05
241.9056,-8.949158E-05
242.0056,-8.945297E-05
242.1056,-8.938328E-05
242.2056,-8.931171E-05
242.3056,-8.927404E-05
242.4056,-8.920812E-05
242.5056,-8.918458E-05
242.6056,-8.912807E-05
242.7056,-8.904049E-05
242.8056,-8.898399E-05
242.9056,-8.894726E-05
243.0056,-8.889264E-05
243.1056,-8.877775E-05
243.2056,-8.877115E-05
243.3056,-8.874856E-05
243.4057,-8.864402E-05
243.5057,-8.859411E-05
243.6057,-8.855644E-05
243.7057,-8.850088E-05
243.8057,-8.845567E-05
243.9057,-8.843213E-05
244.0057,-8.83276E-05
244.1057,-8.828052E-05
244.2057,-8.828522E-05
244.3057,-8.81967E-05
244.4057,-8.812984E-05
244.5057,-8.808557E-05
244.6057,-8.801966E-05
244.7057,-8.799328E-05
244.8057,-8.794243E-05
244.9057,-8.782378E-05
245.0058,-8.782942E-05
245.1058,-8.779552E-05
245.2058,-8.770888E-05
245.3058,-8.766745E-05
245.4058,-8.762507E-05
245.5058,-8.757421E-05
245.6058,-8.75356E-05
245.7058,-8.748098E-05
245.8058,-8.740658E-05
245.9058,-8.73774E-05
246.0058,-8.732936E-05
246.1058,-8.729264E-05
246.2058,-8.723896E-05
246.3058,-8.71495E-05
246.4058,-8.71137E-05
246.5058,-8.70751E-05
246.6059,-8.707039E-05
246.7059,-8.696962E-05
246.8059,-8.694513E-05
246.9059,-8.691029E-05
247.0059,-8.685285E-05
247.1059,-8.680294E-05
247.2059,-8.67436E-05
247.3059,-8.672572E-05
247.4059,-8.666261E-05
247.5059,-8.661365E-05
247.6059,-8.653925E-05
247.7059,-8.651383E-05
247.8059,-8.645449E-05
247.9059,-8.64253E-05
248.0059,-8.640929E-05
248.1059,-8.632171E-05
248.2059,-8.627275E-05
248.306,-8.627651E-05
248.406,-8.622E-05
248.506,-8.610888E-05
248.606,-8.614278E-05
248.706,-8.61004E-05
248.806,-8.601941E-05
248.906,-8.596856E-05
249.006,-8.594219E-05
249.106,-8.587439E-05
249.206,-8.58386E-05
249.306,-8.579717E-05
249.406,-8.571053E-05
249.506,-8.571053E-05
249.606,-8.56625E-05
249.706,-8.558245E-05
249.806,-8.553536E-05
249.9061,-8.549017E-05
250.0061,-8.546191E-05
250.1061,-8.54233E-05
250.2061,-8.537716E-05
250.3061,-8.529052E-05
250.4061,-8.52811E-05
250.5061,-8.526132E-05
250.6061,-8.518975E-05
250.7061,-8.513607E-05
250.8061,-8.510688E-05
250.9061,-8.509558E-05
251.0061,-8.502683E-05
251.1061,-8.498634E-05
251.2061,-8.494961E-05
251.3061,-8.487428E-05
251.4061,-8.484414E-05
251.5061,-8.479423E-05
251.6062,-8.47914E-05
251.7062,-8.472453E-05
251.8062,-8.465861E-05
251.9062,-8.463507E-05
252.0062,-8.460588E-05
252.1062,-8.458893E-05
252.2062,-8.451923E-05
252.3062,-8.451829E-05
252.4062,-8.442507E-05
252.5062,-8.440058E-05
252.6062,-8.438551E-05
252.7062,-8.432713E-05
252.8062,-8.426968E-05
252.9062,-8.423013E-05
253.0062,-8.417174E-05
253.1062,-8.4119E-05
253.2063,-8.4119E-05
253.3063,-8.404743E-05
253.4063,-8.398904E-05
253.5063,-8.395891E-05
253.6063,-8.392124E-05
253.7063,-8.38685E-05
253.8063,-8.385437E-05
253.9063,-8.375927E-05
254.0063,-8.371594E-05
254.1063,-8.369711E-05
254.2063,-8.366415E-05
254.3063,-8.358504E-05
254.4063,-8.354265E-05
254.5063,-8.347392E-05
254.6063,-8.344849E-05
254.7063,-8.341741E-05
254.8064,-8.336279E-05
254.9064,-8.333172E-05
255.0064,-8.325261E-05
255.1064,-8.320082E-05
255.2064,-8.316221E-05
255.3064,-8.312453E-05
255.4064,-8.306331E-05
255.5064,-8.303036E-05
255.6064,-8.29795E-05
255.7064,-8.292583E-05
255.8064,-8.291547E-05
255.9064,-8.28552E-05
256.0064,-8.279021E-05
256.1064,-8.276574E-05
256.2064,-8.273749E-05
256.3064,-8.268098E-05
256.4064,-8.262636E-05
256.5064,-8.258868E-05
256.6064,-8.253784E-05
256.7065,-8.251147E-05
256.8065,-8.245403E-05
256.9065,-8.238339E-05
257.0065,-8.237398E-05
257.1065,-8.232218E-05
257.2065,-8.224307E-05
257.3065,-8.221576E-05
257.4065,-8.219881E-05
257.5065,-8.217433E-05
257.6065,-8.207262E-05
257.7065,-8.204907E-05
257.8065,-8.20067E-05
257.9065,-8.193983E-05
258.0065,-8.191629E-05
258.1065,-8.187109E-05
258.2065,-8.178539E-05
258.3065,-8.174677E-05
258.4066,-8.175903E-05
258.5066,-8.166485E-05
258.6066,-8.162341E-05
258.7066,-8.158669E-05
258.8066,-8.153113E-05
258.9066,-8.14944E-05
259.0066,-8.144637E-05
259.1066,-8.14021E-05
259.2066,-8.135879E-05
259.3066,-8.129852E-05
259.4066,-8.126556E-05
259.5066,-8.120528E-05
259.6066,-8.119493E-05
259.7066,-8.113371E-05
259.8066,-8.108663E-05
259.9066,-8.104142E-05
260.0067,-8.098774E-05
260.1067,-8.096325E-05
260.2067,-8.091429E-05
260.3067,-8.088039E-05
260.4067,-8.081729E-05
260.5067,-8.076643E-05
260.6067,-8.073442E-05
260.7067,-8.067509E-05
260.8067,-8.061576E-05
260.9067,-8.057809E-05
261.0067,-8.058092E-05
261.1067,-8.048958E-05
261.2067,-8.043589E-05
261.3067,-8.03775E-05
261.4067,-8.033041E-05
261.5067,-8.026544E-05
261.6068,-8.026167E-05
261.7068,-8.02014E-05
261.8068,-8.011852E-05
261.9068,-8.008745E-05
262.0068,-8.010158E-05
262.1068,-8.002247E-05
262.2068,-7.996503E-05
262.3068,-7.990006E-05
262.4068,-7.985861E-05
262.5068,-7.984825E-05
262.6068,-7.980305E-05
262.7068,-7.973524E-05
262.8068,-7.970793E-05
262.9068,-7.964954E-05
263.0068,-7.958739E-05
263.1068,-7.956667E-05
263.2068,-7.954501E-05
263.3069,-7.947344E-05
263.4069,-7.942635E-05
263.5069,-7.939056E-05
263.6069,-7.931806E-05
263.7069,-7.930111E-05
263.8069,-7.926249E-05
263.9069,-7.91815E-05
264.0069,-7.91429E-05
264.1069,-7.912406E-05
264.2069,-7.908168E-05
264.3069,-7.90054E-05
264.4069,-7.896114E-05
264.5069,-7.889899E-05
264.6069,-7.892629E-05
264.7069,-7.883683E-05
264.8069,-7.876244E-05
264.907,-7.876902E-05
265.007,-7.870216E-05
265.107,-7.863907E-05
265.207,-7.862964E-05
265.307,-7.860422E-05
265.407,-7.850816E-05
265.507,-7.848367E-05
265.607,-7.846296E-05
265.707,-7.839987E-05
265.807,-7.836219E-05
265.907,-7.834336E-05
266.007,-7.823506E-05
266.107,-7.825672E-05
266.207,-7.819834E-05
266.307,-7.809757E-05
266.407,-7.809287E-05
266.507,-7.803918E-05
266.6071,-7.799963E-05
266.7071,-7.796667E-05
266.8071,-7.795725E-05
266.9071,-7.788851E-05
267.0071,-7.788004E-05
267.1071,-7.785084E-05
267.2071,-7.775948E-05
267.3071,-7.774066E-05
267.4071,-7.770581E-05
267.5071,-7.76559E-05
267.6071,-7.763895E-05
267.7071,-7.760034E-05
267.8071,-7.750711E-05
267.9071,-7.749581E-05
268.0071,-7.749486E-05
268.1071,-7.743177E-05
268.2072,-7.739504E-05
268.3072,-7.735925E-05
268.4072,-7.732912E-05
268.5072,-7.729616E-05
268.6072,-7.726697E-05
268.7072,-7.721611E-05
268.8072,-7.716055E-05
268.9072,-7.711629E-05
269.0072,-7.708709E-05
269.1072,-7.707674E-05
269.2072,-7.704189E-05
269.3072,-7.695902E-05
269.4072,-7.694301E-05
269.5072,-7.692512E-05
269.6072,-7.688085E-05
269.7072,-7.684789E-05
269.8073,-7.678103E-05
269.9073,-7.679986E-05
270.0073,-7.674054E-05
270.1073,-7.670381E-05
270.2073,-7.664166E-05
270.3073,-7.65908E-05
270.4073,-7.660116E-05
270.5073,-7.655595E-05
270.6073,-7.652205E-05
270.7073,-7.647497E-05
270.8073,-7.645049E-05
270.9073,-7.641376E-05
271.0073,-7.637702E-05
271.1073,-7.632806E-05
271.2073,-7.626779E-05
271.3073,-7.624801E-05
271.4073,-7.623954E-05
271.5074,-7.620469E-05
271.6074,-7.618021E-05
271.7074,-7.615289E-05
271.8074,-7.60898E-05
271.9074,-7.604741E-05
272.0074,-7.602294E-05
272.1074,-7.602859E-05
272.2074,-7.595889E-05
272.3074,-7.590617E-05
272.4074,-7.590146E-05
272.5074,-7.587885E-05
272.6074,-7.582046E-05
272.7074,-7.576679E-05
272.8074,-7.574041E-05
272.9074,-7.572064E-05
273.0074,-7.568863E-05
273.1075,-7.566508E-05
273.2075,-7.559351E-05
273.3075,-7.55775E-05
273.4075,-7.554737E-05
273.5075,-7.551911E-05
273.6075,-7.547203E-05
273.7075,-7.542776E-05
273.8075,-7.537785E-05
273.9075,-7.536561E-05
274.0075,-7.533358E-05
274.1075,-7.529592E-05
274.2075,-7.524601E-05
274.3075,-7.520551E-05
274.4075,-7.516596E-05
274.5075,-7.515655E-05
274.6075,-7.510663E-05
274.7076,-7.504354E-05
274.8076,-7.501246E-05
274.9076,-7.501435E-05
275.0076,-7.495125E-05
275.1076,-7.494183E-05
275.2076,-7.490416E-05
275.3076,-7.484672E-05
275.4076,-7.481564E-05
275.5076,-7.481375E-05
275.6076,-7.475348E-05
275.7076,-7.470169E-05
275.8076,-7.464801E-05
275.9076,-7.46028E-05
276.0076,-7.456985E-05
276.1076,-7.457362E-05
276.2076,-7.450864E-05
276.3076,-7.44559E-05
276.4077,-7.447002E-05
276.5077,-7.441916E-05
276.6077,-7.438527E-05
276.7077,-7.43815E-05
276.8077,-7.430333E-05
276.9077,-7.42506E-05
277.0077,-7.425248E-05
277.1077,-7.419127E-05
277.2077,-7.417809E-05
277.3077,-7.412253E-05
277.4077,-7.408862E-05
277.5077,-7.404436E-05
277.6077,-7.402082E-05
277.7077,-7.399444E-05
277.8077,-7.395961E-05
277.9077,-7.390027E-05
278.0078,-7.385884E-05
278.1078,-7.384565E-05
278.2078,-7.383436E-05
278.3078,-7.378538E-05
278.4078,-7.371193E-05
278.5078,-7.371476E-05
278.6078,-7.368838E-05
278.7078,-7.364036E-05
278.8078,-7.359892E-05
278.9078,-7.355278E-05
279.0078,-7.351323E-05
279.1078,-7.353018E-05
279.2078,-7.346048E-05
279.3078,-7.343694E-05
279.4078,-7.341622E-05
279.5078,-7.333054E-05
279.6078,-7.33277E-05
279.7079,-7.330416E-05
279.8079,-7.326084E-05
279.9079,-7.320904E-05
280.0079,-7.318739E-05
280.1079,-7.314407E-05
280.2079,-7.31177E-05
280.3079,-7.308662E-05
280.4079,-7.30254E-05
280.5079,-7.298774E-05
280.6079,-7.295666E-05
280.7079,-7.292464E-05
280.8079,-7.289262E-05
280.9079,-7.289451E-05
281.0079,-7.284177E-05
281.1079,-7.279562E-05
281.2079,-7.277961E-05
281.308,-7.275042E-05
281.408,-7.269486E-05
281.508,-7.267696E-05
281.608,-7.261387E-05
281.708,-7.255454E-05
281.808,-7.253382E-05
281.908,-7.252535E-05
282.008,-7.25018E-05
282.108,-7.245754E-05
282.208,-7.239256E-05
282.308,-7.238597E-05
282.408,-7.236996E-05
282.508,-7.231627E-05
282.608,-7.22984E-05
282.708,-7.226825E-05
282.808,-7.221646E-05
282.9081,-7.218915E-05
283.0081,-7.215807E-05
283.1081,-7.213453E-05
283.2081,-7.212323E-05
283.3081,-7.207802E-05
283.4081,-7.199986E-05
283.5081,-7.19961E-05
283.6081,-7.200174E-05
283.7081,-7.192641E-05
283.8081,-7.188026E-05
283.9081,-7.194147E-05
284.0081,-7.194994E-05
284.1081,-7.184636E-05
284.2081,-7.179645E-05
284.3081,-7.18134E-05
284.4081,-7.175878E-05
284.5081,-7.172676E-05
284.6082,-7.168249E-05
284.7082,-7.163164E-05
284.8082,-7.162882E-05
284.9082,-7.161564E-05
285.0082,-7.156855E-05
285.1082,-7.153653E-05
285.2082,-7.152052E-05
285.3082,-7.147909E-05
285.4082,-7.143764E-05
285.5082,-7.142635E-05
285.6082,-7.138679E-05
285.7082,-7.135383E-05
285.8082,-7.130203E-05
285.9082,-7.128038E-05
286.0082,-7.131711E-05
286.1082,-7.132558E-05
286.2083,-7.12041E-05
286.3083,-7.116926E-05
286.4083,-7.116454E-05
286.5083,-7.112499E-05
286.6083,-7.108638E-05
286.7083,-7.101669E-05
286.8083,-7.100162E-05
286.9083,-7.101857E-05
287.0083,-7.100539E-05
287.1083,-7.093947E-05
287.2083,-7.088108E-05
287.3083,-7.091687E-05
287.4083,-7.086319E-05
287.5083,-7.08001E-05
287.6083,-7.076431E-05
287.7083,-7.072381E-05
287.8083,-7.06918E-05
287.9084,-7.067202E-05
288.0084,-7.064659E-05
288.1084,-7.06127E-05
288.2084,-7.057314E-05
288.3084,-7.052605E-05
288.4084,-7.052512E-05
288.5084,-7.050251E-05
288.6084,-7.045071E-05
288.7084,-7.042152E-05
288.8084,-7.036031E-05
288.9084,-7.037161E-05
289.0084,-7.0349E-05
289.1084,-7.030663E-05
289.2084,-7.025766E-05
289.3084,-7.021904E-05
289.4084,-7.018891E-05
289.5085,-7.015124E-05
289.6085,-7.014465E-05
289.7085,-7.011263E-05
289.8085,-7.009097E-05
289.9085,-7.004294E-05
290.0085,-6.999585E-05
290.1085,-6.998456E-05
290.2085,-6.996196E-05
290.3085,-6.992993E-05
290.4085,-6.988285E-05
290.5085,-6.985836E-05
290.6085,-6.981882E-05
290.7085,-6.979621E-05
290.8085,-6.977832E-05
290.9085,-6.971334E-05
291.0085,-6.967849E-05
291.1086,-6.965589E-05
291.2086,-6.962482E-05
291.3086,-6.961822E-05
291.4086,-6.957867E-05
291.5086,-6.952028E-05
291.6086,-6.948355E-05
291.7086,-6.947884E-05
291.8086,-6.943364E-05
291.9086,-6.941952E-05
292.0086,-6.939597E-05
292.1086,-6.933099E-05
292.2086,-6.929145E-05
292.3086,-6.926131E-05
292.4086,-6.926319E-05
292.5086,-6.921045E-05
292.6086,-6.918126E-05
292.7086,-6.912758E-05
292.8087,-6.912758E-05
292.9087,-6.911063E-05
293.0087,-6.906543E-05
293.1087,-6.898915E-05
293.2087,-6.903247E-05
293.3087,-6.902964E-05
293.4087,-6.895336E-05
293.5087,-6.891853E-05
293.6087,-6.894866E-05
293.7087,-6.883377E-05
293.8087,-6.879892E-05
293.9087,-6.878009E-05
294.0087,-6.874618E-05
294.1087,-6.86991E-05
294.2087,-6.8652E-05
294.3087,-6.860774E-05
294.4088,-6.861999E-05
294.5088,-6.856066E-05
294.6088,-6.85503E-05
294.7088,-6.85324E-05
294.8088,-6.849285E-05
294.9088,-6.844389E-05
295.0088,-6.84015E-05
295.1088,-6.839397E-05
295.2088,-6.834971E-05
295.3088,-6.834501E-05
295.4088,-6.829132E-05
295.5088,-6.823859E-05
295.6088,-6.828473E-05
295.7088,-6.824518E-05
295.8088,-6.816514E-05
295.9088,-6.818114E-05
296.0089,-6.816795E-05
296.1089,-6.810675E-05
296.2089,-6.808602E-05
296.3089,-6.803988E-05
296.4089,-6.802011E-05
296.5089,-6.804082E-05
296.6089,-6.802576E-05
296.7089,-6.795135E-05
296.8089,-6.790992E-05
296.9089,-6.788826E-05
297.0089,-6.784588E-05
297.1089,-6.782139E-05
297.2089,-6.781292E-05
297.3089,-6.773664E-05
297.4089,-6.772346E-05
297.5089,-6.770368E-05
297.6089,-6.768297E-05
297.709,-6.764153E-05
297.809,-6.760009E-05
297.909,-6.755677E-05
298.009,-6.754642E-05
298.109,-6.755959E-05
298.209,-6.74918E-05
298.309,-6.74513E-05
298.409,-6.742493E-05
298.509,-6.738632E-05
298.609,-6.735148E-05
298.709,-6.73317E-05
298.809,-6.73025E-05
298.909,-6.726296E-05
299.009,-6.724977E-05
299.109,-6.720739E-05
299.209,-6.719138E-05
299.3091,-6.714711E-05
299.4091,-6.710568E-05
299.5091,-6.708119E-05
299.6091,-6.705483E-05
299.7091,-6.701622E-05
299.8091,-6.701999E-05
299.9091,-6.699927E-05
300.0091,-6.691734E-05
300.1091,-6.692205E-05
300.2091,-6.68872E-05
300.3091,-6.682505E-05
300.4091,-6.683634E-05
300.5091,-6.678738E-05
300.6091,-6.673747E-05
300.7091,-6.672239E-05
300.8091,-6.668473E-05
300.9091,-6.66706E-05
301.0092,-6.665836E-05
301.1092,-6.661127E-05
301.2092,-6.656042E-05
301.3092,-6.656419E-05
301.4092,-6.654724E-05
301.5092,-6.648603E-05
301.6092,-6.647567E-05
301.7092,-6.641068E-05
301.8092,-6.643046E-05
301.9092,-6.642387E-05
302.0092,-6.638243E-05
302.1092,-6.632593E-05
302.2092,-6.629109E-05
302.3092,-6.628826E-05
302.4092,-6.62553E-05
302.5092,-6.623082E-05
302.6093,-6.620445E-05
302.7093,-6.616207E-05
302.8093,-6.612628E-05
302.9093,-6.609897E-05
303.0093,-6.608579E-05
303.1093,-6.606319E-05
303.2093,-6.602457E-05
303.3093,-6.59869E-05
303.4093,-6.594642E-05
303.5093,-6.594359E-05
303.6093,-6.590121E-05
303.7093,-6.587672E-05
303.8093,-6.584E-05
303.9093,-6.580233E-05
304.0093,-6.580704E-05
304.1093,-6.579102E-05
304.2094,-6.572416E-05
304.3094,-6.568084E-05
304.4094,-6.566012E-05
304.5094,-6.563658E-05
304.6094,-6.562717E-05
304.7094,-6.557442E-05
304.8094,-6.552922E-05
304.9094,-6.55038E-05
305.0094,-6.549155E-05
305.1094,-6.545106E-05
305.2094,-6.5436E-05
305.3094,-6.540491E-05
305.4094,-6.535783E-05
305.5094,-6.533806E-05
305.6094,-6.534276E-05
305.7094,-6.529945E-05
305.8094,-6.526554E-05
305.9095,-6.525801E-05
306.0095,-6.52015E-05
306.1095,-6.515347E-05
306.2095,-6.517137E-05
306.3095,-6.512617E-05
306.4095,-6.508944E-05
306.5095,-6.503764E-05
306.6095,-6.504988E-05
306.7095,-6.506966E-05
306.8095,-6.502728E-05
306.9095,-6.495477E-05
307.0095,-6.4935E-05
307.1095,-6.491898E-05
307.2095,-6.489355E-05
307.3095,-6.489638E-05
307.4095,-6.482482E-05
307.5096,-6.476925E-05
307.6096,-6.475794E-05
307.7096,-6.474194E-05
307.8096,-6.470804E-05
307.9096,-6.469485E-05
308.0096,-6.465719E-05
308.1096,-6.460444E-05
308.2096,-6.460633E-05
308.3096,-6.459126E-05
308.4096,-6.453758E-05
308.5096,-6.450462E-05
308.6096,-6.445847E-05
308.7096,-6.444717E-05
308.8096,-6.441515E-05
308.9096,-6.440668E-05
309.0096,-6.436995E-05
309.1096,-6.433322E-05
309.2097,-6.430592E-05
309.3097,-6.426542E-05
309.4097,-6.428426E-05
309.5097,-6.42287E-05
309.6097,-6.417407E-05
309.7097,-6.415995E-05
309.8097,-6.413453E-05
309.9097,-6.412323E-05
310.0097,-6.411098E-05
310.1097,-6.407143E-05
310.2097,-6.400457E-05
310.3097,-6.401398E-05
310.4097,-6.399515E-05
310.5097,-6.396125E-05
310.6097,-6.393393E-05
310.7097,-6.388214E-05
310.8098,-6.385953E-05
310.9098,-6.386613E-05
311.0098,-6.38181E-05
311.1098,-6.378608E-05
311.2098,-6.378703E-05
311.3098,-6.377007E-05
311.4098,-6.371733E-05
311.5098,-6.373147E-05
311.6098,-6.368625E-05
311.7098,-6.366837E-05
311.8098,-6.36241E-05
311.9098,-6.360715E-05
312.0098,-6.356477E-05
312.1098,-6.356007E-05
312.2098,-6.355347E-05
312.3098,-6.348943E-05
312.4099,-6.349414E-05
312.5099,-6.346024E-05
312.6099,-6.345176E-05
312.7099,-6.344894E-05
312.8099,-6.337549E-05
312.9099,-6.334065E-05
313.0099,-6.333028E-05
313.1099,-6.332651E-05
313.2099,-6.328414E-05
313.3099,-6.32606E-05
313.4099,-6.323704E-05
313.5099,-6.321351E-05
313.6099,-6.321917E-05
313.7099,-6.317584E-05
313.8099,-6.314759E-05
313.9099,-6.311086E-05
314.0099,-6.312216E-05
314.11,-6.307601E-05
314.21,-6.304494E-05
314.31,-6.301857E-05
314.41,-6.299408E-05
314.51,-6.29696E-05
314.61,-6.294606E-05
314.71,-6.289991E-05
314.81,-6.288013E-05
314.91,-6.286977E-05
315.01,-6.285E-05
315.11,-6.281798E-05
315.21,-6.28095E-05
315.31,-6.276147E-05
315.41,-6.276524E-05
315.51,-6.278596E-05
315.61,-6.274547E-05
315.7101,-6.269367E-05
315.8101,-6.268614E-05
315.9101,-6.26447E-05
316.0101,-6.262586E-05
316.1101,-6.259008E-05
316.2101,-6.25703E-05
316.3101,-6.251569E-05
316.4101,-6.251569E-05
316.5101,-6.252887E-05
316.6101,-6.249497E-05
316.7101,-6.244882E-05
316.8101,-6.246106E-05
316.9101,-6.240362E-05
317.0101,-6.238102E-05
317.1101,-6.23829E-05
317.2101,-6.234617E-05
317.3102,-6.231886E-05
317.4102,-6.227931E-05
317.5102,-6.228213E-05
317.6102,-6.227742E-05
317.7102,-6.225576E-05
317.8102,-6.222469E-05
317.9102,-6.220962E-05
318.0102,-6.21955E-05
318.1102,-6.213993E-05
318.2102,-6.214182E-05
318.3102,-6.213334E-05
318.4102,-6.207213E-05
318.5102,-6.207496E-05
318.6102,-6.20693E-05
318.7102,-6.202881E-05
318.8102,-6.202034E-05
318.9102,-6.200056E-05
319.0103,-6.199208E-05
319.1103,-6.194123E-05
319.2103,-6.190073E-05
319.3103,-6.189696E-05
319.4103,-6.189226E-05
319.5103,-6.183857E-05
319.6103,-6.179055E-05
319.7103,-6.17962E-05
319.8103,-6.179149E-05
319.9103,-6.174347E-05
320.0103,-6.17331E-05
320.1103,-6.169543E-05
320.2103,-6.168131E-05
320.3103,-6.169826E-05
320.4103,-6.165777E-05
320.5103,-6.159749E-05
320.6104,-6.16201E-05
320.7104,-6.158808E-05
320.8104,-6.155229E-05
320.9104,-6.155041E-05
321.0104,-6.154947E-05
321.1104,-6.149861E-05
321.2104,-6.149861E-05
321.3104,-6.147884E-05
321.4104,-6.143081E-05
321.5104,-6.141856E-05
321.6104,-6.141009E-05
321.7104,-6.137619E-05
321.8104,-6.135265E-05
321.9104,-6.13244E-05
322.0104,-6.128672E-05
322.1104,-6.127731E-05
322.2104,-6.126224E-05
322.3105,-6.121798E-05
322.4105,-6.11935E-05
322.5105,-6.116147E-05
322.6105,-6.113981E-05
322.7105,-6.114734E-05
322.8105,-6.111721E-05
322.9105,-6.10786E-05
323.0105,-6.106071E-05
323.1105,-6.105129E-05
323.2105,-6.102304E-05
323.3105,-6.101457E-05
323.4105,-6.099008E-05
323.5105,-6.0943E-05
323.6105,-6.095241E-05
323.7105,-6.091474E-05
323.8105,-6.088931E-05
323.9106,-6.086483E-05
324.0106,-6.083375E-05
324.1106,-6.083375E-05
324.2106,-6.080738E-05
324.3106,-6.079043E-05
324.4106,-6.074617E-05
324.5106,-6.072546E-05
324.6106,-6.073299E-05
324.7106,-6.067272E-05
324.8106,-6.06633E-05
324.9106,-6.064823E-05
325.0106,-6.060962E-05
325.1106,-6.060774E-05
325.2106,-6.054841E-05
325.3106,-6.054746E-05
325.4106,-6.049567E-05
325.5107,-6.049661E-05
325.6107,-6.046836E-05
325.7107,-6.046648E-05
325.8107,-6.042598E-05
325.9107,-6.037702E-05
326.0107,-6.036571E-05
326.1107,-6.038549E-05
326.2107,-6.032898E-05
326.3107,-6.029696E-05
326.4107,-6.027625E-05
326.5107,-6.023952E-05
326.6107,-6.023482E-05
326.7107,-6.023764E-05
326.8107,-6.017831E-05
326.9107,-6.019054E-05
327.0107,-6.016418E-05
327.1107,-6.012369E-05
327.2108,-6.009167E-05
327.3108,-6.007566E-05
327.4108,-6.006624E-05
327.5108,-6.003705E-05
327.6108,-5.999844E-05
327.7108,-5.994947E-05
327.8108,-5.994852E-05
327.9108,-5.994852E-05
328.0108,-5.990615E-05
328.1108,-5.987036E-05
328.2108,-5.988072E-05
328.3108,-5.986847E-05
328.4108,-5.983081E-05
328.5108,-5.978749E-05
328.6108,-5.976959E-05
328.7108,-5.973852E-05
328.8109,-5.973098E-05
328.9109,-5.969237E-05
329.0109,-5.968861E-05
329.1109,-5.96547E-05
329.2109,-5.96095E-05
329.3109,-5.961044E-05
329.4109,-5.957843E-05
329.5109,-5.953322E-05
329.6109,-5.952946E-05
329.7109,-5.952851E-05
329.8109,-5.947013E-05
329.9109,-5.942492E-05
330.0109,-5.94607E-05
330.1109,-5.941456E-05
330.2109,-5.939573E-05
330.3109,-5.936277E-05
330.4109,-5.934487E-05
330.511,-5.933734E-05
330.611,-5.929873E-05
330.711,-5.926671E-05
330.811,-5.927612E-05
330.911,-5.927048E-05
331.011,-5.92168E-05
331.111,-5.91716E-05
331.211,-5.918666E-05
331.311,-5.914429E-05
331.411,-5.912074E-05
331.511,-5.912828E-05
331.611,-5.905859E-05
331.711,-5.906047E-05
331.811,-5.90341E-05
331.911,-5.898419E-05
332.011,-5.898419E-05
332.1111,-5.897383E-05
332.2111,-5.894276E-05
332.3111,-5.891451E-05
332.4111,-5.889661E-05
332.5111,-5.885894E-05
332.6111,-5.886553E-05
332.7111,-5.884387E-05
332.8111,-5.879302E-05
332.9111,-5.877324E-05
333.0111,-5.877607E-05
333.1111,-5.875441E-05
333.2111,-5.871391E-05
333.3111,-5.869037E-05
333.4111,-5.86932E-05
333.5111,-5.868849E-05
333.6111,-5.864046E-05
333.7112,-5.860091E-05
333.8112,-5.858019E-05
333.9112,-5.857077E-05
334.0112,-5.857171E-05
334.1112,-5.8551E-05
334.2112,-5.851427E-05
334.3112,-5.84653E-05
334.4112,-5.845588E-05
334.5112,-5.843516E-05
334.6112,-5.841162E-05
334.7112,-5.841727E-05
334.8112,-5.837866E-05
334.9112,-5.832121E-05
335.0112,-5.832498E-05
335.1112,-5.832969E-05
335.2112,-5.82939E-05
335.3112,-5.824305E-05
335.4113,-5.824305E-05
335.5113,-5.820632E-05
335.6113,-5.819596E-05
335.7113,-5.820444E-05
335.8113,-5.816112E-05
335.9113,-5.816677E-05
336.0113,-5.812345E-05
336.1113,-5.806694E-05
336.2113,-5.809425E-05
336.3113,-5.80726E-05
336.4113,-5.802457E-05
336.5113,-5.801421E-05
336.6113,-5.799161E-05
336.7113,-5.794923E-05
336.8113,-5.794829E-05
336.9113,-5.795582E-05
337.0114,-5.791062E-05
337.1114,-5.788707E-05
337.2114,-5.78381E-05
337.3114,-5.782115E-05
337.4114,-5.781079E-05
337.5114,-5.781079E-05
337.6114,-5.776277E-05
337.7114,-5.774299E-05
337.8114,-5.774581E-05
337.9114,-5.769402E-05
338.0114,-5.769213E-05
338.1114,-5.76846E-05
338.2114,-5.764882E-05
338.3114,-5.762433E-05
338.4114,-5.760361E-05
338.5114,-5.759043E-05
338.6115,-5.755935E-05
338.7115,-5.754052E-05
338.8115,-5.753204E-05
338.9115,-5.752639E-05
339.0115,-5.749814E-05
339.1115,-5.744446E-05
339.2115,-5.744352E-05
339.3115,-5.74294E-05
339.4115,-5.739832E-05
339.5115,-5.739832E-05
339.6115,-5.737289E-05
339.7115,-5.731167E-05
339.8115,-5.73032E-05
339.9115,-5.728625E-05
340.0115,-5.725047E-05
340.1115,-5.725611E-05
340.2115,-5.723634E-05
340.3116,-5.716571E-05
340.4116,-5.718643E-05
340.5116,-5.717513E-05
340.6116,-5.712804E-05
340.7116,-5.711109E-05
340.8116,-5.709696E-05
340.9116,-5.708848E-05
341.0116,-5.707907E-05
341.1116,-5.703857E-05
341.2116,-5.701974E-05
341.3116,-5.697077E-05
341.4116,-5.699431E-05
341.5116,-5.695288E-05
341.6116,-5.691333E-05
341.7116,-5.69105E-05
341.8116,-5.68653E-05
341.9117,-5.687942E-05
342.0117,-5.685682E-05
342.1117,-5.681162E-05
342.2117,-5.682103E-05
342.3117,-5.679561E-05
342.4117,-5.679373E-05
342.5117,-5.676548E-05
342.6117,-5.675135E-05
342.7117,-5.672969E-05
342.8117,-5.669861E-05
342.9117,-5.667318E-05
343.0117,-5.665341E-05
343.1117,-5.661668E-05
343.2117,-5.660444E-05
343.3117,-5.659785E-05
343.4117,-5.655641E-05
343.5117,-5.656771E-05
343.6118,-5.658183E-05
343.7118,-5.652062E-05
343.8118,-5.649049E-05
343.9118,-5.647542E-05
344.0118,-5.64547E-05
344.1118,-5.645847E-05
344.2118,-5.642456E-05
344.3118,-5.639161E-05
344.4118,-5.638972E-05
344.5118,-5.635393E-05
344.6118,-5.633793E-05
344.7118,-5.634358E-05
344.8118,-5.63191E-05
344.9118,-5.627577E-05
345.0118,-5.626541E-05
345.1118,-5.624375E-05
345.2119,-5.622021E-05
345.3119,-5.623151E-05
345.4119,-5.615899E-05
345.5119,-5.615241E-05
345.6119,-5.62155E-05
345.7119,-5.621927E-05
345.8119,-5.611097E-05
345.9119,-5.609496E-05
346.0119,-5.611568E-05
346.1119,-5.608272E-05
346.2119,-5.604882E-05
346.3119,-5.602433E-05
346.4119,-5.60281E-05
346.5119,-5.604128E-05
346.6119,-5.600361E-05
346.7119,-5.595747E-05
346.812,-5.593957E-05
346.912,-5.595276E-05
347.012,-5.592733E-05
347.112,-5.590849E-05
347.212,-5.588307E-05
347.312,-5.583975E-05
347.412,-5.584634E-05
347.512,-5.58341E-05
347.612,-5.579455E-05
347.712,-5.57889E-05
347.812,-5.577948E-05
347.912,-5.574934E-05
348.012,-5.574934E-05
348.112,-5.572298E-05
348.212,-5.57032E-05
348.312,-5.567401E-05
348.412,-5.566082E-05
348.5121,-5.564199E-05
348.6121,-5.566365E-05
348.7121,-5.56354E-05
348.8121,-5.559584E-05
348.9121,-5.557324E-05
349.0121,-5.558077E-05
349.1121,-5.555158E-05
349.2121,-5.556383E-05
349.3121,-5.551014E-05
349.4121,-5.547341E-05
349.5121,-5.548095E-05
349.6121,-5.548566E-05
349.7121,-5.544328E-05
349.8121,-5.54414E-05
349.9121,-5.539525E-05
350.0121,-5.537736E-05
350.1122,-5.538489E-05
350.2122,-5.537359E-05
350.3122,-5.533027E-05
350.4122,-5.533121E-05
350.5122,-5.531803E-05
350.6122,-5.526341E-05
350.7122,-5.527754E-05
350.8122,-5.525399E-05
350.9122,-5.521726E-05
351.0122,-5.522009E-05
351.1122,-5.518525E-05
351.2122,-5.513063E-05
351.3122,-5.514852E-05
351.4122,-5.514193E-05
351.5122,-5.509202E-05
351.6122,-5.508637E-05
351.7122,-5.508825E-05
351.8123,-5.50713E-05
351.9123,-5.505623E-05
352.0123,-5.500538E-05
352.1123,-5.497995E-05
352.2123,-5.500726E-05
352.3123,-5.497712E-05
352.4123,-5.491309E-05
352.5123,-5.494228E-05
352.6123,-5.494134E-05
352.7123,-5.49404E-05
352.8123,-5.493004E-05
352.9123,-5.487165E-05
353.0123,-5.483116E-05
353.1123,-5.484434E-05
353.2123,-5.480856E-05
353.3123,-5.475676E-05
353.4124,-5.476712E-05
353.5124,-5.476994E-05
353.6124,-5.470591E-05
353.7124,-5.46899E-05
353.8124,-5.467954E-05
353.9124,-5.466635E-05
354.0124,-5.466635E-05
354.1124,-5.465223E-05
354.2124,-5.46042E-05
354.3124,-5.459008E-05
354.4124,-5.460985E-05
354.5124,-5.456087E-05
354.6124,-5.453734E-05
354.7124,-5.453546E-05
354.8124,-5.453734E-05
354.9124,-5.451945E-05
355.0125,-5.44893E-05
355.1125,-5.446859E-05
355.2125,-5.443375E-05
355.3125,-5.442998E-05
355.4125,-5.442715E-05
355.5125,-5.43989E-05
355.6125,-5.439702E-05
355.7125,-5.435276E-05
355.8125,-5.435841E-05
355.9125,-5.434711E-05
356.0125,-5.429342E-05
356.1125,-5.427742E-05
356.2125,-5.430284E-05
356.3125,-5.427648E-05
356.4125,-5.425764E-05
356.5125,-5.423975E-05
356.6125,-5.42115E-05
356.7126,-5.41823E-05
356.8126,-5.420396E-05
356.9126,-5.416629E-05
357.0126,-5.413427E-05
357.1126,-5.413145E-05
357.2126,-5.411921E-05
357.3126,-5.410696E-05
357.4126,-5.407683E-05
357.5126,-5.405611E-05
357.6126,-5.40062E-05
357.7126,-5.405894E-05
357.8126,-5.401844E-05
357.9126,-5.398171E-05
358.0126,-5.39949E-05
358.1126,-5.395535E-05
358.2126,-5.392427E-05
358.3127,-5.393933E-05
358.4127,-5.391391E-05
358.5127,-5.389225E-05
358.6127,-5.389225E-05
358.7127,-5.386776E-05
358.8127,-5.384611E-05
358.9127,-5.385081E-05
359.0127,-5.381785E-05
359.1127,-5.377171E-05
359.2127,-5.379243E-05
359.3127,-5.375476E-05
359.4127,-5.372745E-05
359.5127,-5.371709E-05
359.6127,-5.371614E-05
359.7127,-5.369826E-05
359.8127,-5.36766E-05
359.9128,-5.365588E-05
360.0128,-5.36295E-05
360.1128,-5.365776E-05
360.2128,-5.363045E-05
360.3128,-5.357394E-05
360.4128,-5.359654E-05
360.5128,-5.358242E-05
360.6128,-5.354381E-05
360.7128,-5.354663E-05
360.8128,-5.352497E-05
360.9128,-5.348636E-05
361.0128,-5.349767E-05
361.1128,-5.349767E-05
361.2128,-5.343457E-05
361.3128,-5.340161E-05
361.4128,-5.342326E-05
361.5128,-5.34082E-05
361.6129,-5.340726E-05
361.7129,-5.335547E-05
361.8129,-5.332721E-05
361.9129,-5.333474E-05
362.0129,-5.332627E-05
362.1129,-5.327447E-05
362.2129,-5.328106E-05
362.3129,-5.324057E-05
362.4129,-5.320573E-05
362.5129,-5.320196E-05
362.6129,-5.321232E-05
362.7129,-5.316711E-05
362.8129,-5.3169E-05
362.9129,-5.316618E-05
363.0129,-5.310214E-05
363.1129,-5.311532E-05
363.213,-5.312003E-05
363.313,-5.3072E-05
363.413,-5.303622E-05
363.513,-5.305693E-05
363.613,-5.302491E-05
363.713,-5.302209E-05
363.813,-5.29816E-05
363.913,-5.293639E-05
364.013,-5.294864E-05
364.113,-5.294392E-05
364.213,-5.289778E-05
364.313,-5.287801E-05
364.413,-5.286482E-05
364.513,-5.286953E-05
364.613,-5.284881E-05
364.713,-5.284222E-05
364.813,-5.280738E-05
364.9131,-5.279042E-05
365.0131,-5.276688E-05
365.1131,-5.274146E-05
365.2131,-5.273769E-05
365.3131,-5.271508E-05
365.4131,-5.269625E-05
365.5131,-5.269342E-05
365.6131,-5.2668E-05
365.7131,-5.267082E-05
365.8131,-5.263881E-05
365.9131,-5.261809E-05
366.0131,-5.258889E-05
366.1131,-5.258889E-05
366.2131,-5.255405E-05
366.3131,-5.252109E-05
366.4131,-5.249096E-05
366.5132,-5.250319E-05
366.6132,-5.249661E-05
366.7132,-5.245988E-05
366.8132,-5.243633E-05
366.9132,-5.245988E-05
367.0132,-5.241938E-05
367.1132,-5.240996E-05
367.2132,-5.233557E-05
367.3132,-5.23544E-05
367.4132,-5.235911E-05
367.5132,-5.233557E-05
367.6132,-5.231391E-05
367.7132,-5.227907E-05
367.8132,-5.225646E-05
367.9132,-5.225269E-05
368.0132,-5.223857E-05
368.1133,-5.220843E-05
368.2133,-5.220467E-05
368.3133,-5.21717E-05
368.4133,-5.215758E-05
368.5133,-5.215664E-05
368.6133,-5.213404E-05
368.7133,-5.210013E-05
368.8133,-5.208413E-05
368.9133,-5.207282E-05
369.0133,-5.206152E-05
369.1133,-5.204551E-05
369.2133,-5.205681E-05
369.3133,-5.19956E-05
369.4133,-5.196735E-05
369.5133,-5.19617E-05
369.6133,-5.197583E-05
369.7133,-5.196641E-05
369.8134,-5.193062E-05
369.9134,-5.190237E-05
370.0134,-5.187224E-05
370.1134,-5.189955E-05
370.2134,-5.184775E-05
370.3134,-5.183833E-05
370.4134,-5.182704E-05
370.5134,-5.179031E-05
370.6134,-5.179031E-05
370.7134,-5.176488E-05
370.8134,-5.173851E-05
370.9134,-5.175735E-05
371.0134,-5.17338E-05
371.1134,-5.168671E-05
371.2134,-5.165187E-05
371.3134,-5.168389E-05
371.4135,-5.166411E-05
371.5135,-5.162927E-05
371.6135,-5.161891E-05
371.7135,-5.159537E-05
371.8135,-5.158312E-05
371.9135,-5.158877E-05
372.0135,-5.155393E-05
372.1135,-5.152191E-05
372.2135,-5.157182E-05
372.3135,-5.160385E-05
372.4135,-5.153039E-05
372.5135,-5.148518E-05
372.6135,-5.150967E-05
372.7135,-5.147577E-05
372.8135,-5.144658E-05
372.9135,-5.141079E-05
373.0135,-5.137689E-05
373.1136,-5.137877E-05
373.2136,-5.136088E-05
373.3136,-5.135993E-05
373.4136,-5.13637E-05
373.5136,-5.131944E-05
373.6136,-5.129496E-05
373.7136,-5.129966E-05
373.8136,-5.128931E-05
373.9136,-5.126011E-05
374.0136,-5.125917E-05
374.1136,-5.123469E-05
374.2136,-5.118571E-05
374.3136,-5.121114E-05
374.4136,-5.119984E-05
374.5136,-5.116782E-05
374.6136,-5.114051E-05
374.7137,-5.112639E-05
374.8137,-5.114051E-05
374.9137,-5.115275E-05
375.0137,-5.11132E-05
375.1137,-5.105952E-05
375.2137,-5.107082E-05
375.3137,-5.104634E-05
375.4137,-5.103221E-05
375.5137,-5.102374E-05
375.6137,-5.102939E-05
375.7137,-5.099737E-05
375.8137,-5.098513E-05
375.9137,-5.098324E-05
376.0137,-5.094557E-05
376.1137,-5.09484E-05
376.2137,-5.094934E-05
376.3138,-5.089284E-05
376.4138,-5.090508E-05
376.5138,-5.088719E-05
376.6138,-5.084763E-05
376.7138,-5.084763E-05
376.8138,-5.083633E-05
376.9138,-5.082692E-05
377.0138,-5.08288E-05
377.1138,-5.079207E-05
377.2138,-5.074122E-05
377.3138,-5.077229E-05
377.4138,-5.073839E-05
377.5138,-5.072426E-05
377.6138,-5.069978E-05
377.7138,-5.069131E-05
377.8138,-5.065269E-05
377.9138,-5.066494E-05
378.0139,-5.065929E-05
378.1139,-5.063574E-05
378.2139,-5.063009E-05
378.3139,-5.059901E-05
378.4139,-5.060843E-05
378.5139,-5.059431E-05
378.6139,-5.056605E-05
378.7139,-5.054628E-05
378.8139,-5.054722E-05
378.9139,-5.05039E-05
379.0139,-5.051426E-05
379.1139,-5.051049E-05
379.2139,-5.047942E-05
379.3139,-5.044551E-05
379.4139,-5.046906E-05
379.5139,-5.04587E-05
379.614,-5.040502E-05
379.714,-5.04135E-05
379.814,-5.041443E-05
379.914,-5.036076E-05
380.014,-5.03909E-05
380.114,-5.035605E-05
380.214,-5.03278E-05
380.314,-5.029766E-05
380.414,-5.032121E-05
380.514,-5.032498E-05
380.614,-5.0276E-05
380.714,-5.027412E-05
380.814,-5.022797E-05
380.914,-5.025152E-05
381.014,-5.022891E-05
381.114,-5.019972E-05
381.2141,-5.019313E-05
381.3141,-5.020443E-05
381.4141,-5.016865E-05
381.5141,-5.016205E-05
381.6141,-5.01451E-05
381.7141,-5.008577E-05
381.8141,-5.008389E-05
381.9141,-5.007353E-05
382.0141,-5.006317E-05
382.1141,-5.006223E-05
382.2141,-4.998124E-05
382.3141,-5.000572E-05
382.4141,-5.00434E-05
382.5141,-5.000855E-05
382.6141,-4.993698E-05
382.7141,-4.99511E-05
382.8141,-4.994922E-05
382.9142,-4.991343E-05
383.0142,-4.990402E-05
383.1142,-4.988047E-05
383.2142,-4.984752E-05
383.3142,-4.985975E-05
383.4142,-4.983621E-05
383.5142,-4.979854E-05
383.6142,-4.981079E-05
383.7142,-4.98089E-05
383.8142,-4.976652E-05
383.9142,-4.976558E-05
384.0142,-4.97411E-05
384.1142,-4.971756E-05
384.2142,-4.972415E-05
384.3142,-4.971379E-05
384.4142,-4.966953E-05
384.5143,-4.967047E-05
384.6143,-4.967047E-05
384.7143,-4.96215E-05
384.8143,-4.960737E-05
384.9143,-4.961397E-05
385.0143,-4.961114E-05
385.1143,-4.957159E-05
385.2143,-4.957629E-05
385.3143,-4.954899E-05
385.4143,-4.953015E-05
385.5143,-4.954145E-05
385.6143,-4.948966E-05
385.7143,-4.947553E-05
385.8143,-4.94567E-05
385.9143,-4.944634E-05
386.0143,-4.946611E-05
386.1143,-4.941809E-05
386.2144,-4.939737E-05
386.3144,-4.938701E-05
386.4144,-4.937571E-05
386.5144,-4.935593E-05
386.6144,-4.937006E-05
386.7144,-4.932391E-05
386.8144,-4.929283E-05
386.9144,-4.930696E-05
387.0144,-4.928812E-05
387.1144,-4.926176E-05
387.2144,-4.926176E-05
387.3144,-4.924386E-05
387.4144,-4.920525E-05
387.5144,-4.921279E-05
387.6144,-4.922598E-05
387.7144,-4.9177E-05
387.8145,-4.916382E-05
387.9145,-4.913651E-05
388.0145,-4.914216E-05
388.1145,-4.914781E-05
388.2145,-4.913744E-05
388.3145,-4.908942E-05
388.4145,-4.906117E-05
388.5145,-4.906493E-05
388.6145,-4.904893E-05
388.7145,-4.906493E-05
388.8145,-4.902821E-05
388.9145,-4.899336E-05
389.0145,-4.899242E-05
389.1145,-4.89717E-05
389.2145,-4.898394E-05
389.3145,-4.896794E-05
389.4146,-4.895852E-05
389.5146,-4.892085E-05
389.6146,-4.890484E-05
389.7146,-4.889166E-05
389.8146,-4.885869E-05
389.9146,-4.888318E-05
390.0146,-4.886058E-05
390.1146,-4.882668E-05
390.2146,-4.88182E-05
390.3146,-4.882668E-05
390.4146,-4.883515E-05
390.5146,-4.879937E-05
390.6146,-4.87617E-05
390.7146,-4.875511E-05
390.8146,-4.875887E-05
390.9146,-4.873251E-05
391.0146,-4.870519E-05
391.1147,-4.871932E-05
391.2147,-4.867129E-05
391.3147,-4.867883E-05
391.4147,-4.86939E-05
391.5147,-4.864304E-05
391.6147,-4.861102E-05
391.7147,-4.86082E-05
391.8147,-4.860066E-05
391.9147,-4.856205E-05
392.0147,-4.857618E-05
392.1147,-4.855358E-05
392.2147,-4.850272E-05
392.3147,-4.853192E-05
392.4147,-4.851685E-05
392.5147,-4.849519E-05
392.6147,-4.851214E-05
392.7148,-4.849048E-05
392.8148,-4.846693E-05
392.9148,-4.846411E-05
393.0148,-4.844339E-05
393.1148,-4.842361E-05
393.2148,-4.842927E-05
393.3148,-4.842644E-05
393.4148,-4.838783E-05
393.5148,-4.839348E-05
393.6148,-4.840195E-05
393.7148,-4.83285E-05
393.8148,-4.831626E-05
393.9148,-4.834922E-05
394.0148,-4.830872E-05
394.1148,-4.831909E-05
394.2148,-4.827388E-05
394.3148,-4.824092E-05
394.4149,-4.824186E-05
394.5149,-4.82654E-05
394.6149,-4.823715E-05
394.7149,-4.820984E-05
394.8149,-4.821172E-05
394.9149,-4.819007E-05
395.0149,-4.817406E-05
395.1149,-4.818724E-05
395.2149,-4.814392E-05
395.3149,-4.813921E-05
395.4149,-4.812791E-05
395.5149,-4.809778E-05
395.6149,-4.809872E-05
395.7149,-4.811096E-05
395.8149,-4.808271E-05
395.9149,-4.805634E-05
396.015,-4.808177E-05
396.115,-4.805069E-05
396.215,-4.805728E-05
396.315,-4.805634E-05
396.415,-4.799983E-05
396.515,-4.803845E-05
396.615,-4.802244E-05
396.715,-4.797912E-05
396.815,-4.79471E-05
396.915,-4.797064E-05
397.015,-4.794145E-05
397.115,-4.795087E-05
397.215,-4.794239E-05
397.315,-4.789436E-05
397.415,-4.791602E-05
397.515,-4.789625E-05
397.6151,-4.78793E-05
397.7151,-4.785952E-05
397.8151,-4.7868E-05
397.9151,-4.785481E-05
398.0151,-4.783598E-05
398.1151,-4.781902E-05
398.2151,-4.780961E-05
398.3151,-4.781055E-05
398.4151,-4.781997E-05
398.5151,-4.773992E-05
398.6151,-4.774933E-05
398.7151,-4.777947E-05
398.8151,-4.777006E-05
398.9151,-4.774086E-05
399.0151,-4.770884E-05
399.1151,-4.768718E-05
399.2151,-4.768154E-05
399.3152,-4.771261E-05
399.4152,-4.765516E-05
399.5152,-4.762409E-05
399.6152,-4.767964E-05
399.7152,-4.770319E-05
399.8152,-4.765893E-05
399.9152,-4.762597E-05
400.0152,-4.764104E-05
400.1152,-4.759583E-05
400.2152,-4.760148E-05
400.3152,-4.759113E-05
400.4152,-4.754969E-05
400.5152,-4.754781E-05
400.6152,-4.754592E-05
400.7152,-4.752238E-05
400.8152,-4.750449E-05
400.9153,-4.751391E-05
401.0153,-4.748283E-05
401.1153,-4.746399E-05
401.2153,-4.745081E-05
401.3153,-4.742349E-05
401.4153,-4.742444E-05
401.5153,-4.741031E-05
401.6153,-4.739713E-05
401.7153,-4.737924E-05
401.8153,-4.732932E-05
401.9153,-4.733968E-05
402.0153,-4.737359E-05
402.1153,-4.733403E-05
402.2153,-4.728883E-05
402.3153,-4.733027E-05
402.4153,-4.730578E-05
402.5154,-4.7286E-05
402.6154,-4.728318E-05
402.7154,-4.727941E-05
402.8154,-4.722573E-05
402.9154,-4.725493E-05
403.0154,-4.720502E-05
403.1154,-4.716264E-05
403.2154,-4.721443E-05
403.3154,-4.720125E-05
403.4154,-4.715793E-05
403.5154,-4.71325E-05
403.6154,-4.714851E-05
403.7154,-4.711932E-05
403.8154,-4.714286E-05
403.9154,-4.712685E-05
404.0154,-4.707223E-05
404.1154,-4.707411E-05
404.2155,-4.707506E-05
404.3155,-4.704022E-05
404.4155,-4.706376E-05
404.5155,-4.706281E-05
404.6155,-4.702044E-05
404.7155,-4.700254E-05
404.8155,-4.700443E-05
404.9155,-4.698936E-05
405.0155,-4.698183E-05
405.1155,-4.69677E-05
405.2155,-4.691685E-05
405.3155,-4.694698E-05
405.4155,-4.695922E-05
405.5155,-4.691214E-05
405.6155,-4.689236E-05
405.7155,-4.688106E-05
405.8156,-4.687258E-05
405.9156,-4.6882E-05
406.0156,-4.689613E-05
406.1156,-4.683209E-05
406.2156,-4.681138E-05
406.3156,-4.685092E-05
406.4156,-4.681231E-05
406.5156,-4.679442E-05
406.6156,-4.678971E-05
406.7156,-4.677935E-05
406.8156,-4.6785E-05
406.9156,-4.676429E-05
407.0156,-4.672567E-05
407.1156,-4.673509E-05
407.2156,-4.672567E-05
407.3156,-4.670778E-05
407.4156,-4.666446E-05
407.5157,-4.669365E-05
407.6157,-4.669931E-05
407.7157,-4.665881E-05
407.8157,-4.664845E-05
407.9157,-4.665316E-05
408.0157,-4.663527E-05
408.1157,-4.660231E-05
408.2157,-4.658347E-05
408.3157,-4.658441E-05
408.4157,-4.657029E-05
408.5157,-4.653921E-05
408.6157,-4.65345E-05
408.7157,-4.652885E-05
408.8157,-4.65185E-05
408.9157,-4.649307E-05
409.0157,-4.652791E-05
409.1158,-4.648271E-05
409.2158,-4.645163E-05
409.3158,-4.649307E-05
409.4158,-4.644692E-05
409.5158,-4.640549E-05
409.6158,-4.640925E-05
409.7158,-4.640925E-05
409.8158,-4.637818E-05
409.9158,-4.637064E-05
410.0158,-4.6381E-05
410.1158,-4.638195E-05
410.2158,-4.636499E-05
410.3158,-4.632638E-05
410.4158,-4.632544E-05
410.5158,-4.633486E-05
410.6158,-4.631414E-05
410.7159,-4.628683E-05
410.8159,-4.627741E-05
410.9159,-4.625857E-05
411.0159,-4.625481E-05
411.1159,-4.625198E-05
411.2159,-4.623692E-05
411.3159,-4.622185E-05
411.4159,-4.621337E-05
411.5159,-4.620772E-05
411.6159,-4.617759E-05
411.7159,-4.620207E-05
411.8159,-4.617947E-05
411.9159,-4.614557E-05
412.0159,-4.614274E-05
412.1159,-4.615687E-05
412.2159,-4.612956E-05
412.3159,-4.608907E-05
412.416,-4.60966E-05
412.516,-4.608812E-05
412.616,-4.61192E-05
412.716,-4.608624E-05
412.816,-4.60448E-05
412.916,-4.605139E-05
413.016,-4.602973E-05
413.116,-4.601467E-05
413.216,-4.602879E-05
413.316,-4.604386E-05
413.416,-4.60109E-05
413.516,-4.597794E-05
413.616,-4.5977E-05
413.716,-4.596381E-05
413.816,-4.597229E-05
413.916,-4.595063E-05
414.0161,-4.590354E-05
414.1161,-4.591484E-05
414.2161,-4.592615E-05
414.3161,-4.588471E-05
414.4161,-4.585834E-05
414.5161,-4.585834E-05
414.6161,-4.585363E-05
414.7161,-4.586211E-05
414.8161,-4.581973E-05
414.9161,-4.581031E-05
415.0161,-4.581125E-05
415.1161,-4.579713E-05
415.2161,-4.576511E-05
415.3161,-4.579054E-05
415.4161,-4.578771E-05
415.5161,-4.573686E-05
415.6161,-4.571896E-05
415.7162,-4.573591E-05
415.8162,-4.572932E-05
415.9162,-4.571708E-05
416.0162,-4.570201E-05
416.1162,-4.566905E-05
416.2162,-4.566999E-05
416.3162,-4.56747E-05
416.4162,-4.565492E-05
416.5162,-4.564268E-05
416.6162,-4.560125E-05
416.7162,-4.558901E-05
416.8162,-4.559465E-05
416.9162,-4.559936E-05
417.0162,-4.55438E-05
417.1162,-4.551461E-05
417.2162,-4.554098E-05
417.3163,-4.551272E-05
417.4163,-4.55212E-05
417.5163,-4.551743E-05
417.6163,-4.547035E-05
417.7163,-4.549107E-05
417.8163,-4.547882E-05
417.9163,-4.54242E-05
418.0163,-4.543456E-05
418.1163,-4.542797E-05
418.2163,-4.540349E-05
418.3163,-4.539784E-05
418.4163,-4.539407E-05
418.5163,-4.538559E-05
418.6163,-4.536581E-05
418.7163,-4.537335E-05
418.8163,-4.534604E-05
418.9164,-4.53272E-05
419.0164,-4.532908E-05
419.1164,-4.532438E-05
419.2164,-4.531873E-05
419.3164,-4.532061E-05
419.4164,-4.526976E-05
419.5164,-4.525375E-05
419.6164,-4.526599E-05
419.7164,-4.523585E-05
419.8164,-4.522738E-05
419.9164,-4.519159E-05
420.0164,-4.519631E-05
420.1164,-4.517841E-05
420.2164,-4.5185E-05
420.3164,-4.514922E-05
420.4164,-4.512473E-05
420.5164,-4.512756E-05
420.6165,-4.510401E-05
420.7165,-4.509648E-05
420.8165,-4.511437E-05
420.9165,-4.507388E-05
421.0165,-4.50654E-05
421.1165,-4.507199E-05
421.2165,-4.503715E-05
421.3165,-4.501455E-05
421.4165,-4.499948E-05
421.5165,-4.500325E-05
421.6165,-4.500042E-05
421.7165,-4.49976E-05
421.8165,-4.495899E-05
421.9165,-4.492885E-05
422.0165,-4.495239E-05
422.1165,-4.49232E-05
422.2166,-4.493074E-05
422.3166,-4.492696E-05
422.4166,-4.48893E-05
422.5166,-4.48827E-05
422.6166,-4.489024E-05
422.7166,-4.486105E-05
422.8166,-4.483468E-05
422.9166,-4.483468E-05
423.0166,-4.480549E-05
423.1166,-4.482714E-05
423.2166,-4.481679E-05
423.3166,-4.477911E-05
423.4166,-4.474521E-05
423.5166,-4.477817E-05
423.6166,-4.476311E-05
423.7166,-4.474145E-05
423.8167,-4.473203E-05
423.9167,-4.473485E-05
424.0167,-4.470377E-05
424.1167,-4.470095E-05
424.2167,-4.468871E-05
424.3167,-4.467176E-05
424.4167,-4.467176E-05
424.5167,-4.465481E-05
424.6167,-4.461808E-05
424.7167,-4.46275E-05
424.8167,-4.463409E-05
424.9167,-4.461525E-05
425.0167,-4.46162E-05
425.1167,-4.45644E-05
425.2167,-4.456911E-05
425.3167,-4.46162E-05
425.4167,-4.45531E-05
425.5168,-4.455593E-05
425.6168,-4.454274E-05
425.7168,-4.453992E-05
425.8168,-4.451166E-05
425.9168,-4.45079E-05
426.0168,-4.45013E-05
426.1168,-4.451543E-05
426.2168,-4.451449E-05
426.3168,-4.445704E-05
426.4168,-4.448906E-05
426.5168,-4.44853E-05
426.6168,-4.443068E-05
426.7168,-4.442031E-05
426.8168,-4.44448E-05
426.9168,-4.442314E-05
427.0168,-4.438265E-05
427.1169,-4.438924E-05
427.2169,-4.438641E-05
427.3169,-4.4377E-05
427.4169,-4.435063E-05
427.5169,-4.433462E-05
427.6169,-4.431578E-05
427.7169,-4.434027E-05
427.8169,-4.431202E-05
427.9169,-4.426399E-05
428.0169,-4.431484E-05
428.1169,-4.432426E-05
428.2169,-4.427435E-05
428.3169,-4.424233E-05
428.4169,-4.427058E-05
428.5169,-4.424233E-05
428.6169,-4.424892E-05
428.7169,-4.422443E-05
428.817,-4.421785E-05
428.917,-4.420184E-05
429.017,-4.42056E-05
429.117,-4.419242E-05
429.217,-4.420184E-05
429.317,-4.415004E-05
429.417,-4.412273E-05
429.517,-4.414156E-05
429.617,-4.41265E-05
429.717,-4.410201E-05
429.817,-4.411237E-05
429.917,-4.409165E-05
430.017,-4.406811E-05
430.117,-4.406623E-05
430.217,-4.408694E-05
430.317,-4.404927E-05
430.4171,-4.404174E-05
430.5171,-4.403986E-05
430.6171,-4.402667E-05
430.7171,-4.402479E-05
430.8171,-4.402761E-05
430.9171,-4.397865E-05
431.0171,-4.399371E-05
431.1171,-4.397488E-05
431.2171,-4.393815E-05
431.3171,-4.39551E-05
431.4171,-4.395228E-05
431.5171,-4.393438E-05
431.6171,-4.392591E-05
431.7171,-4.391178E-05
431.8171,-4.389389E-05
431.9171,-4.390801E-05
432.0172,-4.390613E-05
432.1172,-4.38468E-05
432.2172,-4.384774E-05
432.3172,-4.386564E-05
432.4172,-4.384774E-05
432.5172,-4.384869E-05
432.6172,-4.381384E-05
432.7172,-4.380254E-05
432.8172,-4.38129E-05
432.9172,-4.381478E-05
433.0172,-4.379218E-05
433.1172,-4.3779E-05
433.2172,-4.377711E-05
433.3172,-4.374886E-05
433.4172,-4.375263E-05
433.5172,-4.376864E-05
433.6172,-4.374133E-05
433.7173,-4.372626E-05
433.8173,-4.370366E-05
433.9173,-4.368765E-05
434.0173,-4.370083E-05
434.1173,-4.370083E-05
434.2173,-4.367164E-05
434.3173,-4.366693E-05
434.4173,-4.365187E-05
434.5173,-4.364715E-05
434.6173,-4.365563E-05
434.7173,-4.362644E-05
434.8173,-4.358783E-05
434.9173,-4.359065E-05
435.0173,-4.36189E-05
435.1173,-4.359913E-05
435.2173,-4.359536E-05
435.3174,-4.356616E-05
435.4174,-4.355393E-05
435.5174,-4.355675E-05
435.6174,-4.355393E-05
435.7174,-4.352755E-05
435.8174,-4.352379E-05
435.9174,-4.350966E-05
436.0174,-4.351343E-05
436.1174,-4.350872E-05
436.2174,-4.349083E-05
436.3174,-4.348141E-05
436.4174,-4.347764E-05
436.5174,-4.345693E-05
436.6174,-4.342396E-05
436.7174,-4.34541E-05
436.8174,-4.345127E-05
436.9174,-4.341361E-05
437.0175,-4.340042E-05
437.1175,-4.339759E-05
437.2175,-4.338065E-05
437.3175,-4.339383E-05
437.4175,-4.338441E-05
437.5175,-4.334862E-05
437.6175,-4.334674E-05
437.7175,-4.337688E-05
437.8175,-4.33571E-05
437.9175,-4.33345E-05
438.0175,-4.331378E-05
438.1175,-4.331284E-05
438.2175,-4.330908E-05
438.3175,-4.3294E-05
438.4175,-4.328647E-05
438.5175,-4.327046E-05
438.6176,-4.325445E-05
438.7176,-4.321773E-05
438.8176,-4.325727E-05
438.9176,-4.324127E-05
439.0176,-4.317158E-05
439.1176,-4.321396E-05
439.2176,-4.323844E-05
439.3176,-4.321679E-05
439.4176,-4.318665E-05
439.5176,-4.318853E-05
439.6176,-4.314616E-05
439.7176,-4.316405E-05
439.8176,-4.316593E-05
439.9176,-4.313297E-05
440.0176,-4.310095E-05
440.1176,-4.312261E-05
440.2177,-4.310001E-05
440.3177,-4.310943E-05
440.4177,-4.309342E-05
440.5177,-4.308117E-05
440.6177,-4.30501E-05
440.7177,-4.305104E-05
440.8177,-4.305481E-05
440.9177,-4.303032E-05
441.0177,-4.304068E-05
441.1177,-4.298135E-05
441.2177,-4.301243E-05
441.3177,-4.302467E-05
441.4177,-4.300395E-05
441.5177,-4.298041E-05
441.6177,-4.295216E-05
441.7177,-4.294462E-05
441.8177,-4.295592E-05
441.9178,-4.296723E-05
442.0178,-4.288623E-05
442.1178,-4.291637E-05
442.2178,-4.298229E-05
442.3178,-4.296063E-05
442.4178,-4.290695E-05
442.5178,-4.290507E-05
442.6178,-4.292391E-05
442.7178,-4.288153E-05
442.8178,-4.28514E-05
442.9178,-4.286081E-05
443.0178,-4.284857E-05
443.1178,-4.282409E-05
443.2178,-4.280242E-05
443.3178,-4.27883E-05
443.4178,-4.279489E-05
443.5179,-4.27883E-05
443.6179,-4.274968E-05
443.7179,-4.274686E-05
443.8179,-4.274121E-05
443.9179,-4.272049E-05
444.0179,-4.274215E-05
444.1179,-4.273367E-05
444.2179,-4.269789E-05
444.3179,-4.270448E-05
444.4179,-4.269695E-05
444.5179,-4.267341E-05
444.6179,-4.270354E-05
444.7179,-4.265363E-05
444.8179,-4.262914E-05
444.9179,-4.266399E-05
445.0179,-4.266116E-05
445.118,-4.262632E-05
445.218,-4.261313E-05
445.318,-4.259901E-05
445.418,-4.259242E-05
445.518,-4.258394E-05
445.618,-4.257547E-05
445.718,-4.256887E-05
445.818,-4.256228E-05
445.918,-4.255663E-05
446.018,-4.25199E-05
446.118,-4.254439E-05
446.218,-4.251896E-05
446.318,-4.250013E-05
446.418,-4.251143E-05
446.518,-4.251237E-05
446.618,-4.251425E-05
446.718,-4.247752E-05
446.8181,-4.246622E-05
446.9181,-4.246246E-05
447.0181,-4.24521E-05
447.1181,-4.244739E-05
447.2181,-4.242667E-05
447.3181,-4.240407E-05
447.4181,-4.243609E-05
447.5181,-4.241726E-05
447.6181,-4.241254E-05
447.7181,-4.240124E-05
447.8181,-4.239183E-05
447.9181,-4.23664E-05
448.0181,-4.232402E-05
448.1181,-4.233721E-05
448.2181,-4.232685E-05
448.3181,-4.233438E-05
448.4182,-4.23146E-05
448.5182,-4.229483E-05
448.6182,-4.230425E-05
448.7182,-4.228164E-05
448.8182,-4.229483E-05
448.9182,-4.226281E-05
449.0182,-4.224209E-05
449.1182,-4.225716E-05
449.2182,-4.225151E-05
449.3182,-4.223456E-05
449.4182,-4.221572E-05
449.5182,-4.219312E-05
449.6182,-4.217617E-05
449.7182,-4.218653E-05
449.8182,-4.217146E-05
449.9182,-4.213662E-05
450.0182,-4.215545E-05
450.1183,-4.214604E-05
450.2183,-4.214604E-05
450.3183,-4.212908E-05
450.4183,-4.212249E-05
450.5183,-4.208953E-05
450.6183,-4.20933E-05
450.7183,-4.211213E-05
450.8183,-4.208765E-05
450.9183,-4.207917E-05
451.0183,-4.206316E-05
451.1183,-4.206975E-05
451.2183,-4.207352E-05
451.3183,-4.204621E-05
451.4183,-4.202455E-05
451.5183,-4.204809E-05
451.6183,-4.202172E-05
451.7184,-4.200383E-05
451.8184,-4.199724E-05
451.9184,-4.197276E-05
452.0184,-4.19737E-05
452.1184,-4.198218E-05
452.2184,-4.198594E-05
452.3184,-4.19332E-05
452.4184,-4.193791E-05
452.5184,-4.196334E-05
452.6184,-4.193791E-05
452.7184,-4.191625E-05
452.8184,-4.190589E-05
452.9184,-4.191437E-05
453.0184,-4.190589E-05
453.1184,-4.190024E-05
453.2184,-4.18654E-05
453.3185,-4.188894E-05
453.4185,-4.186351E-05
453.5185,-4.184374E-05
453.6185,-4.183903E-05
453.7185,-4.18362E-05
453.8185,-4.181172E-05
453.9185,-4.181737E-05
454.0185,-4.180701E-05
454.1185,-4.176369E-05
454.2185,-4.179759E-05
454.3185,-4.180701E-05
454.4185,-4.176652E-05
454.5185,-4.175804E-05
454.6185,-4.175804E-05
454.7185,-4.174768E-05
454.8185,-4.17458E-05
454.9185,-4.175333E-05
455.0186,-4.170813E-05
455.1186,-4.170625E-05
455.2186,-4.171189E-05
455.3186,-4.168741E-05
455.4186,-4.170813E-05
455.5186,-4.168082E-05
455.6186,-4.165257E-05
455.7186,-4.164974E-05
455.8186,-4.16714E-05
455.9186,-4.166105E-05
456.0186,-4.16375E-05
456.1186,-4.162055E-05
456.2186,-4.159889E-05
456.3186,-4.159889E-05
456.4186,-4.164032E-05
456.5186,-4.159889E-05
456.6187,-4.156875E-05
456.7187,-4.158759E-05
456.8187,-4.159983E-05
456.9187,-4.155651E-05
457.0187,-4.15631E-05
457.1187,-4.157441E-05
457.2187,-4.153579E-05
457.3187,-4.153297E-05
457.4187,-4.152073E-05
457.5187,-4.152449E-05
457.6187,-4.152073E-05
457.7187,-4.15E-05
457.8187,-4.149341E-05
457.9187,-4.149341E-05
458.0187,-4.149153E-05
458.1187,-4.148306E-05
458.2188,-4.147175E-05
458.3188,-4.141148E-05
458.4188,-4.144727E-05
458.5188,-4.14614E-05
458.6188,-4.140678E-05
458.7188,-4.138888E-05
458.8188,-4.13983E-05
458.9188,-4.142467E-05
459.0188,-4.141713E-05
459.1188,-4.138229E-05
459.2188,-4.135875E-05
459.3188,-4.132391E-05
459.4188,-4.135686E-05
459.5188,-4.133238E-05
459.6188,-4.133521E-05
459.7188,-4.132013E-05
459.8188,-4.129188E-05
459.9189,-4.130789E-05
460.0189,-4.127682E-05
460.1189,-4.126081E-05
460.2189,-4.126175E-05
460.3189,-4.126175E-05
460.4189,-4.125328E-05
460.5189,-4.121937E-05
460.6189,-4.122785E-05
460.7189,-4.122219E-05
460.8189,-4.119583E-05
460.9189,-4.119112E-05
461.0189,-4.11591E-05
461.1189,-4.115439E-05
461.2189,-4.12043E-05
461.3189,-4.114403E-05
461.4189,-4.112991E-05
461.519,-4.112049E-05
461.619,-4.110542E-05
461.719,-4.110542E-05
461.819,-4.112991E-05
461.919,-4.108188E-05
462.019,-4.104892E-05
462.119,-4.110542E-05
462.219,-4.110636E-05
462.319,-4.107435E-05
462.419,-4.103573E-05
462.519,-4.105645E-05
462.619,-4.104892E-05
462.719,-4.10508E-05
462.819,-4.103009E-05
462.919,-4.101596E-05
463.019,-4.10056E-05
463.119,-4.098959E-05
463.2191,-4.100183E-05
463.3191,-4.100936E-05
463.4191,-4.0983E-05
463.5191,-4.095286E-05
463.6191,-4.096416E-05
463.7191,-4.094344E-05
463.8191,-4.094344E-05
463.9191,-4.095663E-05
464.0191,-4.091708E-05
464.1191,-4.090389E-05
464.2191,-4.091519E-05
464.3191,-4.090107E-05
464.4191,-4.089541E-05
464.5191,-4.088976E-05
464.6191,-4.087564E-05
464.7191,-4.084267E-05
464.8192,-4.08681E-05
464.9192,-4.086905E-05
465.0192,-4.082855E-05
465.1192,-4.083326E-05
465.2192,-4.08116E-05
465.3192,-4.082102E-05
465.4192,-4.083232E-05
465.5192,-4.080689E-05
465.6192,-4.077299E-05
465.7192,-4.078806E-05
465.8192,-4.079277E-05
465.9192,-4.076451E-05
466.0192,-4.076828E-05
466.1192,-4.075133E-05
466.2192,-4.073815E-05
466.3192,-4.073815E-05
466.4193,-4.073532E-05
466.5193,-4.072778E-05
466.6193,-4.07212E-05
466.7193,-4.071555E-05
466.8193,-4.069389E-05
466.9193,-4.070236E-05
467.0193,-4.070142E-05
467.1193,-4.069106E-05
467.2193,-4.070236E-05
467.3193,-4.065527E-05
467.4193,-4.06694E-05
467.5193,-4.069483E-05
467.6193,-4.067034E-05
467.7193,-4.063361E-05
467.8193,-4.063926E-05
467.9193,-4.063644E-05
468.0193,-4.06129E-05
468.1194,-4.063173E-05
468.2194,-4.06129E-05
468.3194,-4.05903E-05
468.4194,-4.058182E-05
468.5194,-4.057711E-05
468.6194,-4.055263E-05
468.7194,-4.055828E-05
468.8194,-4.05498E-05
468.9194,-4.055451E-05
469.0194,-4.056581E-05
469.1194,-4.052626E-05
469.2194,-4.052532E-05
469.3194,-4.05272E-05
469.4194,-4.050459E-05
469.5194,-4.046128E-05
469.6194,-4.050648E-05
469.7195,-4.048388E-05
469.8195,-4.04528E-05
469.9195,-4.047163E-05
470.0195,-4.047635E-05
470.1195,-4.045186E-05
470.2195,-4.041514E-05
470.3195,-4.04302E-05
470.4195,-4.04349E-05
470.5195,-4.041514E-05
470.6195,-4.040195E-05
470.7195,-4.039442E-05
470.8195,-4.042078E-05
470.9195,-4.036522E-05
471.0195,-4.032944E-05
471.1195,-4.037181E-05
471.2195,-4.037087E-05
471.3195,-4.036051E-05
471.4196,-4.035486E-05
471.5196,-4.033602E-05
471.6196,-4.031908E-05
471.7196,-4.036617E-05
471.8196,-4.034639E-05
471.9196,-4.02927E-05
472.0196,-4.030683E-05
472.1196,-4.029365E-05
472.2196,-4.027105E-05
472.3196,-4.028612E-05
472.4196,-4.028423E-05
472.5196,-4.025033E-05
472.6196,-4.022679E-05
472.7196,-4.02362E-05
472.8196,-4.022396E-05
472.9196,-4.023432E-05
473.0197,-4.02136E-05
473.1197,-4.018723E-05
473.2197,-4.018912E-05
473.3197,-4.019194E-05
473.4197,-4.018723E-05
473.5197,-4.020889E-05
473.6197,-4.014392E-05
473.7197,-4.014109E-05
473.8197,-4.015239E-05
473.9197,-4.016652E-05
474.0197,-4.011472E-05
474.1197,-4.011189E-05
474.2197,-4.012508E-05
474.3197,-4.012979E-05
474.4197,-4.012791E-05
474.5197,-4.00827E-05
474.6198,-4.005728E-05
474.7198,-4.010907E-05
474.8198,-4.007893E-05
474.9198,-4.005539E-05
475.0198,-4.006104E-05
475.1198,-4.007517E-05
475.2198,-4.005163E-05
475.3198,-4.005445E-05
475.4198,-4.002149E-05
475.5198,-4.003373E-05
475.6198,-4.00375E-05
475.7198,-4.006857E-05
475.8198,-4.002997E-05
475.9198,-3.999606E-05
476.0198,-3.998759E-05
476.1198,-3.999324E-05
476.2198,-4.000077E-05
476.3199,-3.996404E-05
476.4199,-3.994709E-05
476.5199,-3.995368E-05
476.6199,-3.996216E-05
476.7199,-3.994615E-05
476.8199,-3.993391E-05
476.9199,-3.990377E-05
477.0199,-3.989247E-05
477.1199,-3.993203E-05
477.2199,-3.991319E-05
477.3199,-3.988776E-05
477.4199,-3.990377E-05
477.5199,-3.986328E-05
477.6199,-3.984633E-05
477.7199,-3.988776E-05
477.8199,-3.989153E-05
477.92,-3.98435E-05
478.02,-3.98548E-05
478.12,-3.986234E-05
478.22,-3.982561E-05
478.32,-3.982184E-05
478.42,-3.981713E-05
478.52,-3.979736E-05
478.62,-3.981525E-05
478.72,-3.978135E-05
478.82,-3.97757E-05
478.92,-3.978982E-05
479.02,-3.977005E-05
479.12,-3.97578E-05
479.22,-3.975122E-05
479.32,-3.97644E-05
479.42,-3.973709E-05
479.5201,-3.972767E-05
479.6201,-3.972955E-05
479.7201,-3.97126E-05
479.8201,-3.971825E-05
479.9201,-3.969848E-05
480.0201,-3.968529E-05
480.1201,-3.970318E-05
480.2201,-3.970884E-05
480.3201,-3.966175E-05
480.4201,-3.96561E-05
480.5201,-3.965892E-05
480.6201,-3.965327E-05
480.7201,-3.96448E-05
480.8201,-3.961749E-05
480.9201,-3.960807E-05
481.0201,-3.961843E-05
481.1201,-3.96269E-05
481.2202,-3.958829E-05
481.3202,-3.958264E-05
481.4202,-3.958076E-05
481.5202,-3.956946E-05
481.6202,-3.95817E-05
481.7202,-3.956569E-05
481.8202,-3.952802E-05
481.9202,-3.956946E-05
482.0202,-3.95817E-05
482.1202,-3.954026E-05
482.2202,-3.954026E-05
482.3202,-3.952331E-05
482.4202,-3.951578E-05
482.5202,-3.952896E-05
482.6202,-3.954026E-05
482.7202,-3.947905E-05
482.8203,-3.948282E-05
482.9203,-3.948376E-05
483.0203,-3.946869E-05
483.1203,-3.9496E-05
483.2203,-3.946587E-05
483.3203,-3.94508E-05
483.4203,-3.946681E-05
483.5203,-3.945363E-05
483.6203,-3.943573E-05
483.7203,-3.943479E-05
483.8203,-3.943196E-05
483.9203,-3.942537E-05
484.0203,-3.940371E-05
484.1203,-3.939995E-05
484.2203,-3.941125E-05
484.3203,-3.938865E-05
484.4203,-3.9399E-05
484.5204,-3.937075E-05
484.6204,-3.937923E-05
484.7204,-3.937075E-05
484.8204,-3.933967E-05
484.9204,-3.933873E-05
485.0204,-3.934156E-05
485.1204,-3.932649E-05
485.2204,-3.933967E-05
485.3204,-3.932084E-05
485.4204,-3.932649E-05
485.5204,-3.932084E-05
485.6204,-3.930671E-05
485.7204,-3.928694E-05
485.8204,-3.928506E-05
485.9204,-3.927941E-05
486.0204,-3.928976E-05
486.1205,-3.927564E-05
486.2205,-3.927188E-05
486.3205,-3.925303E-05
486.4205,-3.923138E-05
486.5205,-3.925492E-05
486.6205,-3.924456E-05
486.7205,-3.922384E-05
486.8205,-3.92342E-05
486.9205,-3.921348E-05
487.0205,-3.920689E-05
487.1205,-3.920784E-05
487.2205,-3.922855E-05
487.3205,-3.919747E-05
487.4205,-3.918994E-05
487.5205,-3.918335E-05
487.6205,-3.91777E-05
487.7206,-3.918052E-05
487.8206,-3.916357E-05
487.9206,-3.916546E-05
488.0206,-3.914003E-05
488.1206,-3.913532E-05
488.2206,-3.916922E-05
488.3206,-3.918429E-05
488.4206,-3.913061E-05
488.5206,-3.912025E-05
488.6206,-3.915227E-05
488.7206,-3.915698E-05
488.8206,-3.912025E-05
488.9206,-3.910989E-05
489.0206,-3.911366E-05
489.1206,-3.911743E-05
489.2206,-3.912496E-05
489.3206,-3.909671E-05
489.4207,-3.907222E-05
489.5207,-3.906092E-05
489.6207,-3.907222E-05
489.7207,-3.90581E-05
489.8207,-3.905621E-05
489.9207,-3.902702E-05
490.0207,-3.902984E-05
490.1207,-3.902984E-05
490.2207,-3.902326E-05
490.3207,-3.900253E-05
490.4207,-3.901572E-05
490.5207,-3.899877E-05
490.6207,-3.89724E-05
490.7207,-3.900065E-05
490.8207,-3.897522E-05
490.9207,-3.896581E-05
491.0208,-3.896769E-05
491.1208,-3.896487E-05
491.2208,-3.895168E-05
491.3208,-3.894509E-05
491.4208,-3.893285E-05
491.5208,-3.891872E-05
491.6208,-3.892343E-05
491.7208,-3.892814E-05
491.8208,-3.890648E-05
491.9208,-3.891778E-05
492.0208,-3.890083E-05
492.1208,-3.88754E-05
492.2208,-3.889424E-05
492.3208,-3.890083E-05
492.4208,-3.887258E-05
492.5208,-3.886033E-05
492.6208,-3.885468E-05
492.7209,-3.883114E-05
492.8209,-3.883773E-05
492.9209,-3.883773E-05
493.0209,-3.881137E-05
493.1209,-3.883868E-05
493.2209,-3.881795E-05
493.3209,-3.879159E-05
493.4209,-3.880289E-05
493.5209,-3.882267E-05
493.6209,-3.880477E-05
493.7209,-3.876239E-05
493.8209,-3.877181E-05
493.9209,-3.877746E-05
494.0209,-3.880006E-05
494.1209,-3.875015E-05
494.2209,-3.87445E-05
494.321,-3.875204E-05
494.421,-3.874921E-05
494.521,-3.872284E-05
494.621,-3.871154E-05
494.721,-3.871154E-05
494.821,-3.8688E-05
494.921,-3.870307E-05
495.021,-3.871719E-05
495.121,-3.865786E-05
495.221,-3.867105E-05
495.321,-3.868988E-05
495.421,-3.866822E-05
495.521,-3.86541E-05
495.621,-3.864374E-05
495.721,-3.866163E-05
495.821,-3.865033E-05
495.9211,-3.864185E-05
496.0211,-3.863809E-05
496.1211,-3.864091E-05
496.2211,-3.863244E-05
496.3211,-3.86136E-05
496.4211,-3.858818E-05
496.5211,-3.860324E-05
496.6211,-3.862208E-05
496.7211,-3.860606E-05
496.8211,-3.857311E-05
496.9211,-3.85618E-05
497.0211,-3.858629E-05
497.1211,-3.858346E-05
497.2211,-3.854392E-05
497.3211,-3.853449E-05
497.4211,-3.856652E-05
497.5211,-3.850813E-05
497.6212,-3.85006E-05
497.7212,-3.852885E-05
497.8212,-3.852225E-05
497.9212,-3.850154E-05
498.0212,-3.850907E-05
498.1212,-3.849494E-05
498.2212,-3.845727E-05
498.3212,-3.846763E-05
498.4212,-3.846575E-05
498.5212,-3.847988E-05
498.6212,-3.847517E-05
498.7212,-3.84196E-05
498.8212,-3.840642E-05
498.9212,-3.847517E-05
499.0212,-3.845351E-05
499.1212,-3.840265E-05
499.2213,-3.842243E-05
499.3213,-3.842337E-05
499.4213,-3.839041E-05
499.5213,-3.84083E-05
499.6213,-3.84036E-05
499.7213,-3.838476E-05
499.8213,-3.836027E-05
499.9213,-3.836592E-05
500.0213,-3.83631E-05
500.1213,-3.836404E-05
500.2213,-3.834238E-05
500.3213,-3.832355E-05
500.4213,-3.833768E-05
500.5213,-3.833768E-05
500.6213,-3.831318E-05
500.7213,-3.830189E-05
500.8214,-3.828305E-05
500.9214,-3.827269E-05
501.0214,-3.83066E-05
501.1214,-3.829812E-05
501.2214,-3.825857E-05
501.3214,-3.825951E-05
501.4214,-3.824821E-05
501.5214,-3.825386E-05
501.6214,-3.825104E-05
501.7214,-3.8203E-05
501.8214,-3.820489E-05
501.9214,-3.825857E-05
502.0214,-3.824067E-05
502.1214,-3.819359E-05
502.2214,-3.820206E-05
502.3214,-3.82143E-05
502.4214,-3.820677E-05
502.5215,-3.819641E-05
502.6215,-3.81578E-05
502.7215,-3.815875E-05
502.8215,-3.816157E-05
502.9215,-3.817004E-05
503.0215,-3.816534E-05
503.1215,-3.814085E-05
503.2215,-3.812672E-05
503.3215,-3.813426E-05
503.4215,-3.813803E-05
503.5215,-3.81126E-05
503.6215,-3.809188E-05
503.7215,-3.809188E-05
503.8215,-3.807211E-05
503.9215,-3.807681E-05
504.0215,-3.811542E-05
504.1216,-3.808999E-05
504.2216,-3.804573E-05
504.3216,-3.805233E-05
504.4216,-3.808152E-05
504.5216,-3.804009E-05
504.6216,-3.805986E-05
504.7216,-3.802408E-05
504.8216,-3.800524E-05
504.9216,-3.802031E-05
505.0216,-3.801654E-05
505.1216,-3.801466E-05
505.2216,-3.800807E-05
505.3216,-3.800713E-05
505.4216,-3.79704E-05
505.5216,-3.797228E-05
505.6216,-3.798264E-05
505.7216,-3.797228E-05
505.8217,-3.796098E-05
505.9217,-3.793367E-05
506.0217,-3.796286E-05
506.1217,-3.799394E-05
506.2217,-3.796192E-05
506.3217,-3.790542E-05
506.4217,-3.792896E-05
506.5217,-3.794403E-05
506.6217,-3.792614E-05
506.7217,-3.791389E-05
506.8217,-3.791672E-05
506.9217,-3.788658E-05
507.0217,-3.7896E-05
507.1217,-3.790448E-05
507.2217,-3.787999E-05
507.3217,-3.786869E-05
507.4218,-3.787622E-05
507.5218,-3.783761E-05
507.6218,-3.784515E-05
507.7218,-3.783479E-05
507.8218,-3.783384E-05
507.9218,-3.784986E-05
508.0218,-3.783102E-05
508.1218,-3.780559E-05
508.2218,-3.782819E-05
508.3218,-3.780842E-05
508.4218,-3.779806E-05
508.5218,-3.781031E-05
508.6218,-3.778488E-05
508.7218,-3.775851E-05
508.8218,-3.77717E-05
508.9218,-3.779523E-05
509.0219,-3.775192E-05
509.1219,-3.774062E-05
509.2219,-3.772649E-05
509.3219,-3.772366E-05
509.4219,-3.77538E-05
509.5219,-3.774062E-05
509.6219,-3.770295E-05
509.7219,-3.771425E-05
509.8219,-3.769447E-05
509.9219,-3.767376E-05
510.0219,-3.771048E-05
510.1219,-3.767281E-05
510.2219,-3.764644E-05
510.3219,-3.766151E-05
510.4219,-3.76681E-05
510.5219,-3.764833E-05
510.6219,-3.76295E-05
510.722,-3.763703E-05
510.822,-3.762007E-05
510.922,-3.763797E-05
511.022,-3.760124E-05
511.122,-3.758617E-05
511.222,-3.763326E-05
511.322,-3.762572E-05
511.422,-3.75824E-05
511.522,-3.758146E-05
511.622,-3.758052E-05
511.722,-3.755792E-05
511.822,-3.755603E-05
511.922,-3.754191E-05
512.022,-3.750142E-05
512.122,-3.754191E-05
512.222,-3.753532E-05
512.322,-3.751271E-05
512.4219,-3.750236E-05
512.5219,-3.750424E-05
512.6219,-3.749294E-05
512.7219,-3.749765E-05
512.8218,-3.750047E-05
512.9218,-3.747693E-05
513.0218,-3.747693E-05
513.1218,-3.746657E-05
513.2217,-3.745904E-05
513.3217,-3.744962E-05
513.4217,-3.747693E-05
513.5217,-3.741949E-05
513.6216,-3.744209E-05
513.7216,-3.744209E-05
513.8216,-3.741383E-05
513.9216,-3.743267E-05
514.0215,-3.743644E-05
514.1215,-3.739029E-05
514.2215,-3.738841E-05
514.3215,-3.741101E-05
514.4214,-3.740159E-05
514.5214,-3.738653E-05
514.6214,-3.737805E-05
514.7214,-3.739029E-05
514.8214,-3.737334E-05
514.9213,-3.738088E-05
515.0213,-3.736863E-05
515.1213,-3.735168E-05
515.2213,-3.735074E-05
515.3212,-3.736015E-05
515.4212,-3.73498E-05
515.5212,-3.736204E-05
515.6212,-3.735357E-05
515.7211,-3.732719E-05
515.8211,-3.737616E-05
515.9211,-3.731495E-05
516.0211,-3.732155E-05
516.121,-3.734132E-05
516.221,-3.729424E-05
516.321,-3.72933E-05
516.421,-3.731872E-05
516.5209,-3.728011E-05
516.6209,-3.727634E-05
516.7209,-3.729894E-05
516.8209,-3.728199E-05
516.9208,-3.724621E-05
517.0208,-3.726221E-05
517.1208,-3.724998E-05
517.2208,-3.725374E-05
517.3207,-3.721042E-05
517.4207,-3.720854E-05
517.5207,-3.724432E-05
517.6207,-3.721607E-05
517.7206,-3.719347E-05
517.8206,-3.717746E-05
517.9206,-3.718217E-05
518.0206,-3.714826E-05
518.1205,-3.716804E-05
518.2205,-3.717557E-05
518.3205,-3.712849E-05
518.4205,-3.711719E-05
518.5204,-3.71558E-05
518.6204,-3.719064E-05
518.7204,-3.71332E-05
518.8204,-3.711154E-05
518.9203,-3.713791E-05
519.0203,-3.708705E-05
519.1203,-3.710306E-05
519.2203,-3.70927E-05
519.3203,-3.707858E-05
519.4202,-3.708141E-05
519.5202,-3.707104E-05
519.6202,-3.706257E-05
519.7202,-3.707952E-05
519.8201,-3.705315E-05
519.9201,-3.702019E-05
520.0201,-3.703997E-05
520.1201,-3.702302E-05
520.22,-3.702113E-05
520.32,-3.700136E-05
520.42,-3.699288E-05
520.52,-3.700606E-05
520.6199,-3.701172E-05
520.7199,-3.69797E-05
520.8199,-3.696934E-05
520.9199,-3.698346E-05
521.0198,-3.697687E-05
521.1198,-3.696934E-05
521.2198,-3.696086E-05
521.3198,-3.693638E-05
521.4197,-3.695238E-05
521.5197,-3.696557E-05
521.6197,-3.694768E-05
521.7197,-3.69571E-05
521.8196,-3.69505E-05
521.9196,-3.691566E-05
522.0196,-3.693073E-05
522.1196,-3.695238E-05
522.2195,-3.690812E-05
522.3195,-3.691095E-05
522.4195,-3.690812E-05
522.5195,-3.691284E-05
522.6194,-3.689211E-05
522.7194,-3.689588E-05
522.8194,-3.689306E-05
522.9194,-3.6894E-05
523.0193,-3.687705E-05
523.1193,-3.687893E-05
523.2193,-3.688176E-05
523.3193,-3.687516E-05
523.4193,-3.68309E-05
523.5192,-3.687046E-05
523.6192,-3.686575E-05
523.7192,-3.685256E-05
523.8192,-3.682808E-05
523.9191,-3.683185E-05
524.0191,-3.684409E-05
524.1191,-3.681113E-05
524.2191,-3.684597E-05
524.319,-3.680359E-05
524.419,-3.683185E-05
524.519,-3.680548E-05
524.619,-3.678005E-05
524.7189,-3.677534E-05
524.8189,-3.678287E-05
524.9189,-3.6797E-05
525.0189,-3.680265E-05
525.1188,-3.67631E-05
525.2188,-3.674992E-05
525.3188,-3.674144E-05
525.4188,-3.677911E-05
525.5187,-3.674992E-05
525.6187,-3.674709E-05
525.7187,-3.673484E-05
525.8187,-3.671978E-05
525.9186,-3.673673E-05
526.0186,-3.674992E-05
526.1186,-3.671318E-05
526.2186,-3.669718E-05
526.3185,-3.67113E-05
526.4185,-3.671507E-05
526.5185,-3.672166E-05
526.6185,-3.670848E-05
526.7184,-3.669623E-05
526.8184,-3.669341E-05
526.9184,-3.667363E-05
527.0184,-3.666516E-05
527.1183,-3.667363E-05
527.2183,-3.666045E-05
527.3183,-3.664538E-05
527.4183,-3.663502E-05
527.5182,-3.666139E-05
527.6182,-3.662466E-05
527.7182,-3.661054E-05
527.8182,-3.660395E-05
527.9182,-3.661996E-05
528.0181,-3.662749E-05
528.1181,-3.663031E-05
528.2181,-3.661054E-05
528.3181,-3.65804E-05
528.418,-3.657664E-05
528.518,-3.659359E-05
528.618,-3.658888E-05
528.718,-3.660489E-05
528.8179,-3.654085E-05
528.9179,-3.654179E-05
529.0179,-3.660112E-05
529.1179,-3.660771E-05
529.2178,-3.653803E-05
529.3178,-3.654085E-05
529.4178,-3.655309E-05
529.5178,-3.653991E-05
529.6177,-3.652578E-05
529.7177,-3.65013E-05
529.8177,-3.65239E-05
529.9177,-3.655309E-05
530.0176,-3.657569E-05
530.1176,-3.653614E-05
530.2176,-3.6506E-05
530.3176,-3.655403E-05
530.4175,-3.653426E-05
530.5175,-3.651825E-05
530.6175,-3.650695E-05
530.7175,-3.64834E-05
530.8174,-3.649282E-05
530.9174,-3.649282E-05
531.0174,-3.646739E-05
531.1174,-3.646174E-05
531.2173,-3.644196E-05
531.3173,-3.643067E-05
531.4173,-3.644668E-05
531.5173,-3.644008E-05
531.6172,-3.642313E-05
531.7172,-3.642125E-05
531.8172,-3.640618E-05
531.9172,-3.64222E-05
532.0172,-3.64203E-05
532.1171,-3.642973E-05
532.2171,-3.639017E-05
532.3171,-3.638829E-05
532.4171,-3.638076E-05
532.517,-3.636945E-05
532.617,-3.639771E-05
532.717,-3.637416E-05
532.817,-3.633273E-05
532.9169,-3.636286E-05
533.0169,-3.636475E-05
533.1169,-3.632802E-05
533.2169,-3.633932E-05
533.3168,-3.636475E-05
533.4168,-3.635251E-05
533.5168,-3.633367E-05
533.6168,-3.632143E-05
533.7167,-3.630353E-05
533.8167,-3.631013E-05
533.9167,-3.633178E-05
534.0167,-3.629977E-05
534.1166,-3.631389E-05
534.2166,-3.629788E-05
534.3166,-3.625739E-05
534.4166,-3.628658E-05
534.5165,-3.629318E-05
534.6165,-3.626398E-05
534.7165,-3.625174E-05
534.8165,-3.624044E-05
534.9164,-3.624232E-05
535.0164,-3.62555E-05
535.1164,-3.625362E-05
535.2164,-3.621407E-05
535.3163,-3.622537E-05
535.4163,-3.623008E-05
535.5163,-3.621689E-05
535.6163,-3.621877E-05
535.7162,-3.621124E-05
535.8162,-3.62216E-05
535.9162,-3.620277E-05
536.0162,-3.618299E-05
536.1161,-3.616321E-05
536.2161,-3.61877E-05
536.3161,-3.618958E-05
536.4161,-3.613496E-05
536.5161,-3.61425E-05
536.616,-3.616321E-05
536.716,-3.616793E-05
536.816,-3.617546E-05
536.916,-3.614344E-05
537.0159,-3.612084E-05
537.1159,-3.612555E-05
537.2159,-3.615191E-05
537.3159,-3.613779E-05
537.4158,-3.612366E-05
537.5158,-3.609824E-05
537.6158,-3.610577E-05
537.7158,-3.610483E-05
537.8157,-3.612837E-05
537.9157,-3.609259E-05
538.0157,-3.606151E-05
538.1157,-3.608222E-05
538.2156,-3.606622E-05
538.3156,-3.609541E-05
538.4156,-3.607281E-05
538.5156,-3.603796E-05
538.6155,-3.604926E-05
538.7155,-3.607092E-05
538.8155,-3.604738E-05
538.9155,-3.602761E-05
539.0154,-3.602855E-05
539.1154,-3.603231E-05
539.2154,-3.603514E-05
539.3154,-3.602949E-05
539.4153,-3.600595E-05
539.5153,-3.599747E-05
539.6153,-3.600595E-05
539.7153,-3.60003E-05
539.8152,-3.599653E-05
539.9152,-3.600783E-05
540.0152,-3.598617E-05
540.1152,-3.599653E-05
540.2151,-3.602196E-05
540.3151,-3.598146E-05
540.4151,-3.59598E-05
540.5151,-3.597675E-05
540.6151,-3.595415E-05
540.715,-3.595415E-05
540.815,-3.59372E-05
540.915,-3.590895E-05
541.015,-3.59259E-05
541.1149,-3.594191E-05
541.2149,-3.590801E-05
541.3149,-3.591837E-05
541.4149,-3.589294E-05
541.5148,-3.588917E-05
541.6148,-3.58807E-05
541.7148,-3.589576E-05
541.8148,-3.587693E-05
541.9147,-3.587505E-05
542.0147,-3.588635E-05
542.1147,-3.584962E-05
542.2147,-3.585339E-05
542.3146,-3.587033E-05
542.4146,-3.584868E-05
542.5146,-3.585998E-05
542.6146,-3.582607E-05
542.7145,-3.580912E-05
542.8145,-3.581101E-05
542.9145,-3.583644E-05
543.0145,-3.58063E-05
543.1144,-3.580254E-05
543.2144,-3.5795E-05
543.3144,-3.577523E-05
543.4144,-3.579876E-05
543.5143,-3.579971E-05
543.6143,-3.573661E-05
543.7143,-3.575262E-05
543.8143,-3.57545E-05
543.9142,-3.575074E-05
544.0142,-3.575074E-05
544.1142,-3.575921E-05
544.2142,-3.572531E-05
544.3141,-3.572155E-05
544.4141,-3.572719E-05
544.5141,-3.571777E-05
544.6141,-3.572249E-05
544.7141,-3.572625E-05
544.814,-3.570082E-05
544.914,-3.572155E-05
545.014,-3.571401E-05
545.114,-3.568293E-05
545.2139,-3.566598E-05
545.3139,-3.56867E-05
545.4139,-3.566598E-05
545.5139,-3.568387E-05
545.6138,-3.567446E-05
545.7138,-3.565186E-05
545.8138,-3.564338E-05
545.9138,-3.564997E-05
546.0137,-3.563302E-05
546.1137,-3.566033E-05
546.2137,-3.565656E-05
546.3137,-3.560477E-05
546.4136,-3.562925E-05
546.5136,-3.563867E-05
546.6136,-3.561607E-05
546.7136,-3.561324E-05
546.8135,-3.560194E-05
546.9135,-3.557369E-05
547.0135,-3.558311E-05
547.1135,-3.559158E-05
547.2134,-3.55558E-05
547.3134,-3.557935E-05
547.4134,-3.560006E-05
547.5134,-3.559629E-05
547.6133,-3.557935E-05
547.7133,-3.559347E-05
547.8133,-3.55492E-05
547.9133,-3.557745E-05
548.0132,-3.558123E-05
548.1132,-3.553037E-05
548.2132,-3.552001E-05
548.3132,-3.554826E-05
548.4131,-3.553602E-05
548.5131,-3.55219E-05
548.6131,-3.552001E-05
548.7131,-3.549647E-05
548.813,-3.548517E-05
548.913,-3.550212E-05
549.013,-3.54927E-05
549.113,-3.550966E-05
549.213,-3.550212E-05
549.3129,-3.545127E-05
549.4129,-3.546634E-05
549.5129,-3.547763E-05
549.6129,-3.544844E-05
549.7128,-3.542867E-05
549.8128,-3.546822E-05
549.9128,-3.54635E-05
550.0128,-3.542396E-05
550.1127,-3.545032E-05
550.2127,-3.544656E-05
550.3127,-3.541925E-05
550.4127,-3.542301E-05
550.5126,-3.542301E-05
550.6126,-3.542113E-05
550.7126,-3.542019E-05
550.8126,-3.539005E-05
550.9125,-3.54136E-05
551.0125,-3.541642E-05
551.1125,-3.541266E-05
551.2125,-3.537499E-05
551.3124,-3.53618E-05
551.4124,-3.538064E-05
551.5124,-3.537028E-05
551.6124,-3.537969E-05
551.7123,-3.53618E-05
551.8123,-3.535615E-05
551.9123,-3.534297E-05
552.0123,-3.533073E-05
552.1122,-3.534014E-05
552.2122,-3.53505E-05
552.3122,-3.531E-05
552.4122,-3.528269E-05
552.5121,-3.531283E-05
552.6121,-3.531378E-05
552.7121,-3.530247E-05
552.8121,-3.53053E-05
552.912,-3.526104E-05
553.012,-3.526763E-05
553.112,-3.531189E-05
553.212,-3.5294E-05
553.312,-3.526574E-05
553.4119,-3.524597E-05
553.5119,-3.524879E-05
553.6119,-3.523655E-05
553.7119,-3.526292E-05
553.8118,-3.524785E-05
553.9118,-3.521678E-05
554.0118,-3.521678E-05
554.1118,-3.519888E-05
554.2117,-3.523749E-05
554.3117,-3.518852E-05
554.4117,-3.521112E-05
554.5117,-3.520736E-05
554.6116,-3.521772E-05
554.7116,-3.519983E-05
554.8116,-3.51744E-05
554.9116,-3.517817E-05
555.0115,-3.519041E-05
555.1115,-3.518193E-05
555.2115,-3.518193E-05
555.3115,-3.514615E-05
555.4114,-3.517252E-05
555.5114,-3.520265E-05
555.6114,-3.517252E-05
555.7114,-3.513861E-05
555.8113,-3.513767E-05
555.9113,-3.515462E-05
556.0113,-3.513673E-05
556.1113,-3.516404E-05
556.2112,-3.511318E-05
556.3112,-3.509623E-05
556.4112,-3.511413E-05
556.5112,-3.511036E-05
556.6111,-3.509529E-05
556.7111,-3.51E-05
556.8111,-3.507551E-05
556.9111,-3.505762E-05
557.011,-3.507175E-05
557.111,-3.509717E-05
557.211,-3.506139E-05
557.311,-3.505009E-05
557.4109,-3.502654E-05
557.5109,-3.504915E-05
557.6109,-3.508305E-05
557.7109,-3.503408E-05
557.8109,-3.500394E-05
557.9108,-3.502278E-05
558.0108,-3.503032E-05
558.1108,-3.499547E-05
558.2108,-3.50143E-05
558.3107,-3.500959E-05
558.4107,-3.496439E-05
558.5107,-3.499359E-05
558.6107,-3.500206E-05
558.7106,-3.499359E-05
558.8106,-3.497098E-05
558.9106,-3.498134E-05
559.0106,-3.49465E-05
559.1105,-3.496251E-05
559.2105,-3.497098E-05
559.3105,-3.493708E-05
559.4105,-3.493708E-05
559.5104,-3.493143E-05
559.6104,-3.495686E-05
559.7104,-3.497663E-05
559.8104,-3.493614E-05
559.9103,-3.490506E-05
560.0103,-3.494273E-05
560.1103,-3.492578E-05
560.2103,-3.492861E-05
560.3102,-3.490412E-05
560.4102,-3.49013E-05
560.5102,-3.486739E-05
560.6102,-3.489376E-05
560.7101,-3.489753E-05
560.8101,-3.488623E-05
560.9101,-3.489282E-05
561.0101,-3.488058E-05
561.11,-3.486174E-05
561.21,-3.485421E-05
561.31,-3.487304E-05
561.41,-3.484667E-05
561.5099,-3.484479E-05
561.6099,-3.482973E-05
561.7099,-3.481936E-05
561.8099,-3.482031E-05
561.9099,-3.483726E-05
562.0098,-3.480806E-05
562.1098,-3.48043E-05
562.2098,-3.481277E-05
562.3098,-3.481466E-05
562.4097,-3.479865E-05
562.5097,-3.477228E-05
562.6097,-3.480618E-05
562.7097,-3.4793E-05
562.8096,-3.479582E-05
562.9096,-3.475156E-05
563.0096,-3.477982E-05
563.1096,-3.477793E-05
563.2095,-3.476851E-05
563.3095,-3.476945E-05
563.4095,-3.474873E-05
563.5095,-3.473272E-05
563.6094,-3.473932E-05
563.7094,-3.476192E-05
563.8094,-3.471954E-05
563.9094,-3.471389E-05
564.0093,-3.474403E-05
564.1093,-3.47412E-05
564.2093,-3.474968E-05
564.3093,-3.471954E-05
564.4092,-3.469223E-05
564.5092,-3.471672E-05
564.6092,-3.475533E-05
564.7092,-3.470541E-05
564.8091,-3.470353E-05
564.9091,-3.468564E-05
565.0091,-3.467151E-05
565.1091,-3.467434E-05
565.209,-3.469129E-05
565.309,-3.466492E-05
565.409,-3.468564E-05
565.509,-3.468846E-05
565.6089,-3.464044E-05
565.7089,-3.462443E-05
565.8089,-3.466115E-05
565.9089,-3.464985E-05
566.0089,-3.465739E-05
566.1088,-3.46442E-05
566.2088,-3.459994E-05
566.3088,-3.460936E-05
566.4088,-3.464044E-05
566.5087,-3.463008E-05
566.6087,-3.458864E-05
566.7087,-3.463573E-05
566.8087,-3.465174E-05
566.9086,-3.462254E-05
567.0086,-3.461124E-05
567.1086,-3.46282E-05
567.2086,-3.459806E-05
567.3085,-3.460936E-05
567.4085,-3.459146E-05
567.5085,-3.460936E-05
567.6085,-3.460182E-05
567.7084,-3.455851E-05
567.8084,-3.455663E-05
567.9084,-3.457357E-05
568.0084,-3.455568E-05
568.1083,-3.455945E-05
568.2083,-3.457357E-05
568.3083,-3.456416E-05
568.4083,-3.45538E-05
568.5082,-3.457828E-05
568.6082,-3.456981E-05
568.7082,-3.451613E-05
568.8082,-3.454438E-05
568.9081,-3.453778E-05
569.0081,-3.451519E-05
569.1081,-3.451047E-05
569.2081,-3.45246E-05
569.308,-3.45312E-05
569.408,-3.451236E-05
569.508,-3.450294E-05
569.608,-3.449635E-05
569.7079,-3.450577E-05
569.8079,-3.45246E-05
569.9079,-3.448222E-05
570.0079,-3.448882E-05
570.1078,-3.446621E-05
570.2078,-3.446245E-05
570.3078,-3.447657E-05
570.4078,-3.447375E-05
570.5078,-3.447375E-05
570.6077,-3.446433E-05
570.7077,-3.44681E-05
570.8077,-3.444267E-05
570.9077,-3.445868E-05
571.0076,-3.445868E-05
571.1076,-3.44568E-05
571.2076,-3.44455E-05
571.3076,-3.44455E-05
571.4075,-3.444738E-05
571.5075,-3.443796E-05
571.6075,-3.444362E-05
571.7075,-3.443325E-05
571.8074,-3.442572E-05
571.9074,-3.44389E-05
572.0074,-3.443231E-05
572.1074,-3.441159E-05
572.2073,-3.441065E-05
572.3073,-3.439088E-05
572.4073,-3.440877E-05
572.5073,-3.442007E-05
572.6072,-3.436074E-05
572.7072,-3.437393E-05
572.8072,-3.438805E-05
572.9072,-3.437487E-05
573.0071,-3.437769E-05
573.1071,-3.438617E-05
573.2071,-3.437205E-05
573.3071,-3.434756E-05
573.407,-3.437487E-05
573.507,-3.436074E-05
573.607,-3.434662E-05
573.707,-3.433155E-05
573.8069,-3.43485E-05
573.9069,-3.437393E-05
574.0069,-3.43372E-05
574.1069,-3.433061E-05
574.2068,-3.432307E-05
574.3068,-3.434285E-05
574.4068,-3.433249E-05
574.5068,-3.433532E-05
574.6068,-3.432496E-05
574.7067,-3.430518E-05
574.8067,-3.431648E-05
574.9067,-3.431742E-05
575.0067,-3.430612E-05
575.1066,-3.42807E-05
575.2066,-3.431836E-05
575.3066,-3.427693E-05
575.4066,-3.427033E-05
575.5065,-3.428258E-05
575.6065,-3.427316E-05
575.7065,-3.425998E-05
575.8065,-3.426563E-05
575.9064,-3.425056E-05
576.0064,-3.426939E-05
576.1064,-3.42807E-05
576.2064,-3.426563E-05
576.3063,-3.424679E-05
576.4063,-3.427598E-05
576.5063,-3.42628E-05
576.6063,-3.424867E-05
576.7062,-3.424491E-05
576.8062,-3.423832E-05
576.9062,-3.42176E-05
577.0062,-3.421948E-05
577.1061,-3.421195E-05
577.2061,-3.42063E-05
577.3061,-3.422042E-05
577.4061,-3.421383E-05
577.506,-3.420347E-05
577.606,-3.419029E-05
577.706,-3.420441E-05
577.806,-3.41771E-05
577.9059,-3.417993E-05
578.0059,-3.419406E-05
578.1059,-3.419782E-05
578.2059,-3.419123E-05
578.3058,-3.418181E-05
578.4058,-3.419029E-05
578.5058,-3.419123E-05
578.6058,-3.418181E-05
578.7057,-3.419312E-05
578.8057,-3.415074E-05
578.9057,-3.416957E-05
579.0057,-3.418275E-05
579.1057,-3.414414E-05
579.2056,-3.41545E-05
579.3056,-3.413943E-05
579.4056,-3.414603E-05
579.5056,-3.416109E-05
579.6055,-3.414885E-05
579.7055,-3.411872E-05
579.8055,-3.41206E-05
579.9055,-3.41093E-05
580.0054,-3.412719E-05
580.1054,-3.411683E-05
580.2054,-3.40914E-05
580.3054,-3.409329E-05
580.4053,-3.411024E-05
580.5053,-3.410553E-05
580.6053,-3.408105E-05
580.7053,-3.40914E-05
580.8052,-3.409235E-05
580.9052,-3.406881E-05
581.0052,-3.408858E-05
581.1052,-3.409612E-05
581.2051,-3.407634E-05
581.3051,-3.406974E-05
581.4051,-3.405468E-05
581.5051,-3.405186E-05
581.605,-3.405562E-05
581.705,-3.406692E-05
581.805,-3.405186E-05
581.905,-3.404432E-05
582.0049,-3.403302E-05
582.1049,-3.404338E-05
582.2049,-3.406598E-05
582.3049,-3.402643E-05
582.4048,-3.401419E-05
582.5048,-3.405279E-05
582.6048,-3.407163E-05
582.7048,-3.403961E-05
582.8047,-3.402643E-05
582.9047,-3.403491E-05
583.0047,-3.403679E-05
583.1047,-3.403019E-05
583.2047,-3.402172E-05
583.3046,-3.398782E-05
583.4046,-3.401136E-05
583.5046,-3.399723E-05
583.6046,-3.400194E-05
583.7045,-3.400288E-05
583.8045,-3.398122E-05
583.9045,-3.395015E-05
584.0045,-3.400948E-05
584.1044,-3.398405E-05
584.2044,-3.396522E-05
584.3044,-3.39671E-05
584.4044,-3.39558E-05
584.5043,-3.395297E-05
584.6043,-3.396616E-05
584.7043,-3.394921E-05
584.8043,-3.393508E-05
584.9042,-3.395862E-05
585.0042,-3.395203E-05
585.1042,-3.392472E-05
585.2042,-3.395862E-05
585.3041,-3.394073E-05
585.4041,-3.390966E-05
585.5041,-3.393508E-05
585.6041,-3.39379E-05
585.704,-3.393037E-05
585.804,-3.391719E-05
585.904,-3.388988E-05
586.004,-3.391154E-05
586.1039,-3.393697E-05
586.2039,-3.390777E-05
586.3039,-3.388517E-05
586.4039,-3.389459E-05
586.5038,-3.390118E-05
586.6038,-3.387198E-05
586.7038,-3.390212E-05
586.8038,-3.388517E-05
586.9037,-3.386539E-05
587.0037,-3.387763E-05
587.1037,-3.386916E-05
587.2037,-3.385692E-05
587.3036,-3.387386E-05
587.4036,-3.387858E-05
587.5036,-3.385503E-05
587.6036,-3.387104E-05
587.7036,-3.385409E-05
587.8035,-3.383243E-05
587.9035,-3.385127E-05
588.0035,-3.387952E-05
588.1035,-3.382302E-05
588.2034,-3.383808E-05
588.3034,-3.383243E-05
588.4034,-3.381924E-05
588.5034,-3.384279E-05
588.6033,-3.384279E-05
588.7033,-3.381077E-05
588.8033,-3.38136E-05
588.9033,-3.379382E-05
589.0032,-3.379853E-05
589.1032,-3.381642E-05
589.2032,-3.381077E-05
589.3032,-3.377875E-05
589.4031,-3.378346E-05
589.5031,-3.37844E-05
589.6031,-3.379099E-05
589.7031,-3.379759E-05
589.803,-3.377498E-05
589.903,-3.376463E-05
590.003,-3.37731E-05
590.103,-3.37618E-05
590.2029,-3.376745E-05
590.3029,-3.374767E-05
590.4029,-3.374861E-05
590.5029,-3.372978E-05
590.6028,-3.374203E-05
590.7028,-3.374579E-05
590.8028,-3.371942E-05
590.9028,-3.373072E-05
591.0027,-3.372696E-05
591.1027,-3.370906E-05
591.2027,-3.372036E-05
591.3027,-3.369776E-05
591.4026,-3.373261E-05
591.5026,-3.370341E-05
591.6026,-3.370247E-05
591.7026,-3.367704E-05
591.8026,-3.369588E-05
591.9025,-3.370341E-05
592.0025,-3.368175E-05
592.1025,-3.367328E-05
592.2025,-3.36714E-05
592.3024,-3.366386E-05
592.4024,-3.368647E-05
592.5024,-3.367704E-05
592.6024,-3.365727E-05
592.7023,-3.366009E-05
592.8023,-3.366104E-05
592.9023,-3.366197E-05
593.0023,-3.367045E-05
593.1022,-3.364126E-05
593.2022,-3.364597E-05
593.3022,-3.363938E-05
593.4022,-3.36083E-05
593.5021,-3.362148E-05
593.6021,-3.362243E-05
593.7021,-3.362431E-05
593.8021,-3.360736E-05
593.902,-3.360171E-05
594.002,-3.359323E-05
594.102,-3.35857E-05
594.202,-3.362336E-05
594.3019,-3.360265E-05
594.4019,-3.358664E-05
594.5019,-3.35904E-05
594.6019,-3.35744E-05
594.7018,-3.358381E-05
594.8018,-3.358005E-05
594.9018,-3.356309E-05
595.0018,-3.356309E-05
595.1017,-3.358005E-05
595.2017,-3.356592E-05
595.3017,-3.356121E-05
595.4017,-3.355651E-05
595.5016,-3.356874E-05
595.6016,-3.35339E-05
595.7016,-3.357816E-05
595.8016,-3.355651E-05
595.9016,-3.352542E-05
596.0015,-3.354803E-05
596.1015,-3.353108E-05
596.2015,-3.354238E-05
596.3015,-3.355462E-05
596.4014,-3.351318E-05
596.5014,-3.350188E-05
596.6014,-3.352354E-05
596.7014,-3.351789E-05
596.8013,-3.351507E-05
596.9013,-3.350471E-05
597.0013,-3.348776E-05
597.1013,-3.348588E-05
597.2012,-3.351413E-05
597.3012,-3.349906E-05
597.4012,-3.346986E-05
597.5012,-3.347363E-05
597.6011,-3.346798E-05
597.7011,-3.345103E-05
597.8011,-3.348964E-05
597.9011,-3.345856E-05
598.001,-3.34143E-05
598.101,-3.347551E-05
598.201,-3.347457E-05
598.301,-3.34435E-05
598.4009,-3.345291E-05
598.5009,-3.345951E-05
598.6009,-3.343031E-05
598.7009,-3.346986E-05
598.8008,-3.345291E-05
598.9008,-3.343878E-05
599.0008,-3.344632E-05
599.1008,-3.342278E-05
599.2007,-3.341619E-05
599.3007,-3.34482E-05
599.4007,-3.343785E-05
599.5007,-3.338511E-05
599.6006,-3.342184E-05
599.7006,-3.341807E-05
599.8006,-3.339829E-05
599.9006,-3.340959E-05
600.0005,-3.342184E-05
