EXPID. 0977
[电化学]: i-t : @ 0(V) X 600(sec)
起始电位 (V),0
静置时间 (秒),0
运行时间 (秒),600
记录间隔,0.1
电解液 信息:
HNO3,0.4
0.1,-0.01005814
0.2,-0.01005814
0.3,-0.01005814
0.4,-0.01005814
0.5,-0.01005814
0.6,-0.01005814
0.7,-0.01005814
0.8000001,-0.01005814
0.9000001,-0.01005814
1,-0.01005814
1.1,-0.01005814
1.2,-0.01005814
1.3,-0.01005814
1.4,-0.01005814
1.5,-0.01005814
1.6,-0.01005814
1.7,-0.01005814
1.8,-0.01005814
1.9,-0.01005814
2,-0.01005814
2.1,-0.01005814
2.2,-0.01005814
2.3,-0.01005814
2.4,-0.01005814
2.5,-0.01005814
2.6,-0.01005814
2.7,-0.01005814
2.799999,-0.01005814
2.899999,-0.01005814
2.999999,-0.01005814
3.099999,-0.01005814
3.199999,-0.01005814
3.299999,-0.01005814
3.399999,-0.01005814
3.499999,-0.01005814
3.599999,-0.01005814
3.699999,-0.01005814
3.799999,-0.01005814
3.899998,-0.01005814
3.999998,-0.01005814
4.099998,-0.01005814
4.199998,-0.01005814
4.299998,-0.01005814
4.399998,-0.01005814
4.499998,-0.01005814
4.599998,-0.01005814
4.699998,-0.01005814
4.799998,-0.01005814
4.899998,-0.01005814
4.999998,-0.01005814
5.099998,-0.01005814
5.199997,-0.01005814
5.299997,-0.01005814
5.399997,-0.01005814
5.499997,-0.01005814
5.599997,-0.01005814
5.699997,-0.01005814
5.799997,-0.01005814
5.899997,-0.01005814
5.999997,-0.01005814
6.099997,-0.01005814
6.199996,-0.01005814
6.299996,-0.01005814
6.399996,-0.01005814
6.499996,-0.01005814
6.599996,-0.01005814
6.699996,-0.01005814
6.799996,-0.01005814
6.899996,-0.01005814
6.999996,-0.01005814
7.099996,-0.01005814
7.199996,-0.01005814
7.299995,-0.01005814
7.399995,-0.01005814
7.499995,-0.01005814
7.599995,-0.01005814
7.699995,-0.01005814
7.799995,-0.01005814
7.899995,-0.01005814
7.999995,-0.01005814
8.099995,-0.01005814
8.199995,-0.01005814
8.299995,-0.01005814
8.399996,-0.01005814
8.499996,-0.01005814
8.599997,-0.01005814
8.699997,-0.01005814
8.799997,-0.01005814
8.899998,-0.01005814
8.999998,-0.01005814
9.099998,-0.01005814
9.199999,-0.01005814
9.299999,-0.01005814
9.4,-0.01005814
9.5,-0.01005814
9.6,-0.01005814
9.700001,-0.01005814
9.800001,-0.01005814
9.900002,-0.01005814
10,-0.01005814
10.1,-0.01005814
10.2,-0.01005814
10.3,-0.01005814
10.4,-0.01005814
10.5,-0.01005814
10.6,-0.01005814
10.7,-0.01005814
10.8,-0.01005814
10.90001,-0.01005814
11.00001,-0.01005814
11.10001,-0.01005814
11.20001,-0.01005814
11.30001,-0.01005814
11.40001,-0.01005814
11.50001,-0.01005814
11.60001,-0.01005814
11.70001,-0.01005814
11.80001,-0.01005814
11.90001,-0.01005814
12.00001,-0.01005814
12.10001,-0.01005814
12.20001,-0.01005814
12.30001,-0.01005814
12.40001,-0.01005814
12.50001,-0.01005814
12.60001,-0.01005814
12.70001,-0.01005814
12.80001,-0.01005814
12.90001,-0.01005814
13.00001,-0.01005814
13.10001,-0.01005814
13.20001,-0.01005814
13.30001,-0.01005814
13.40001,-0.01005814
13.50002,-0.01005814
13.60002,-0.01005814
13.70002,-0.01005814
13.80002,-0.01005814
13.90002,-0.01005814
14.00002,-0.01005814
14.10002,-0.01005814
14.20002,-0.01005814
14.30002,-0.01005814
14.40002,-0.01005814
14.50002,-0.01005814
14.60002,-0.01005814
14.70002,-0.01005814
14.80002,-0.01005814
14.90002,-0.01005814
15.00002,-0.01005814
15.10002,-0.01005814
15.20002,-0.01005814
15.30002,-0.01005814
15.40002,-0.01005814
15.50002,-0.01005814
15.60002,-0.01005814
15.70002,-0.01005814
15.80002,-0.01005814
15.90002,-0.01005814
16.00002,-0.01005814
16.10003,-0.01005814
16.20003,-0.01005814
16.30003,-0.01005814
16.40003,-0.01005814
16.50003,-0.01005814
16.60003,-0.01005814
16.70003,-0.01005814
16.80003,-0.01005814
16.90003,-0.01005814
17.00003,-0.01005814
17.10003,-0.01005814
17.20003,-0.01005814
17.30003,-0.01005814
17.40003,-0.01005814
17.50003,-0.01005814
17.60003,-0.01005814
17.70003,-0.01005814
17.80003,-0.01005814
17.90003,-0.01005814
18.00003,-0.01005814
18.10003,-0.01005814
18.20003,-0.01005814
18.30003,-0.01005814
18.40003,-0.01005814
18.50003,-0.01005814
18.60003,-0.01005814
18.70004,-0.01005814
18.80004,-0.01005814
18.90004,-0.01005814
19.00004,-0.01005814
19.10004,-0.01002672
19.20004,-0.00995571
19.30004,-0.009888982
19.40004,-0.009823611
19.50004,-0.009757699
19.60004,-0.009694357
19.70004,-0.00963198
19.80004,-0.009573431
19.90004,-0.009506238
20.00004,-0.009453013
20.10004,-0.009393213
20.20004,-0.00933403
20.30004,-0.009276513
20.40004,-0.009221048
20.50004,-0.009165955
20.60004,-0.00911337
20.70004,-0.009058983
20.80004,-0.009006476
20.90004,-0.008955058
21.00004,-0.008899204
21.10004,-0.008851483
21.20004,-0.008800455
21.30005,-0.008749555
21.40005,-0.008703866
21.50005,-0.008664052
21.60005,-0.00861099
21.70005,-0.008556296
21.80005,-0.0085117
21.90005,-0.008466169
22.00005,-0.008419489
22.10005,-0.008375115
22.20005,-0.008328975
22.30005,-0.008282812
22.40005,-0.008239887
22.50005,-0.008194841
22.60005,-0.008150967
22.70005,-0.008107265
22.80005,-0.008067634
22.90005,-0.008024846
23.00005,-0.00798085
23.10005,-0.00794346
23.20005,-0.007900598
23.30005,-0.007857975
23.40005,-0.007817827
23.50005,-0.007778164
23.60005,-0.007736215
23.70005,-0.007697023
23.80005,-0.007663318
23.90005,-0.007618771
24.00006,-0.007583996
24.10006,-0.007547454
24.20006,-0.007504778
24.30006,-0.007473083
24.40006,-0.007437077
24.50006,-0.00739321
24.60006,-0.007360975
24.70006,-0.007328341
24.80006,-0.007285088
24.90006,-0.007248931
25.00006,-0.007218096
25.10006,-0.007177378
25.20006,-0.007142729
25.30006,-0.007111062
25.40006,-0.007072723
25.50006,-0.007038734
25.60006,-0.007006634
25.70006,-0.006972465
25.80006,-0.006936648
25.90006,-0.006904889
26.00006,-0.006870899
26.10006,-0.006835528
26.20006,-0.006806791
26.30006,-0.006770323
26.40006,-0.00673676
26.50006,-0.006708403
26.60007,-0.006672398
26.70007,-0.006640591
26.80007,-0.006609569
26.90007,-0.006575885
27.00007,-0.006543678
27.10007,-0.006514845
27.20007,-0.006480571
27.30007,-0.006450811
27.40007,-0.006420099
27.50007,-0.006387373
27.60007,-0.006357037
27.70007,-0.006327373
27.80007,-0.006294266
27.90007,-0.006265051
28.00007,-0.006235356
28.10007,-0.006203081
28.20007,-0.006172803
28.30007,-0.00614694
28.40007,-0.006112397
28.50007,-0.006082723
28.60007,-0.006058323
28.70007,-0.006023434
28.80007,-0.00599561
28.90007,-0.005965973
29.00007,-0.005936619
29.10007,-0.005906248
29.20008,-0.005877355
29.30008,-0.005849046
29.40008,-0.005819903
29.50008,-0.005789673
29.60008,-0.005763371
29.70008,-0.005730644
29.80008,-0.005700933
29.90008,-0.005673261
30.00008,-0.005645246
30.10008,-0.005613279
30.20008,-0.005586091
30.30008,-0.005558197
30.40008,-0.00552623
30.50008,-0.005498936
30.60008,-0.005471548
30.70008,-0.005440583
30.80008,-0.005412948
30.90008,-0.005386045
31.00008,-0.005355187
31.10008,-0.005327264
31.20008,-0.005299491
31.30008,-0.005270035
31.40008,-0.00524132
31.50008,-0.005216595
31.60008,-0.005183523
31.70008,-0.005156734
31.80009,-0.005130454
31.90009,-0.005099432
32.00008,-0.005070521
32.10008,-0.005042349
32.20008,-0.005012339
32.30008,-0.004983469
32.40008,-0.004957499
32.50008,-0.004926873
32.60007,-0.004897457
32.70007,-0.004867835
32.80007,-0.004840863
32.90007,-0.004811914
33.00007,-0.004781749
33.10007,-0.004755311
33.20007,-0.004727166
33.30006,-0.004697816
33.40006,-0.004670275
33.50006,-0.004643704
33.60006,-0.004614888
33.70006,-0.004587092
33.80006,-0.004561375
33.90005,-0.004534356
34.00005,-0.004508
34.10005,-0.004482539
34.20005,-0.004456112
34.30005,-0.00443045
34.40005,-0.004406248
34.50005,-0.004380199
34.60004,-0.004356142
34.70004,-0.004331233
34.80004,-0.004307854
34.90004,-0.004281971
35.00004,-0.004259582
35.10004,-0.004234759
35.20004,-0.004211314
35.30003,-0.004188268
35.40003,-0.004163726
35.50003,-0.004139727
35.60003,-0.004116732
35.70003,-0.004092649
35.80003,-0.004069117
35.90002,-0.004045758
36.00002,-0.004022341
36.10002,-0.003999607
36.20002,-0.003976343
36.30002,-0.003951538
36.40002,-0.00392893
36.50002,-0.003906366
36.60001,-0.003883462
36.70001,-0.00386196
36.80001,-0.003839607
36.90001,-0.003818269
37.00001,-0.003797627
37.10001,-0.003776935
37.2,-0.003754772
37.3,-0.00373427
37.4,-0.00371419
37.5,-0.003693748
37.6,-0.003673794
37.7,-0.003654194
37.8,-0.003633991
37.89999,-0.003615122
37.99999,-0.003596298
38.09999,-0.003576762
38.19999,-0.003559013
38.29999,-0.003540042
38.39999,-0.003521894
38.49998,-0.00350385
38.59998,-0.003485692
38.69998,-0.003467849
38.79998,-0.00345102
38.89998,-0.003433215
38.99998,-0.003416308
39.09998,-0.003399838
39.19997,-0.003382309
39.29997,-0.003365336
39.39997,-0.00334924
39.49997,-0.003332546
39.59997,-0.003316011
39.69997,-0.003300223
39.79996,-0.003284035
39.89996,-0.003268416
39.99996,-0.00325343
40.09996,-0.003237227
40.19996,-0.003221637
40.29996,-0.003206454
40.39996,-0.003191097
40.49995,-0.003176135
40.59995,-0.003161038
40.69995,-0.003145629
40.79995,-0.003131279
40.89995,-0.003116512
40.99995,-0.003102122
41.09995,-0.003087682
41.19994,-0.003073233
41.29994,-0.003058783
41.39994,-0.003045222
41.49994,-0.003031223
41.59994,-0.003017055
41.69994,-0.00300369
41.79993,-0.002990362
41.89993,-0.002976233
41.99993,-0.002962705
42.09993,-0.002949681
42.19993,-0.002936387
42.29993,-0.002922879
42.39993,-0.002910025
42.49992,-0.002896818
42.59992,-0.002883736
42.69992,-0.002871216
42.79992,-0.002858058
42.89992,-0.002845739
42.99992,-0.002832762
43.09991,-0.002820637
43.19991,-0.002808435
43.29991,-0.002795732
43.39991,-0.002783933
43.49991,-0.002771439
43.59991,-0.002759097
43.69991,-0.002747209
43.7999,-0.002735541
43.8999,-0.002723302
43.9999,-0.002711318
44.0999,-0.002700109
44.1999,-0.002688067
44.2999,-0.002676419
44.39989,-0.002665321
44.49989,-0.002653393
44.59989,-0.002642258
44.69989,-0.002631098
44.79989,-0.002619952
44.89989,-0.002608676
44.99989,-0.002597806
45.09988,-0.002586616
45.19988,-0.002575492
45.29988,-0.002564853
45.39988,-0.002553766
45.49988,-0.002543143
45.59988,-0.002532663
45.69987,-0.00252177
45.79987,-0.002511286
45.89987,-0.002501121
45.99987,-0.002490382
46.09987,-0.002480194
46.19987,-0.002470175
46.29987,-0.002459856
46.39986,-0.002449609
46.49986,-0.002439719
46.59986,-0.002429409
46.69986,-0.002419487
46.79986,-0.002409964
46.89986,-0.002399853
46.99986,-0.002389965
47.09985,-0.00238058
47.19985,-0.002370809
47.29985,-0.002361103
47.39985,-0.002351791
47.49985,-0.002342075
47.59985,-0.002332704
47.69984,-0.002323588
47.79984,-0.002314205
47.89984,-0.002304946
47.99984,-0.002295834
48.09984,-0.002286433
48.19984,-0.002277434
48.29984,-0.00226867
48.39983,-0.002259354
48.49983,-0.002250554
48.59983,-0.002241626
48.69983,-0.002232654
48.79983,-0.002224079
48.89983,-0.002215364
48.99982,-0.002206277
49.09982,-0.002197719
49.19982,-0.002189306
49.29982,-0.002180559
49.39982,-0.002172172
49.49982,-0.002163877
49.59982,-0.002155194
49.69981,-0.002147018
49.79981,-0.002138711
49.89981,-0.002130206
49.99981,-0.002122095
50.09981,-0.002113916
50.19981,-0.002105654
50.2998,-0.002097794
50.3998,-0.002089805
50.4998,-0.002081552
50.5998,-0.002073785
50.6998,-0.00206584
50.7998,-0.002057834
50.8998,-0.002050144
50.99979,-0.002042305
51.09979,-0.00203435
51.19979,-0.002026941
51.29979,-0.002019283
51.39979,-0.002011473
51.49979,-0.002004085
51.59978,-0.001996713
51.69978,-0.001988974
51.79978,-0.001981565
51.89978,-0.00197435
51.99978,-0.001966657
52.09978,-0.001959499
52.19978,-0.001952269
52.29977,-0.001944896
52.39977,-0.001937649
52.49977,-0.001930541
52.59977,-0.001923627
52.69977,-0.001916603
52.79977,-0.001909392
52.89977,-0.001902564
52.99976,-0.001895447
53.09976,-0.001888319
53.19976,-0.001881361
53.29976,-0.001874555
53.39976,-0.001867619
53.49976,-0.001860791
53.59975,-0.001854043
53.69975,-0.001847518
53.79975,-0.001840502
53.89975,-0.00183424
53.99975,-0.001827414
54.09975,-0.001820678
54.19975,-0.001814245
54.29974,-0.001807312
54.39974,-0.001800969
54.49974,-0.001794768
54.59974,-0.001788156
54.69974,-0.001781853
54.79974,-0.001775428
54.89973,-0.001768839
54.99973,-0.001762573
55.09973,-0.001756398
55.19973,-0.001750031
55.29973,-0.001743819
55.39973,-0.001738046
55.49973,-0.001731517
55.59972,-0.001725353
55.69972,-0.001719261
55.79972,-0.001713173
55.89972,-0.001707301
55.99972,-0.001701177
56.09972,-0.001695553
56.19971,-0.001689508
56.29971,-0.001683509
56.39971,-0.001677608
56.49971,-0.001671749
56.59971,-0.00166578
56.69971,-0.001659961
56.79971,-0.001654198
56.8997,-0.001648246
56.9997,-0.001642601
57.0997,-0.00163704
57.1997,-0.001631256
57.2997,-0.001625638
57.3997,-0.001620125
57.49969,-0.001614354
57.59969,-0.001609026
57.69969,-0.001603508
57.79969,-0.001597897
57.89969,-0.001592586
57.99969,-0.00158707
58.09969,-0.001581773
58.19968,-0.001576377
58.29968,-0.001570914
58.39968,-0.001565398
58.49968,-0.001560525
58.59968,-0.001555063
58.69968,-0.00154986
58.79967,-0.001544687
58.89967,-0.00153931
58.99967,-0.001534143
59.09967,-0.001529278
59.19967,-0.001523859
59.29967,-0.00151876
59.39967,-0.001513704
59.49966,-0.001508505
59.59966,-0.001503306
59.69966,-0.001498603
59.79966,-0.001493349
59.89966,-0.001488359
59.99966,-0.001483625
60.09966,-0.00147858
60.19965,-0.001473819
60.29965,-0.001468888
60.39965,-0.001463953
60.49965,-0.001459118
60.59965,-0.0014544
60.69965,-0.001449547
60.79964,-0.001444701
60.89964,-0.001440137
60.99964,-0.001435233
61.09964,-0.001430562
61.19964,-0.001426003
61.29964,-0.00142118
61.39964,-0.00141672
61.49963,-0.001412065
61.59963,-0.001407557
61.69963,-0.001403067
61.79963,-0.001398322
61.89963,-0.00139382
61.99963,-0.001389411
62.09962,-0.001384926
62.19962,-0.001380421
62.29962,-0.001376173
62.39962,-0.001371607
62.49962,-0.001367392
62.59962,-0.001363208
62.69962,-0.001358689
62.79961,-0.001354411
62.89961,-0.001350224
62.99961,-0.001345667
63.09961,-0.001341465
63.19961,-0.00133723
63.29961,-0.001332872
63.3996,-0.001328573
63.4996,-0.001324499
63.5996,-0.001320279
63.6996,-0.001315999
63.7996,-0.001312086
63.8996,-0.001307892
63.9996,-0.001303712
64.09959,-0.001299796
64.19959,-0.001295716
64.29959,-0.00129147
64.39959,-0.001287644
64.49959,-0.001283686
64.59959,-0.00127956
64.69958,-0.001275737
64.79958,-0.00127177
64.89958,-0.001267636
64.99958,-0.001263845
65.09958,-0.001259883
65.19958,-0.001256038
65.29958,-0.001252281
65.39957,-0.001248379
65.49957,-0.001244544
65.59957,-0.001240845
65.69957,-0.001237049
65.79957,-0.001233123
65.89957,-0.001229489
65.99957,-0.001225753
66.09956,-0.001222078
66.19956,-0.001218429
66.29956,-0.001214707
66.39956,-0.001210922
66.49956,-0.0012074
66.59956,-0.001203761
66.69955,-0.001200038
66.79955,-0.001196457
66.89955,-0.001192958
66.99955,-0.001189204
67.09955,-0.001185915
67.19955,-0.001182246
67.29955,-0.001178885
67.39954,-0.001175334
67.49954,-0.001171955
67.59954,-0.001168616
67.69954,-0.001165025
67.79954,-0.001161607
67.89954,-0.001158126
67.99953,-0.001154812
68.09953,-0.001151251
68.19953,-0.001147746
68.29953,-0.001144522
68.39953,-0.001140876
68.49953,-0.001137586
68.59953,-0.001134354
68.69952,-0.001130885
68.79952,-0.001127532
68.89952,-0.001124535
68.99952,-0.001120993
69.09952,-0.001117688
69.19952,-0.001114552
69.29951,-0.001111207
69.39951,-0.001107851
69.49951,-0.001104841
69.59951,-0.001101392
69.69951,-0.001098285
69.79951,-0.001095236
69.89951,-0.001092037
69.9995,-0.001088844
70.0995,-0.00108584
70.1995,-0.001082674
70.2995,-0.001079524
70.3995,-0.001076532
70.4995,-0.001073419
70.59949,-0.001070417
70.69949,-0.001067509
70.79949,-0.001064385
70.89949,-0.001061392
70.99949,-0.001058401
71.09949,-0.001055344
71.19949,-0.001052403
71.29948,-0.001049517
71.39948,-0.001046526
71.49948,-0.001043523
71.59948,-0.001040787
71.69948,-0.001037757
71.79948,-0.001034933
71.89948,-0.001032069
71.99947,-0.001029069
72.09947,-0.001026174
72.19947,-0.001023341
72.29947,-0.001020498
72.39947,-0.001017763
72.49947,-0.001014904
72.59946,-0.001012014
72.69946,-0.00100923
72.79946,-0.001006513
72.89946,-0.001003591
72.99946,-0.00100089
73.09946,-0.0009981813
73.19946,-0.0009953439
73.29945,-0.0009927419
73.39945,-0.0009899959
73.49945,-0.000987198
73.59945,-0.0009845498
73.69945,-0.000981912
73.79945,-0.0009791357
73.89944,-0.000976642
73.99944,-0.0009738923
74.09944,-0.0009712836
74.19944,-0.0009686506
74.29944,-0.0009660777
74.39944,-0.0009634088
74.49944,-0.0009609151
74.59943,-0.000958301
74.69943,-0.0009556547
74.79943,-0.0009532315
74.89943,-0.0009507012
74.99943,-0.0009479447
75.09943,-0.0009455122
75.19942,-0.0009430241
75.29942,-0.0009403921
75.39942,-0.0009379699
75.49942,-0.000935608
75.59942,-0.000932959
75.69942,-0.0009305735
75.79942,-0.0009282079
75.89941,-0.0009256728
75.99941,-0.0009232488
76.09941,-0.0009208812
76.19941,-0.0009183904
76.29941,-0.0009160407
76.39941,-0.00091366
76.4994,-0.0009112784
76.5994,-0.0009089363
76.6994,-0.0009066206
76.7994,-0.0009041881
76.8994,-0.0009018611
76.9994,-0.0008995566
77.0994,-0.0008971242
77.19939,-0.0008949018
77.29939,-0.0008926349
77.39939,-0.0008903023
77.49939,-0.0008880271
77.59939,-0.0008858309
77.69939,-0.000883437
77.79939,-0.0008811826
77.89938,-0.0008790307
77.99938,-0.0008766114
78.09938,-0.0008745669
78.19938,-0.0008722427
78.29938,-0.0008699637
78.39938,-0.0008678325
78.49937,-0.0008655582
78.59937,-0.0008632708
78.69937,-0.0008612131
78.79937,-0.000859098
78.89937,-0.0008568049
78.99937,-0.0008546964
79.09937,-0.0008526839
79.19936,-0.0008504924
79.29936,-0.0008485167
79.39936,-0.0008462989
79.49936,-0.0008441565
79.59936,-0.0008420734
79.69936,-0.0008399431
79.79935,-0.0008377819
79.89935,-0.0008358165
79.99935,-0.0008336938
80.09935,-0.000831542
80.19935,-0.0008295776
80.29935,-0.0008275397
80.39935,-0.0008252738
80.49934,-0.0008235118
80.59934,-0.0008215747
80.69934,-0.0008195735
80.79934,-0.0008174377
80.89934,-0.0008155081
80.99934,-0.0008135041
81.09933,-0.0008115114
81.19933,-0.0008096025
81.29933,-0.0008075533
81.39933,-0.0008055389
81.49933,-0.0008036696
81.59933,-0.0008016712
81.69933,-0.0007997821
81.79932,-0.0007977329
81.89932,-0.0007958447
81.99932,-0.0007938633
82.09932,-0.0007919488
82.19932,-0.0007900879
82.29932,-0.0007881282
82.39931,-0.0007863257
82.49931,-0.0007843651
82.59931,-0.0007824759
82.69931,-0.0007806405
82.79931,-0.0007787843
82.89931,-0.000776849
82.99931,-0.0007750052
83.0993,-0.0007732601
83.1993,-0.0007714369
83.2993,-0.0007694894
83.3993,-0.0007677915
83.4993,-0.0007659372
83.5993,-0.0007640679
83.6993,-0.0007623935
83.79929,-0.0007605957
83.89929,-0.0007586991
83.99929,-0.0007570125
84.09929,-0.0007553069
84.19929,-0.000753594
84.29929,-0.000751833
84.39928,-0.0007500916
84.49928,-0.0007483061
84.59928,-0.0007466656
84.69928,-0.0007448763
84.79928,-0.00074312
84.89928,-0.0007414899
84.99928,-0.0007398061
85.09927,-0.0007379603
85.19927,-0.00073638
85.29927,-0.0007346699
85.39927,-0.0007329851
85.49927,-0.0007313474
85.59927,-0.0007296137
85.69926,-0.0007279374
85.79926,-0.0007263308
85.89926,-0.0007247111
85.99926,-0.0007230093
86.09926,-0.0007214197
86.19926,-0.0007197679
86.29926,-0.0007180399
86.39925,-0.0007164822
86.49925,-0.0007148379
86.59925,-0.0007131306
86.69925,-0.0007116935
86.79925,-0.000710004
86.89925,-0.0007084013
86.99924,-0.0007068982
87.09924,-0.0007052784
87.19924,-0.0007037152
87.29924,-0.0007021764
87.39924,-0.0007004992
87.49924,-0.000698999
87.59924,-0.0006974875
87.69923,-0.0006959044
87.79923,-0.0006944259
87.89923,-0.0006929106
87.99923,-0.0006912645
88.09923,-0.0006898294
88.19923,-0.0006884638
88.29922,-0.0006867046
88.39922,-0.0006853872
88.49922,-0.0006839228
88.59922,-0.0006823115
88.69922,-0.0006809121
88.79922,-0.0006794835
88.89922,-0.0006779277
88.99921,-0.0006764595
89.09921,-0.0006750347
89.19921,-0.0006734818
89.29921,-0.0006720579
89.39921,-0.0006704956
89.49921,-0.0006690961
89.59921,-0.0006676393
89.6992,-0.0006662173
89.7992,-0.0006647406
89.8992,-0.0006634363
89.9992,-0.0006619042
90.0992,-0.0006604671
90.1992,-0.0006591185
90.29919,-0.0006576842
90.39919,-0.0006562896
90.49919,-0.0006548374
90.59919,-0.0006534643
90.69919,-0.000652048
90.79919,-0.0006507343
90.89919,-0.0006492464
90.99918,-0.000647863
91.09918,-0.0006466801
91.19918,-0.0006452223
91.29918,-0.0006438144
91.39918,-0.0006424197
91.49918,-0.000641107
91.59917,-0.0006397754
91.69917,-0.0006384466
91.79917,-0.0006369879
91.89917,-0.0006357062
91.99917,-0.0006343331
92.09917,-0.0006330505
92.19917,-0.000631651
92.29916,-0.0006303901
92.39916,-0.0006290726
92.49916,-0.0006276835
92.59916,-0.0006264536
92.69916,-0.0006251183
92.79916,-0.0006238507
92.89915,-0.0006225624
92.99915,-0.0006213127
93.09915,-0.0006200715
93.19915,-0.0006187145
93.29915,-0.0006176522
93.39915,-0.0006163743
93.49915,-0.0006150473
93.59914,-0.0006138665
93.69914,-0.0006126479
93.79914,-0.000611173
93.89914,-0.0006100232
93.99914,-0.0006088517
94.09914,-0.0006074815
94.19913,-0.0006062356
94.29913,-0.0006050885
94.39913,-0.0006038587
94.49913,-0.0006027436
94.59913,-0.0006016729
94.69913,-0.0006002028
94.79913,-0.0005989758
94.89912,-0.0005979163
94.99912,-0.0005966421
95.09912,-0.0005954584
95.19912,-0.0005943246
95.29912,-0.0005930099
95.39912,-0.0005918375
95.49911,-0.0005907319
95.59911,-0.0005895171
95.69911,-0.0005883144
95.79911,-0.0005871778
95.89911,-0.0005859705
95.99911,-0.0005848178
96.09911,-0.0005837329
96.1991,-0.0005824965
96.2991,-0.0005813729
96.3991,-0.0005802212
96.4991,-0.0005790911
96.5991,-0.0005779573
96.6991,-0.000576912
96.7991,-0.000575732
96.89909,-0.0005745671
96.99909,-0.0005735038
97.09909,-0.0005723238
97.19909,-0.0005712559
97.29909,-0.0005701569
97.39909,-0.0005690391
97.49908,-0.0005679118
97.59908,-0.0005667639
97.69908,-0.000565825
97.79908,-0.0005647786
97.89908,-0.0005636806
97.99908,-0.0005624574
98.09908,-0.0005615476
98.19907,-0.0005603394
98.29907,-0.0005591547
98.39907,-0.0005581838
98.49907,-0.0005571045
98.59907,-0.0005560093
98.69907,-0.000554995
98.79906,-0.0005539685
98.89906,-0.0005527989
98.99906,-0.000551811
99.09906,-0.0005507912
99.19906,-0.0005496714
99.29906,-0.0005486817
99.39906,-0.0005477088
99.49905,-0.0005465995
99.59905,-0.0005456126
99.69905,-0.0005446558
99.79905,-0.0005435436
99.89905,-0.0005425755
99.99905,-0.0005416168
100.099,-0.0005404764
100.199,-0.0005395459
100.299,-0.0005386494
100.399,-0.0005375391
100.499,-0.0005366548
100.599,-0.0005357705
100.699,-0.0005345566
100.799,-0.0005336205
100.899,-0.0005326929
100.999,-0.0005316203
101.099,-0.0005307087
101.199,-0.0005297444
101.299,-0.0005286539
101.399,-0.0005277743
101.499,-0.0005268815
101.599,-0.0005258381
101.699,-0.0005249048
101.799,-0.0005239386
101.899,-0.0005229338
101.999,-0.0005220419
102.099,-0.0005211106
102.199,-0.0005201114
102.299,-0.0005191527
102.399,-0.0005182571
102.499,-0.0005172844
102.599,-0.0005163897
102.699,-0.0005154932
102.799,-0.0005145402
102.899,-0.0005137058
102.999,-0.0005127292
103.099,-0.0005117253
103.199,-0.0005108881
103.299,-0.0005099576
103.399,-0.0005090658
103.499,-0.0005081693
103.599,-0.0005072832
103.699,-0.0005063405
103.799,-0.0005054751
103.899,-0.000504635
103.999,-0.000503632
104.099,-0.0005027761
104.199,-0.0005018974
104.299,-0.0005010188
104.399,-0.0005002767
104.499,-0.0004993331
104.599,-0.0004984431
104.699,-0.000497557
104.799,-0.0004967395
104.899,-0.0004958336
104.999,-0.0004950058
105.099,-0.0004941159
105.199,-0.0004932024
105.299,-0.0004924754
105.399,-0.0004915412
105.499,-0.0004907445
105.599,-0.0004899289
105.699,-0.0004889759
105.799,-0.0004882046
105.899,-0.0004873646
105.999,-0.000486486
106.099,-0.0004857185
106.199,-0.0004848361
106.299,-0.0004840638
106.3989,-0.0004832314
106.4989,-0.0004823678
106.5989,-0.0004815523
106.6989,-0.0004807358
106.7989,-0.0004797978
106.8989,-0.0004789672
106.9989,-0.0004782703
107.0989,-0.0004773785
107.1989,-0.0004765601
107.2989,-0.0004758755
107.3989,-0.0004749799
107.4989,-0.0004741286
107.5989,-0.0004734223
107.6989,-0.0004725879
107.7989,-0.0004717554
107.8989,-0.000471034
107.9989,-0.0004702091
108.0989,-0.0004693436
108.1989,-0.0004686524
108.2989,-0.0004678416
108.3989,-0.0004670006
108.4989,-0.0004662821
108.5989,-0.0004655061
108.6989,-0.0004646661
108.7989,-0.0004639862
108.8989,-0.0004631734
108.9989,-0.0004624031
109.0989,-0.0004616356
109.1989,-0.0004609114
109.2989,-0.0004601269
109.3989,-0.0004594225
109.4989,-0.000458639
109.5989,-0.0004578696
109.6989,-0.000457168
109.7989,-0.0004563826
109.8989,-0.0004556452
109.9989,-0.0004549088
110.0989,-0.0004541865
110.1989,-0.0004533964
110.2989,-0.0004526967
110.3989,-0.0004519875
110.4989,-0.000451237
110.5989,-0.0004505137
110.6989,-0.0004498065
110.7989,-0.0004490183
110.8989,-0.0004483119
110.9989,-0.0004476283
111.0989,-0.000446904
111.1989,-0.0004461676
111.2989,-0.0004454416
111.3989,-0.0004447258
111.4989,-0.0004441005
111.5989,-0.0004433886
111.6989,-0.0004426107
111.7989,-0.0004419835
111.8989,-0.0004413761
111.9989,-0.0004407338
112.0989,-0.0004399644
112.1989,-0.0004393429
112.2989,-0.0004386159
112.3989,-0.0004379397
112.4989,-0.0004372617
112.5989,-0.0004365337
112.6989,-0.000435914
112.7989,-0.0004352332
112.8988,-0.0004345062
112.9988,-0.0004339873
113.0988,-0.0004331783
113.1988,-0.0004325568
113.2988,-0.000431907
113.3988,-0.0004311922
113.4988,-0.0004305848
113.5988,-0.0004298531
113.6988,-0.0004291327
113.7988,-0.0004284998
113.8988,-0.0004278707
113.9988,-0.00042709
114.0988,-0.0004264892
114.1988,-0.0004259119
114.2988,-0.0004251124
114.3988,-0.0004244918
114.4988,-0.0004238703
114.5988,-0.0004231922
114.6988,-0.0004225688
114.7988,-0.000421984
114.8988,-0.0004212767
114.9988,-0.0004206194
115.0988,-0.0004200035
115.1988,-0.0004193886
115.2988,-0.0004188122
115.3988,-0.0004181718
115.4988,-0.0004173714
115.5988,-0.0004168233
115.6988,-0.0004162017
115.7988,-0.0004155096
115.8988,-0.0004149445
115.9988,-0.0004142674
116.0988,-0.0004136647
116.1988,-0.0004129999
116.2988,-0.0004124414
116.3988,-0.0004116946
116.4988,-0.0004112558
116.5988,-0.0004106163
116.6988,-0.0004100014
116.7988,-0.0004093968
116.8988,-0.0004086839
116.9988,-0.0004080727
117.0988,-0.0004075359
117.1988,-0.0004069003
117.2988,-0.0004063428
117.3988,-0.0004057015
117.4988,-0.0004050177
117.5988,-0.0004044188
117.6988,-0.0004038914
117.7988,-0.0004031936
117.8988,-0.000402605
117.9988,-0.0004020023
118.0988,-0.0004014561
118.1988,-0.0004008929
118.2988,-0.0004002808
118.3988,-0.0003996414
118.4988,-0.0003990255
118.5988,-0.0003984736
118.6988,-0.0003978898
118.7988,-0.0003972974
118.8988,-0.0003967427
118.9988,-0.0003961193
119.0988,-0.0003955072
119.1988,-0.0003948979
119.2988,-0.0003943743
119.3988,-0.0003938667
119.4987,-0.000393232
119.5987,-0.0003926255
119.6987,-0.000392132
119.7987,-0.0003914935
119.8987,-0.0003909596
119.9987,-0.0003904181
120.0987,-0.0003897871
120.1987,-0.0003891599
120.2987,-0.000388674
120.3987,-0.0003880694
120.4987,-0.0003874987
120.5987,-0.0003870768
120.6987,-0.0003864411
120.7987,-0.0003859213
120.8987,-0.0003854015
120.9987,-0.0003847828
121.0987,-0.0003842996
121.1987,-0.0003837647
121.2987,-0.0003831432
121.3987,-0.0003826488
121.4987,-0.0003821365
121.5987,-0.0003815526
121.6987,-0.0003809951
121.7987,-0.0003804988
121.8987,-0.0003799187
121.9987,-0.0003793754
122.0987,-0.0003789082
122.1987,-0.0003783112
122.2987,-0.000377846
122.3987,-0.0003773148
122.4987,-0.0003767667
122.5987,-0.0003762026
122.6987,-0.0003757393
122.7987,-0.0003751959
122.8987,-0.0003747288
122.9987,-0.0003742052
123.0987,-0.000373627
123.1987,-0.0003731232
123.2987,-0.0003726759
123.3987,-0.0003721033
123.4987,-0.0003716522
123.5987,-0.0003711154
123.6987,-0.0003705711
123.7987,-0.0003700748
123.8987,-0.0003696642
123.9987,-0.0003690634
124.0987,-0.0003686509
124.1987,-0.000368181
124.2987,-0.0003675415
124.3987,-0.0003671074
124.4987,-0.0003666026
124.5987,-0.0003660451
124.6987,-0.0003655903
124.7987,-0.0003651335
124.8987,-0.0003645619
124.9987,-0.0003641296
125.0987,-0.0003636578
125.1987,-0.0003631239
125.2987,-0.0003626172
125.3987,-0.000362169
125.4987,-0.0003616181
125.5987,-0.0003612065
125.6987,-0.0003607376
125.7987,-0.0003602083
125.8987,-0.0003598297
125.9986,-0.0003593277
126.0986,-0.0003587731
126.1986,-0.0003583464
126.2986,-0.0003578869
126.3986,-0.0003573445
126.4986,-0.000356965
126.5986,-0.000356414
126.6986,-0.0003559328
126.7986,-0.0003555053
126.8986,-0.000355024
126.9986,-0.0003545099
127.0986,-0.0003541539
127.1986,-0.0003536312
127.2986,-0.0003530747
127.3986,-0.0003527027
127.4986,-0.0003521989
127.5986,-0.0003517166
127.6986,-0.0003512835
127.7986,-0.0003507834
127.8986,-0.0003503116
127.9986,-0.000349967
128.0986,-0.0003494339
128.1986,-0.0003489546
128.2986,-0.0003484903
128.3986,-0.000348091
128.4986,-0.0003475373
128.5986,-0.0003471992
128.6987,-0.0003466878
128.7987,-0.0003461812
128.8987,-0.00034578
128.9987,-0.0003453025
129.0987,-0.0003448835
129.1987,-0.0003444465
129.2987,-0.0003439954
129.3987,-0.0003435905
129.4987,-0.0003431149
129.5987,-0.0003427005
129.6987,-0.0003422438
129.7987,-0.0003418351
129.8987,-0.0003413972
129.9987,-0.0003410026
130.0987,-0.0003405139
130.1987,-0.0003400976
130.2988,-0.0003396663
130.3988,-0.0003391841
130.4988,-0.0003386906
130.5988,-0.0003383111
130.6988,-0.000337877
130.7988,-0.0003374278
130.8988,-0.0003370247
130.9988,-0.0003365388
131.0988,-0.0003361574
131.1988,-0.0003357638
131.2988,-0.0003352778
131.3988,-0.0003348927
131.4988,-0.0003344632
131.5988,-0.0003340583
131.6988,-0.0003336543
131.7988,-0.0003332541
131.8988,-0.0003327775
131.9989,-0.0003323858
132.0989,-0.0003320618
132.1989,-0.000331525
132.2989,-0.0003311248
132.3989,-0.0003307349
132.4989,-0.000330346
132.5989,-0.0003298713
132.6989,-0.0003294984
132.7989,-0.000329036
132.8989,-0.0003285972
132.9989,-0.0003282732
133.0989,-0.0003278108
133.1989,-0.0003273513
133.2989,-0.0003270141
133.3989,-0.0003265819
133.4989,-0.0003261468
133.599,-0.0003258068
133.699,-0.000325368
133.799,-0.0003249499
133.899,-0.0003245458
133.999,-0.0003240938
134.099,-0.0003236757
134.199,-0.0003233065
134.299,-0.0003228978
134.399,-0.0003225108
134.499,-0.0003221293
134.599,-0.0003216839
134.699,-0.0003213336
134.799,-0.000320955
134.899,-0.0003205312
134.999,-0.0003201828
135.099,-0.0003197684
135.1991,-0.0003194407
135.2991,-0.0003190179
135.3991,-0.0003186572
135.4991,-0.0003181986
135.5991,-0.0003179387
135.6991,-0.0003175526
135.7991,-0.0003170967
135.8991,-0.0003167511
135.9991,-0.0003163528
136.0991,-0.0003159516
136.1991,-0.0003156069
136.2991,-0.0003152971
136.3991,-0.0003148178
136.4991,-0.0003144655
136.5991,-0.0003141444
136.6991,-0.000313699
136.7991,-0.0003133618
136.8992,-0.0003130822
136.9992,-0.0003126113
137.0992,-0.0003122365
137.1992,-0.0003118777
137.2992,-0.0003114831
137.3992,-0.0003111704
137.4992,-0.0003107843
137.5992,-0.0003104067
137.6992,-0.0003100422
137.7992,-0.0003096354
137.8992,-0.0003092616
137.9992,-0.0003089178
138.0992,-0.0003085091
138.1992,-0.0003081428
138.2992,-0.0003078113
138.3992,-0.0003074506
138.4993,-0.0003070089
138.5993,-0.000306668
138.6993,-0.0003063262
138.7993,-0.0003059165
138.8993,-0.0003055973
138.9993,-0.0003052196
139.0993,-0.0003048156
139.1993,-0.0003045143
139.2993,-0.0003041649
139.3993,-0.0003037948
139.4993,-0.0003035085
139.5993,-0.000303128
139.6993,-0.000302724
139.7993,-0.0003023596
139.8993,-0.0003020517
139.9993,-0.0003016467
140.0993,-0.0003013501
140.1994,-0.0003010205
140.2994,-0.0003006023
140.3994,-0.0003002925
140.4994,-0.0002999855
140.5994,-0.0002995768
140.6994,-0.000299283
140.7994,-0.0002989543
140.8994,-0.0002985239
140.9994,-0.0002982894
141.0994,-0.0002979099
141.1994,-0.0002975464
141.2994,-0.0002972121
141.3994,-0.0002968919
141.4994,-0.0002965312
141.5994,-0.0002961818
141.6994,-0.0002959031
141.7995,-0.0002955603
141.8995,-0.0002952768
141.9995,-0.0002949434
142.0995,-0.000294547
142.1995,-0.0002942362
142.2995,-0.0002938962
142.3995,-0.0002935064
142.4995,-0.0002932606
142.5995,-0.0002929121
142.6995,-0.000292527
142.7995,-0.0002922378
142.8995,-0.0002919375
142.9995,-0.0002915749
143.0995,-0.0002912622
143.1995,-0.0002909571
143.2995,-0.0002905776
143.3996,-0.0002902875
143.4996,-0.0002899579
143.5996,-0.0002896274
143.6996,-0.0002893232
143.7996,-0.0002890087
143.8996,-0.0002886649
143.9996,-0.0002883429
144.0996,-0.0002880057
144.1996,-0.000287662
144.2996,-0.0002874115
144.3996,-0.0002870687
144.4996,-0.0002867805
144.5996,-0.0002864349
144.6996,-0.0002860799
144.7996,-0.0002857908
144.8996,-0.0002854301
144.9996,-0.0002851551
145.0997,-0.0002848594
145.1997,-0.0002845609
145.2997,-0.0002842181
145.3997,-0.00028401
145.4997,-0.0002836625
145.5997,-0.000283347
145.6997,-0.0002830306
145.7997,-0.0002827584
145.8997,-0.0002824194
145.9997,-0.0002821397
146.0997,-0.0002818515
146.1997,-0.0002814918
146.2997,-0.0002812187
146.3997,-0.000280875
146.4997,-0.0002805491
146.5997,-0.0002802393
146.6998,-0.0002799954
146.7998,-0.0002796535
146.8998,-0.0002793672
146.9998,-0.000279064
147.0998,-0.0002787532
147.1998,-0.0002784679
147.2998,-0.0002781383
147.3998,-0.0002778473
147.4998,-0.0002775431
147.5998,-0.0002772954
147.6998,-0.0002769865
147.7998,-0.000276656
147.8998,-0.0002763744
147.9998,-0.0002761051
148.0998,-0.0002758329
148.1998,-0.0002754939
148.2999,-0.0002751944
148.3999,-0.0002749204
148.4999,-0.0002745973
148.5999,-0.0002743497
148.6999,-0.0002740107
148.7999,-0.0002737234
148.8999,-0.0002734173
148.9999,-0.0002731254
149.0999,-0.0002728533
149.1999,-0.0002725576
149.2999,-0.0002722732
149.3999,-0.000271985
149.4999,-0.0002716723
149.5999,-0.0002713926
149.6999,-0.0002711299
149.7999,-0.0002708144
149.8999,-0.00027053
150,-0.0002702748
150.1,-0.0002699311
150.2,-0.0002697088
150.3,-0.0002694348
150.4,-0.0002690948
150.5,-0.0002688651
150.6,-0.0002685684
150.7,-0.0002682209
150.8,-0.0002679798
150.9,-0.0002677123
151,-0.0002674157
151.1,-0.0002671407
151.2,-0.000266894
151.3,-0.0002665861
151.4,-0.0002663271
151.5,-0.0002661001
151.6001,-0.0002657686
151.7001,-0.0002654842
151.8001,-0.0002652337
151.9001,-0.0002649568
152.0001,-0.0002646659
152.1001,-0.0002644267
152.2001,-0.0002641733
152.3001,-0.0002638701
152.4001,-0.0002635913
152.5001,-0.0002633879
152.6001,-0.00026316
152.7001,-0.0002628361
152.8001,-0.0002626402
152.9001,-0.000262384
153.0001,-0.0002620215
153.1001,-0.0002617823
153.2001,-0.0002615827
153.3002,-0.0002612681
153.4002,-0.0002609781
153.5002,-0.0002607596
153.6002,-0.0002604855
153.7002,-0.0002602227
153.8002,-0.0002599685
153.9002,-0.0002596813
154.0002,-0.0002593856
154.1002,-0.0002591586
154.2002,-0.0002588554
154.3002,-0.0002585738
154.4002,-0.0002583063
154.5002,-0.0002580653
154.6002,-0.000257891
154.7002,-0.0002576791
154.8002,-0.0002572902
154.9003,-0.0002570943
155.0003,-0.0002568137
155.1003,-0.0002564699
155.2003,-0.0002563174
155.3003,-0.0002560481
155.4003,-0.0002556845
155.5003,-0.0002555066
155.6003,-0.0002552599
155.7003,-0.0002548992
155.8003,-0.0002547362
155.9003,-0.0002545017
156.0003,-0.00025411
156.1003,-0.0002539198
156.2003,-0.0002536984
156.3003,-0.0002533942
156.4003,-0.000253188
156.5004,-0.0002529554
156.6004,-0.0002526616
156.7004,-0.0002524563
156.8004,-0.000252235
156.9004,-0.0002518884
157.0004,-0.0002517123
157.1004,-0.0002515466
157.2004,-0.0002513215
157.3004,-0.0002510409
157.4004,-0.000250716
157.5004,-0.0002504824
157.6004,-0.0002502489
157.7004,-0.000249972
157.8004,-0.0002497149
157.9004,-0.000249504
158.0004,-0.0002492318
158.1004,-0.0002489691
158.2005,-0.0002487468
158.3005,-0.0002484747
158.4005,-0.0002481997
158.5005,-0.000248001
158.6005,-0.000247742
158.7005,-0.0002474463
158.8005,-0.0002472636
158.9005,-0.0002470413
159.0005,-0.0002467466
159.1005,-0.0002465036
159.2005,-0.0002462409
159.3005,-0.0002459631
159.4005,-0.0002457606
159.5005,-0.0002455318
159.6005,-0.0002452172
159.7005,-0.0002450402
159.8006,-0.0002448198
159.9006,-0.0002445608
160.0006,-0.0002443244
160.1006,-0.000244089
160.2006,-0.0002438639
160.3006,-0.0002436408
160.4006,-0.0002434034
160.5006,-0.0002431266
160.6006,-0.0002429119
160.7006,-0.0002426651
160.8006,-0.0002424071
160.9006,-0.0002422291
161.0006,-0.0002419899
161.1006,-0.0002417319
161.2006,-0.000241535
161.3006,-0.0002412892
161.4007,-0.0002410529
161.5007,-0.0002408316
161.6007,-0.0002405679
161.7007,-0.0002403664
161.8007,-0.000240113
161.9007,-0.000239871
162.0007,-0.0002396789
162.1007,-0.0002394416
162.2007,-0.0002392297
162.3007,-0.0002390301
162.4007,-0.0002388238
162.5007,-0.0002385413
162.6007,-0.000238352
162.7007,-0.0002381166
162.8007,-0.0002378623
162.9007,-0.0002376429
163.0007,-0.0002374423
163.1008,-0.0002371946
163.2008,-0.0002369846
163.3008,-0.0002367831
163.4008,-0.0002365175
163.5008,-0.0002363056
163.6008,-0.0002360787
163.7008,-0.0002358686
163.8008,-0.0002356408
163.9008,-0.0002354411
164.0008,-0.0002352518
164.1008,-0.0002350117
164.2008,-0.0002347988
164.3008,-0.0002345804
164.4008,-0.000234328
164.5008,-0.000234102
164.6008,-0.0002339748
164.7009,-0.00023381
164.8009,-0.0002334955
164.9009,-0.0002332911
165.0009,-0.0002331339
165.1009,-0.0002328466
165.2009,-0.0002326545
165.3009,-0.0002324605
165.4009,-0.000232211
165.5009,-0.0002319991
165.6009,-0.0002318022
165.7009,-0.0002315301
165.8009,-0.0002313521
165.9009,-0.0002311591
166.0009,-0.0002308972
166.1009,-0.0002307447
166.2009,-0.0002305432
166.3009,-0.0002302512
166.401,-0.0002301081
166.501,-0.0002298915
166.601,-0.0002296438
166.701,-0.0002294347
166.801,-0.0002292389
166.901,-0.0002289761
167.001,-0.0002288594
167.101,-0.0002286672
167.201,-0.0002283998
167.301,-0.0002281935
167.401,-0.0002280523
167.501,-0.000227831
167.601,-0.0002276643
167.701,-0.0002274289
167.801,-0.0002271718
167.901,-0.0002269844
168.0011,-0.0002268167
168.1011,-0.0002265719
168.2011,-0.0002263741
168.3011,-0.0002261585
168.4011,-0.0002259663
168.5011,-0.0002257667
168.6011,-0.0002256104
168.7011,-0.000225374
168.8011,-0.0002251649
168.9011,-0.0002250632
169.0011,-0.0002248052
169.1011,-0.0002246112
169.2011,-0.0002244087
169.3011,-0.000224195
169.4011,-0.0002240028
169.5011,-0.0002237862
169.6012,-0.0002235857
169.7012,-0.000223434
169.8012,-0.000223225
169.9012,-0.0002230394
170.0012,-0.0002228539
170.1012,-0.0002226326
170.2012,-0.0002224245
170.3012,-0.0002222418
170.4012,-0.0002219904
170.5012,-0.0002218331
170.6012,-0.000221689
170.7012,-0.0002214479
170.8012,-0.0002212304
170.9012,-0.0002211334
171.0012,-0.0002208904
171.1012,-0.0002206258
171.2012,-0.0002204779
171.3013,-0.0002202849
171.4013,-0.0002200636
171.5013,-0.0002198893
171.6013,-0.0002196728
171.7013,-0.0002194223
171.8013,-0.0002192452
171.9013,-0.0002190823
172.0013,-0.0002188582
172.1013,-0.0002186726
172.2013,-0.0002184711
172.3013,-0.0002182997
172.4013,-0.0002180878
172.5013,-0.0002179532
172.6013,-0.0002177262
172.7013,-0.0002175727
172.8013,-0.0002173872
172.9014,-0.0002171593
173.0014,-0.0002169502
173.1014,-0.0002167656
173.2014,-0.0002166319
173.3014,-0.0002164172
173.4014,-0.000216194
173.5014,-0.0002160292
173.6014,-0.0002158267
173.7014,-0.0002156826
173.8014,-0.0002154858
173.9014,-0.000215273
174.0014,-0.0002150978
174.1014,-0.0002149726
174.2014,-0.0002147729
174.3014,-0.0002146034
174.4014,-0.0002144302
174.5014,-0.0002142757
174.6015,-0.0002141099
174.7015,-0.0002139075
174.8015,-0.0002136843
174.9015,-0.0002135157
175.0015,-0.0002133763
175.1015,-0.0002131842
175.2015,-0.0002129658
175.3015,-0.0002127558
175.4015,-0.000212623
175.5015,-0.0002124064
175.6015,-0.0002122368
175.7015,-0.0002120212
175.8015,-0.000211878
175.9015,-0.0002116727
176.0015,-0.000211508
176.1015,-0.0002113026
176.2016,-0.0002111209
176.3016,-0.0002109495
176.4016,-0.0002108026
176.5016,-0.0002105794
176.6016,-0.0002103948
176.7016,-0.0002102667
176.8016,-0.0002101076
176.9016,-0.0002098872
177.0016,-0.0002097083
177.1016,-0.0002095256
177.2016,-0.0002093439
177.3016,-0.000209163
177.4016,-0.0002089964
177.5016,-0.0002088184
177.6016,-0.0002086498
177.7016,-0.0002085132
177.8017,-0.0002082816
177.9017,-0.0002081648
178.0017,-0.0002079831
178.1017,-0.0002077486
178.2017,-0.0002076299
178.3017,-0.0002074708
178.4017,-0.0002072428
178.5017,-0.0002070696
178.6017,-0.000206917
178.7017,-0.0002067654
178.8017,-0.0002066863
178.9017,-0.0002065224
179.0017,-0.0002062192
179.1017,-0.0002060647
179.2017,-0.0002059367
179.3017,-0.0002057399
179.4017,-0.0002055684
179.5018,-0.0002053603
179.6018,-0.0002052087
179.7018,-0.0002051343
179.8018,-0.0002049299
179.9018,-0.0002046408
180.0018,-0.0002045486
180.1018,-0.0002043819
180.2018,-0.000204202
180.3018,-0.00020404
180.4018,-0.0002038903
180.5018,-0.000203653
180.6018,-0.0002035315
180.7018,-0.0002033413
180.8018,-0.0002031407
180.9018,-0.0002030371
181.0018,-0.000202845
181.1019,-0.0002026236
181.2019,-0.0002026274
181.3019,-0.0002024739
181.4019,-0.0002023091
181.5019,-0.0002021349
181.6019,-0.0002018948
181.7019,-0.0002016866
181.8019,-0.0002015661
181.9019,-0.0002013956
182.0019,-0.0002011649
182.1019,-0.0002010283
182.2019,-0.0002008551
182.3019,-0.0002006394
182.4019,-0.0002005057
182.5019,-0.0002003296
182.6019,-0.0002001497
182.702,-0.0002000103
182.802,-0.0001998455
182.902,-0.0001996563
183.002,-0.000199482
183.102,-0.0001993351
183.202,-0.0001991713
183.302,-0.00019903
183.402,-0.0001988379
183.502,-0.0001986561
183.602,-0.0001985516
183.702,-0.0001983943
183.802,-0.0001981928
183.902,-0.0001980346
184.002,-0.0001978764
184.102,-0.0001977389
184.202,-0.0001975873
184.302,-0.0001974375
184.4021,-0.0001972793
184.5021,-0.0001971258
184.6021,-0.0001969083
184.7021,-0.0001968216
184.8021,-0.0001966474
184.9021,-0.000196476
185.0021,-0.0001963206
185.1021,-0.0001961992
185.2021,-0.0001960287
185.3021,-0.0001958893
185.4021,-0.0001956916
185.5021,-0.0001956303
185.6021,-0.000195507
185.7021,-0.0001952895
185.8021,-0.0001951312
185.9021,-0.0001950323
186.0022,-0.000194828
186.1022,-0.0001946905
186.2022,-0.000194554
186.3022,-0.0001943665
186.4022,-0.000194213
186.5022,-0.0001940897
186.6022,-0.0001939192
186.7022,-0.0001937252
186.8022,-0.0001936433
186.9022,-0.0001934813
187.0022,-0.0001933382
187.1022,-0.0001931979
187.2022,-0.0001930293
187.3022,-0.0001928664
187.4022,-0.0001927458
187.5022,-0.0001926065
187.6022,-0.0001924511
187.7023,-0.0001922693
187.8023,-0.0001921337
187.9023,-0.0001920131
188.0023,-0.0001918794
188.1023,-0.0001917354
188.2023,-0.0001915489
188.3023,-0.0001914284
188.4023,-0.0001912551
188.5023,-0.0001911458
188.6023,-0.000190997
188.7023,-0.0001908464
188.8023,-0.0001906816
188.9023,-0.0001905676
189.0023,-0.0001904235
189.1023,-0.0001902239
189.2023,-0.0001901344
189.3024,-0.0001899819
189.4024,-0.0001898105
189.5024,-0.0001897587
189.6024,-0.0001895571
189.7024,-0.0001894064
189.8024,-0.0001892482
189.9024,-0.0001891164
190.0024,-0.0001890345
190.1024,-0.0001888518
190.2024,-0.0001886371
190.3024,-0.000188524
190.4024,-0.0001884186
190.5024,-0.0001882368
190.6024,-0.0001880937
190.7024,-0.0001879609
190.8024,-0.0001877782
190.9025,-0.0001876595
191.0025,-0.0001875616
191.1025,-0.0001873591
191.2025,-0.0001872292
191.3025,-0.0001871077
191.4025,-0.0001869382
191.5025,-0.0001868167
191.6025,-0.000186698
191.7025,-0.0001865643
191.8025,-0.0001863788
191.9025,-0.0001862573
192.0025,-0.0001861255
192.1025,-0.0001860294
192.2025,-0.0001859051
192.3025,-0.0001856998
192.4025,-0.0001856263
192.5025,-0.0001854352
192.6026,-0.0001852741
192.7026,-0.0001851866
192.8026,-0.0001850152
192.9026,-0.0001848654
193.0026,-0.000184742
193.1026,-0.0001846319
193.2026,-0.0001844332
193.3026,-0.0001843136
193.4026,-0.0001841855
193.5026,-0.0001840546
193.6026,-0.000183887
193.7026,-0.0001838182
193.8026,-0.000183676
193.9026,-0.000183531
194.0026,-0.0001833502
194.1026,-0.0001832805
194.2027,-0.0001831091
194.3027,-0.0001829848
194.4027,-0.0001828247
194.5027,-0.0001827154
194.6027,-0.0001825591
194.7027,-0.0001824094
194.8027,-0.0001822559
194.9027,-0.0001821175
195.0027,-0.0001820016
195.1027,-0.000181866
195.2027,-0.0001817144
195.3027,-0.000181543
195.4027,-0.0001814724
195.5027,-0.0001813547
195.6027,-0.0001811663
195.7027,-0.000181009
195.8027,-0.0001809007
195.9028,-0.0001807745
196.0028,-0.0001806446
196.1028,-0.0001804892
196.2028,-0.0001803555
196.3028,-0.0001802142
196.4028,-0.0001801342
196.5028,-0.0001799599
196.6028,-0.0001798498
196.7028,-0.0001797283
196.8028,-0.0001795446
196.9028,-0.0001794966
197.0028,-0.0001793422
197.1028,-0.0001791651
197.2028,-0.0001790615
197.3028,-0.0001789674
197.4028,-0.0001788054
197.5029,-0.0001786801
197.6029,-0.0001785558
197.7029,-0.0001784437
197.8029,-0.0001782997
197.9029,-0.0001781942
198.0029,-0.0001779983
198.1029,-0.0001778806
198.2029,-0.0001777704
198.3029,-0.0001776329
198.4029,-0.0001774888
198.5029,-0.0001773824
198.6029,-0.0001772807
198.7029,-0.0001771602
198.8029,-0.0001770321
198.9029,-0.0001768918
199.0029,-0.0001768004
199.103,-0.0001767082
199.203,-0.0001765396
199.303,-0.0001763475
199.403,-0.0001763644
199.503,-0.0001762947
199.603,-0.0001760612
199.703,-0.0001759623
199.803,-0.0001758681
199.903,-0.0001756355
200.003,-0.0001755809
200.103,-0.0001754538
200.203,-0.0001752654
200.303,-0.0001751581
200.403,-0.0001750554
200.503,-0.0001748991
200.603,-0.0001747767
200.703,-0.0001746467
200.8031,-0.0001745017
200.9031,-0.0001744009
201.0031,-0.0001743067
201.1031,-0.0001741438
201.2031,-0.00017406
201.3031,-0.0001739329
201.4031,-0.0001737709
201.5031,-0.0001736861
201.6031,-0.0001735938
201.7031,-0.0001734262
201.8031,-0.0001733122
201.9031,-0.00017322
202.0031,-0.0001730825
202.1031,-0.0001729497
202.2031,-0.0001728649
202.3031,-0.0001726964
202.4032,-0.0001725758
202.5032,-0.0001724901
202.6032,-0.0001723348
202.7032,-0.0001722067
202.8032,-0.0001721342
202.9032,-0.000171991
203.0032,-0.0001718592
203.1032,-0.0001717575
203.2032,-0.0001716162
203.3032,-0.0001715164
203.4032,-0.000171425
203.5032,-0.0001712649
203.6032,-0.0001711322
203.7032,-0.0001710276
203.8032,-0.0001709579
203.9032,-0.0001707743
204.0033,-0.0001706961
204.1033,-0.0001705417
204.2033,-0.000170424
204.3033,-0.0001703515
204.4033,-0.0001701989
204.5033,-0.0001701113
204.6033,-0.0001699352
204.7033,-0.0001698288
204.8033,-0.0001697544
204.9033,-0.0001696386
205.0033,-0.0001694587
205.1033,-0.0001693796
205.2033,-0.0001692826
205.3033,-0.0001691498
205.4033,-0.0001690839
205.5033,-0.000168985
205.6033,-0.0001687741
205.7034,-0.0001687138
205.8034,-0.0001686045
205.9034,-0.0001684897
206.0034,-0.0001683654
206.1034,-0.0001682806
206.2034,-0.0001681073
206.3034,-0.0001680386
206.4034,-0.0001679387
206.5034,-0.0001677815
206.6034,-0.0001677108
206.7034,-0.0001675489
206.8034,-0.0001674377
206.9034,-0.0001672993
207.0034,-0.0001671788
207.1034,-0.0001670554
207.2034,-0.0001669885
207.3035,-0.0001668426
207.4035,-0.0001667173
207.5035,-0.0001666278
207.6035,-0.0001665007
207.7035,-0.0001663406
207.8035,-0.0001662926
207.9035,-0.0001661805
208.0035,-0.0001660402
208.1035,-0.0001659687
208.2035,-0.0001658406
208.3035,-0.0001656965
208.4035,-0.0001656343
208.5035,-0.0001655034
208.6035,-0.0001653744
208.7035,-0.0001652623
208.8035,-0.0001651701
208.9035,-0.0001650514
209.0036,-0.0001649996
209.1036,-0.0001648357
209.2036,-0.0001647425
209.3036,-0.0001646644
209.4036,-0.0001645918
209.5036,-0.000164412
209.6036,-0.0001643272
209.7036,-0.0001642594
209.8036,-0.0001641002
209.9036,-0.0001640287
210.0036,-0.0001639213
210.1036,-0.0001637301
210.2036,-0.0001636586
210.3036,-0.0001635588
210.4036,-0.0001634373
210.5036,-0.0001633393
210.6037,-0.0001632423
210.7037,-0.0001630992
210.8037,-0.0001630172
210.9037,-0.0001629203
211.0037,-0.0001627865
211.1037,-0.0001626811
211.2037,-0.0001625784
211.3037,-0.0001624861
211.4037,-0.0001623628
211.5037,-0.0001622488
211.6037,-0.0001621556
211.7037,-0.0001620633
211.8037,-0.0001619296
211.9037,-0.0001618439
212.0037,-0.000161761
212.1037,-0.0001616282
212.2038,-0.0001614982
212.3038,-0.0001614662
212.4038,-0.0001612948
212.5038,-0.0001612063
212.6038,-0.0001611621
212.7038,-0.000161001
212.8038,-0.0001608786
212.9038,-0.0001608032
213.0038,-0.0001606874
213.1038,-0.0001605603
213.2038,-0.000160516
213.3038,-0.0001604039
213.4038,-0.0001602373
213.5038,-0.0001602062
213.6038,-0.0001600791
213.7038,-0.0001599566
213.8038,-0.0001598606
213.9039,-0.0001597466
214.0039,-0.0001596986
214.1039,-0.0001595536
214.2039,-0.0001594886
214.3039,-0.0001593784
214.4039,-0.0001592437
214.5039,-0.0001591675
214.6039,-0.0001590544
214.7039,-0.0001589537
214.8039,-0.0001588454
214.9039,-0.0001587625
215.0039,-0.0001586881
215.1039,-0.0001586024
215.2039,-0.0001584301
215.3039,-0.0001583293
215.4039,-0.000158238
215.504,-0.0001581551
215.604,-0.000158012
215.704,-0.0001579329
215.804,-0.0001578377
215.904,-0.0001577266
216.004,-0.0001576164
216.104,-0.0001575402
216.204,-0.000157445
216.304,-0.0001573791
216.404,-0.0001572322
216.504,-0.000157138
216.604,-0.0001569968
216.704,-0.0001569902
216.804,-0.0001568593
216.904,-0.0001567312
217.004,-0.0001566615
217.104,-0.0001565636
217.2041,-0.0001564355
217.3041,-0.000156347
217.4041,-0.0001562584
217.5041,-0.0001561887
217.6041,-0.0001560776
217.7041,-0.0001559835
217.8041,-0.0001558752
217.9041,-0.000155749
218.0041,-0.0001556454
218.1041,-0.0001555729
218.2041,-0.0001554457
218.3041,-0.0001553308
218.4041,-0.0001552753
218.5041,-0.0001551773
218.6041,-0.0001550587
218.7041,-0.0001549391
218.8042,-0.0001548863
218.9042,-0.0001547667
219.0042,-0.0001547432
219.1042,-0.0001546001
219.2042,-0.0001544682
219.3042,-0.0001543646
219.4042,-0.0001542808
219.5042,-0.0001541669
219.6042,-0.0001540821
219.7042,-0.0001539625
219.8042,-0.0001538608
219.9042,-0.0001537996
220.0042,-0.0001537186
220.1042,-0.0001535576
220.2042,-0.0001535011
220.3042,-0.0001534361
220.4043,-0.000153341
220.5043,-0.0001532157
220.6043,-0.0001531357
220.7043,-0.0001530613
220.8043,-0.000152968
220.9043,-0.0001528579
221.0043,-0.0001527289
221.1043,-0.0001526657
221.2043,-0.0001525819
221.3043,-0.0001524877
221.4043,-0.0001523832
221.5043,-0.0001522589
221.6043,-0.0001521817
221.7043,-0.0001521337
221.8043,-0.0001520075
221.9043,-0.0001518832
222.0043,-0.0001518022
222.1044,-0.0001517306
222.2044,-0.0001516346
222.3044,-0.0001515668
222.4044,-0.0001514895
222.5044,-0.0001513125
222.6044,-0.0001512955
222.7044,-0.0001511797
222.8044,-0.0001510413
222.9044,-0.0001510365
223.0044,-0.0001509452
223.1044,-0.0001507738
223.2044,-0.0001506608
223.3044,-0.000150626
223.4044,-0.0001504856
223.5044,-0.0001504159
223.6044,-0.00015035
223.7045,-0.0001502276
223.8045,-0.0001501513
223.9045,-0.0001500779
224.0045,-0.0001499874
224.1045,-0.0001499036
224.2045,-0.0001497972
224.3045,-0.0001497172
224.4045,-0.0001496447
224.5045,-0.0001495675
224.6045,-0.0001494328
224.7045,-0.0001493716
224.8045,-0.0001492953
224.9045,-0.0001491747
225.0045,-0.0001491173
225.1045,-0.000149042
225.2045,-0.0001488932
225.3046,-0.0001488451
225.4046,-0.0001487642
225.5046,-0.0001486446
225.6046,-0.0001485466
225.7046,-0.0001485061
225.8046,-0.000148394
225.9046,-0.0001482961
226.0046,-0.0001482349
226.1046,-0.0001480965
226.2046,-0.0001480513
226.3046,-0.0001479675
226.4046,-0.0001478658
226.5046,-0.0001477763
226.6046,-0.0001476962
226.7046,-0.0001476209
226.8046,-0.0001475324
226.9046,-0.0001474636
227.0047,-0.0001473412
227.1047,-0.0001473007
227.2047,-0.0001472329
227.3047,-0.0001471039
227.4047,-0.0001470436
227.5047,-0.0001469607
227.6047,-0.0001468543
227.7047,-0.0001467837
227.8047,-0.0001467309
227.9047,-0.0001465925
228.0047,-0.0001465162
228.1047,-0.0001464418
228.2047,-0.0001463232
228.3047,-0.000146277
228.4047,-0.0001462149
228.5047,-0.0001460859
228.6048,-0.0001460011
228.7048,-0.0001459258
228.8048,-0.000145809
228.9048,-0.0001457921
229.0048,-0.000145664
229.1048,-0.0001455679
229.2048,-0.0001455142
229.3048,-0.0001454615
229.4048,-0.0001453344
229.5048,-0.0001452901
229.6048,-0.0001451724
229.7048,-0.0001451112
229.8048,-0.0001450189
229.9048,-0.0001449238
230.0048,-0.0001448748
230.1048,-0.0001448126
230.2048,-0.0001446968
230.3049,-0.0001446243
230.4049,-0.0001445235
230.5049,-0.0001444821
230.6049,-0.0001443644
230.7049,-0.0001442985
230.8049,-0.0001442194
230.9049,-0.0001440894
231.0049,-0.0001440404
231.1049,-0.0001439811
231.2049,-0.0001439416
231.3049,-0.0001437984
231.4049,-0.0001437052
231.5049,-0.0001436082
231.6049,-0.0001435206
231.7049,-0.0001434641
231.8049,-0.0001433774
231.905,-0.0001432927
232.005,-0.0001431637
232.105,-0.0001431043
232.205,-0.0001430149
232.305,-0.0001429452
232.405,-0.0001428868
232.505,-0.0001427512
232.605,-0.0001427314
232.705,-0.0001426109
232.805,-0.000142495
232.905,-0.0001424395
233.005,-0.0001423698
233.105,-0.0001422295
233.205,-0.0001421739
233.305,-0.0001421146
233.405,-0.0001420082
233.5051,-0.0001419573
233.6051,-0.0001418641
233.7051,-0.0001417492
233.8051,-0.0001417049
233.9051,-0.0001416447
234.0051,-0.0001415467
234.1051,-0.0001414761
234.2051,-0.0001413753
234.3051,-0.0001413207
234.4051,-0.0001413094
234.5051,-0.0001412604
234.6051,-0.0001410589
234.7051,-0.0001409817
234.8051,-0.0001409261
234.9051,-0.0001408348
235.0051,-0.0001407255
235.1051,-0.0001406803
235.2052,-0.0001405428
235.3052,-0.0001404901
235.4052,-0.0001404138
235.5052,-0.0001402886
235.6052,-0.0001402594
235.7052,-0.0001402038
235.8052,-0.0001400918
235.9052,-0.0001400164
236.0052,-0.0001399429
236.1052,-0.000139846
236.2052,-0.0001397791
236.3052,-0.0001396953
236.4052,-0.0001396086
236.5052,-0.0001395192
236.6052,-0.0001394985
236.7052,-0.0001393826
236.8053,-0.0001393355
236.9053,-0.0001392828
237.0053,-0.0001391425
237.1053,-0.0001390963
237.2053,-0.0001390144
237.3053,-0.0001389212
237.4053,-0.0001388873
237.5053,-0.0001388016
237.6053,-0.0001386961
237.7053,-0.0001386358
237.8053,-0.0001385756
237.9053,-0.0001384616
238.0053,-0.0001384221
238.1053,-0.0001383335
238.2053,-0.0001382544
238.3053,-0.0001382196
238.4053,-0.0001381574
238.5054,-0.0001380378
238.6054,-0.0001379879
238.7054,-0.0001379437
238.8054,-0.0001378024
238.9054,-0.0001377176
239.0054,-0.0001376461
239.1054,-0.0001375124
239.2054,-0.0001374888
239.3054,-0.0001374502
239.4054,-0.0001373033
239.5054,-0.0001372101
239.6054,-0.000137179
239.7054,-0.0001370848
239.8054,-0.0001370066
239.9054,-0.0001369332
240.0054,-0.0001369464
240.1055,-0.0001368211
240.2055,-0.0001367608
240.3055,-0.0001366836
240.4055,-0.0001365631
240.5055,-0.0001365122
240.6055,-0.0001364859
240.7055,-0.0001363964
240.8055,-0.0001363201
240.9055,-0.0001362024
241.0055,-0.0001361365
241.1055,-0.0001360649
241.2055,-0.0001359764
241.3055,-0.0001358681
241.4055,-0.0001357956
241.5055,-0.000135772
241.6055,-0.0001356581
241.7056,-0.0001355733
241.8056,-0.0001355526
241.9056,-0.0001354707
242.0056,-0.0001354151
242.1056,-0.0001353096
242.2056,-0.0001352578
242.3056,-0.0001352465
242.4056,-0.0001351938
242.5056,-0.0001350092
242.6056,-0.0001349329
242.7056,-0.0001348699
242.8056,-0.0001347945
242.9056,-0.0001347352
243.0056,-0.0001346212
243.1056,-0.0001345581
243.2056,-0.000134544
243.3056,-0.0001345007
243.4057,-0.0001343302
243.5057,-0.0001343142
243.6057,-0.0001342483
243.7057,-0.0001341363
243.8057,-0.0001340957
243.9057,-0.0001340223
244.0057,-0.0001338942
244.1057,-0.0001338556
244.2057,-0.0001337916
244.3057,-0.0001336776
244.4057,-0.0001336202
244.5057,-0.0001335778
244.6057,-0.0001334629
244.7057,-0.0001333932
244.8057,-0.0001333301
244.9057,-0.0001332454
245.0058,-0.0001332067
245.1058,-0.0001330956
245.2058,-0.0001329986
245.3058,-0.0001329836
245.4058,-0.0001328941
245.5058,-0.0001328131
245.6058,-0.0001327331
245.7058,-0.0001327331
245.8058,-0.0001326709
245.9058,-0.0001325654
246.0058,-0.0001324807
246.1058,-0.0001323865
246.2058,-0.0001323686
246.3058,-0.0001322867
246.4058,-0.0001321897
246.5058,-0.0001321256
246.6059,-0.0001320908
246.7059,-0.0001320202
246.8059,-0.0001319571
246.9059,-0.0001318535
247.0059,-0.0001318036
247.1059,-0.000131749
247.2059,-0.0001316633
247.3059,-0.0001315879
247.4059,-0.0001315295
247.5059,-0.0001314514
247.6059,-0.00013136
247.7059,-0.0001313261
247.8059,-0.0001312498
247.9059,-0.0001311735
248.0059,-0.0001311632
248.1059,-0.0001310624
248.2059,-0.0001309833
248.306,-0.0001309004
248.406,-0.0001308562
248.506,-0.0001307874
248.606,-0.0001307291
248.706,-0.0001306594
248.806,-0.0001305633
248.906,-0.0001305671
249.006,-0.000130504
249.106,-0.0001303665
249.206,-0.0001303476
249.306,-0.0001303137
249.406,-0.0001301819
249.506,-0.0001301358
249.606,-0.000130068
249.706,-0.0001300312
249.806,-0.0001299747
249.9061,-0.0001298674
250.0061,-0.000129776
250.1061,-0.0001297497
250.2061,-0.0001297186
250.3061,-0.0001296329
250.4061,-0.0001295632
250.5061,-0.0001294803
250.6061,-0.0001294295
250.7061,-0.0001294153
250.8061,-0.0001293155
250.9061,-0.0001292656
251.0061,-0.0001291809
251.1061,-0.0001291526
251.2061,-0.0001290594
251.3061,-0.0001290255
251.4061,-0.0001289285
251.5061,-0.0001288597
251.6062,-0.0001288663
251.7062,-0.0001288183
251.8062,-0.000128677
251.9062,-0.0001286092
252.0062,-0.0001286026
252.1062,-0.0001284972
252.2062,-0.000128468
252.3062,-0.0001283954
252.4062,-0.0001283013
252.5062,-0.0001282485
252.6062,-0.0001281704
252.7062,-0.0001281186
252.8062,-0.0001280602
252.9062,-0.0001280178
253.0062,-0.0001279689
253.1062,-0.000127885
253.2063,-0.0001278229
253.3063,-0.0001277701
253.4063,-0.0001277174
253.5063,-0.000127676
253.6063,-0.0001276101
253.7063,-0.0001275517
253.8063,-0.0001275083
253.9063,-0.0001274547
254.0063,-0.0001274076
254.1063,-0.0001273548
254.2063,-0.0001272833
254.3063,-0.0001272107
254.4063,-0.0001271646
254.5063,-0.00012711
254.6063,-0.0001270629
254.7063,-0.0001270092
254.8064,-0.0001269198
254.9064,-0.0001268774
255.0064,-0.0001268086
255.1064,-0.000126786
255.2064,-0.0001267258
255.3064,-0.0001266306
255.4064,-0.000126577
255.5064,-0.0001265223
255.6064,-0.0001264338
255.7064,-0.0001263839
255.8064,-0.0001263255
255.9064,-0.0001262172
256.0064,-0.0001261777
256.1064,-0.0001261268
256.2064,-0.0001260458
256.3064,-0.0001259837
256.4064,-0.0001259309
256.5064,-0.000125865
256.6064,-0.0001257991
256.7065,-0.0001257605
256.8065,-0.0001256946
256.9065,-0.0001256211
257.0065,-0.0001255778
257.1065,-0.0001254902
257.2065,-0.0001254375
257.3065,-0.000125381
257.4065,-0.0001253405
257.5065,-0.0001252444
257.6065,-0.0001252284
257.7065,-0.0001251465
257.8065,-0.0001250542
257.9065,-0.0001250419
258.0065,-0.0001249892
258.1065,-0.0001248884
258.2065,-0.0001248282
258.3065,-0.0001247773
258.4066,-0.0001247086
258.5066,-0.0001246878
258.6066,-0.0001246031
258.7066,-0.0001245513
258.8066,-0.000124475
258.9066,-0.0001244213
259.0066,-0.0001243545
259.1066,-0.0001243215
259.2066,-0.0001242848
259.3066,-0.0001241567
259.4066,-0.0001241765
259.5066,-0.0001240889
259.6066,-0.0001240164
259.7066,-0.0001239759
259.8066,-0.0001238808
259.9066,-0.0001238714
260.0067,-0.0001237518
260.1067,-0.0001237358
260.2067,-0.0001236557
260.3067,-0.0001235757
260.4067,-0.0001235352
260.5067,-0.0001234834
260.6067,-0.0001234175
260.7067,-0.0001233544
260.8067,-0.0001232894
260.9067,-0.0001231914
261.0067,-0.000123215
261.1067,-0.0001232178
261.2067,-0.0001230577
261.3067,-0.0001229635
261.4067,-0.0001229833
261.5067,-0.0001229042
261.6068,-0.0001228251
261.7068,-0.0001227903
261.8068,-0.0001226848
261.9068,-0.0001226226
262.0068,-0.0001225784
262.1068,-0.0001225153
262.2068,-0.0001224286
262.3068,-0.0001223891
262.4068,-0.0001223467
262.5068,-0.0001222667
262.6068,-0.0001222186
262.7068,-0.000122148
262.8068,-0.0001220868
262.9068,-0.0001220425
263.0068,-0.0001219757
263.1068,-0.0001219389
263.2068,-0.0001218278
263.3069,-0.0001218014
263.4069,-0.0001218175
263.5069,-0.0001217807
263.6069,-0.0001216235
263.7069,-0.0001216263
263.8069,-0.000121583
263.9069,-0.0001214643
264.0069,-0.0001214455
264.1069,-0.0001213956
264.2069,-0.0001212571
264.3069,-0.00012121
264.4069,-0.00012121
264.5069,-0.0001211102
264.6069,-0.0001210546
264.7069,-0.0001209991
264.8069,-0.0001209096
264.907,-0.0001208691
265.007,-0.0001208399
265.107,-0.0001207552
265.207,-0.0001207024
265.307,-0.0001206638
265.407,-0.0001205828
265.507,-0.0001205348
265.607,-0.0001205358
265.707,-0.000120483
265.807,-0.000120403
265.907,-0.0001203173
266.007,-0.0001202674
266.107,-0.0001202401
266.207,-0.0001202061
266.307,-0.0001200837
266.407,-0.0001200696
266.507,-0.0001200225
266.6071,-0.0001199293
266.7071,-0.0001198991
266.8071,-0.0001198558
266.9071,-0.0001197494
267.0071,-0.0001197155
267.1071,-0.0001196703
267.2071,-0.0001195771
267.3071,-0.0001195705
267.4071,-0.0001195272
267.5071,-0.0001194226
267.6071,-0.0001193906
267.7071,-0.0001193398
267.8071,-0.0001192305
267.9071,-0.0001192249
268.0071,-0.0001191637
268.1071,-0.0001190572
268.2072,-0.0001190412
268.3072,-0.0001189932
268.4072,-0.0001189245
268.5072,-0.0001188538
268.6072,-0.0001188397
268.7072,-0.0001187521
268.8072,-0.000118721
268.9072,-0.000118673
269.0072,-0.0001185854
269.1072,-0.0001185393
269.2072,-0.0001185139
269.3072,-0.0001184395
269.4072,-0.0001183641
269.5072,-0.0001183378
269.6072,-0.0001182398
269.7072,-0.0001182247
269.8073,-0.0001181833
269.9073,-0.0001180948
270.0073,-0.0001180628
270.1073,-0.0001180364
270.2073,-0.0001179714
270.3073,-0.0001179422
270.4073,-0.0001178754
270.5073,-0.0001177915
270.6073,-0.0001177228
270.7073,-0.0001177059
270.8073,-0.000117655
270.9073,-0.0001176173
271.0073,-0.0001175392
271.1073,-0.000117477
271.2073,-0.00011751
271.3073,-0.0001175203
271.4073,-0.000117365
271.5074,-0.000117267
271.6074,-0.0001172661
271.7074,-0.0001171926
271.8074,-0.0001171728
271.9074,-0.0001170871
272.0074,-0.0001169967
272.1074,-0.0001169496
272.2074,-0.0001169157
272.3074,-0.0001168451
272.4074,-0.0001167745
272.5074,-0.0001167632
272.6074,-0.0001167161
272.7074,-0.0001166652
272.8074,-0.0001166144
272.9074,-0.0001165456
273.0074,-0.000116491
273.1075,-0.0001164468
273.2075,-0.0001163761
273.3075,-0.0001163347
273.4075,-0.0001162885
273.5075,-0.0001162311
273.6075,-0.0001161953
273.7075,-0.0001161002
273.8075,-0.0001160249
273.9075,-0.0001160267
274.0075,-0.0001159552
274.1075,-0.0001158271
274.2075,-0.0001158657
274.3075,-0.0001158101
274.4075,-0.0001157056
274.5075,-0.0001156821
274.6075,-0.0001156491
274.7076,-0.0001155709
274.8076,-0.0001155493
274.9076,-0.0001154984
275.0076,-0.0001153967
275.1076,-0.0001153619
275.2076,-0.0001153355
275.3076,-0.0001152489
275.4076,-0.0001152065
275.5076,-0.0001151999
275.6076,-0.0001150907
275.7076,-0.000115101
275.8076,-0.0001150624
275.9076,-0.0001149381
276.0076,-0.0001149268
276.1076,-0.0001148759
276.2076,-0.0001148505
276.3076,-0.0001147931
276.4077,-0.0001147168
276.5077,-0.0001146575
276.6077,-0.000114633
276.7077,-0.0001145803
276.8077,-0.0001145058
276.9077,-0.0001144804
277.0077,-0.0001144437
277.1077,-0.0001143382
277.2077,-0.0001143363
277.3077,-0.0001142657
277.4077,-0.0001142017
277.5077,-0.0001141809
277.6077,-0.000114131
277.7077,-0.0001140717
277.8077,-0.0001140246
277.9077,-0.0001139559
278.0078,-0.0001139229
278.1078,-0.0001138589
278.2078,-0.0001138683
278.3078,-0.000113744
278.4078,-0.0001137242
278.5078,-0.0001137139
278.6078,-0.0001136056
278.7078,-0.0001135754
278.8078,-0.000113533
278.9078,-0.0001134718
279.0078,-0.0001134285
279.1078,-0.0001134116
279.2078,-0.0001133532
279.3078,-0.0001132769
279.4078,-0.0001132985
279.5078,-0.000113211
279.6078,-0.00011313
279.7079,-0.0001131036
279.8079,-0.0001130405
279.9079,-0.0001129934
280.0079,-0.0001129303
280.1079,-0.0001128908
280.2079,-0.0001128682
280.3079,-0.0001128211
280.4079,-0.0001127279
280.5079,-0.0001126638
280.6079,-0.000112694
280.7079,-0.0001126167
280.8079,-0.0001125367
280.9079,-0.0001125216
281.0079,-0.0001124472
281.1079,-0.0001124077
281.2079,-0.0001123813
281.308,-0.000112321
281.408,-0.0001122608
281.508,-0.0001122739
281.608,-0.0001122561
281.708,-0.0001121167
281.808,-0.0001121327
281.908,-0.0001120451
282.008,-0.0001120178
282.108,-0.000111999
282.208,-0.0001119264
282.308,-0.0001118502
282.408,-0.000111853
282.508,-0.0001118229
282.608,-0.0001117362
282.708,-0.0001117146
282.808,-0.0001116176
282.9081,-0.0001115686
283.0081,-0.0001115234
283.1081,-0.0001114641
283.2081,-0.000111385
283.3081,-0.0001114038
283.4081,-0.0001113171
283.5081,-0.0001112352
283.6081,-0.0001112249
283.7081,-0.0001111712
283.8081,-0.0001110827
283.9081,-0.00011106
284.0081,-0.0001110262
284.1081,-0.0001109235
284.2081,-0.0001109075
284.3081,-0.0001108943
284.4081,-0.0001108237
284.5081,-0.0001107389
284.6082,-0.0001107644
284.7082,-0.0001107022
284.8082,-0.0001106551
284.9082,-0.0001106137
285.0082,-0.0001105609
285.1082,-0.0001104875
285.2082,-0.000110495
285.3082,-0.000110414
285.4082,-0.0001103773
285.5082,-0.0001103669
285.6082,-0.0001102728
285.7082,-0.0001102003
285.8082,-0.0001101786
285.9082,-0.0001101211
286.0082,-0.0001101089
286.1082,-0.0001100609
286.2083,-0.0001099959
286.3083,-0.0001099384
286.4083,-0.0001099168
286.5083,-0.000109849
286.6083,-0.0001098113
286.7083,-0.0001097991
286.8083,-0.0001097058
286.9083,-0.0001096456
287.0083,-0.0001096738
287.1083,-0.0001096493
287.2083,-0.0001095476
287.3083,-0.0001095231
287.4083,-0.0001095279
287.5083,-0.0001094205
287.6083,-0.0001094318
287.7083,-0.0001093857
287.8083,-0.0001092548
287.9084,-0.0001092887
288.0084,-0.0001092538
288.1084,-0.0001091201
288.2084,-0.0001091267
288.3084,-0.0001090984
288.4084,-0.000109009
288.5084,-0.000108976
288.6084,-0.0001089317
288.7084,-0.0001088677
288.8084,-0.0001088489
288.9084,-0.0001088159
289.0084,-0.0001087406
289.1084,-0.000108701
289.2084,-0.0001086492
289.3084,-0.0001086003
289.4084,-0.0001085871
289.5085,-0.0001085494
289.6085,-0.0001084449
289.7085,-0.0001084317
289.8085,-0.0001083997
289.9085,-0.0001083403
290.0085,-0.0001083356
290.1085,-0.0001082641
290.2085,-0.0001081868
290.3085,-0.0001081492
290.4085,-0.0001081501
290.5085,-0.0001080832
290.6085,-0.0001080286
290.7085,-0.0001079392
290.8085,-0.0001079401
290.9085,-0.0001078638
291.0085,-0.0001078403
291.1086,-0.0001077706
291.2086,-0.0001077423
291.3086,-0.0001077423
291.4086,-0.0001076905
291.5086,-0.0001076585
291.6086,-0.000107587
291.7086,-0.000107538
291.8086,-0.0001075248
291.9086,-0.0001074429
292.0086,-0.00010736
292.1086,-0.0001073628
292.2086,-0.0001073666
292.3086,-0.0001072828
292.4086,-0.0001072178
292.5086,-0.0001071763
292.6086,-0.000107166
292.7086,-0.0001071698
292.8087,-0.000107101
292.9087,-0.0001070379
293.0087,-0.0001070003
293.1087,-0.0001069437
293.2087,-0.0001069183
293.3087,-0.0001069042
293.4087,-0.000106859
293.5087,-0.0001067695
293.6087,-0.0001067102
293.7087,-0.0001066744
293.8087,-0.0001066462
293.9087,-0.0001066556
294.0087,-0.0001065897
294.1087,-0.0001065529
294.2087,-0.0001064644
294.3087,-0.0001064333
294.4088,-0.0001063928
294.5088,-0.0001063674
294.6088,-0.0001063241
294.7088,-0.0001062054
294.8088,-0.0001062064
294.9088,-0.0001061894
295.0088,-0.0001061197
295.1088,-0.0001061207
295.2088,-0.0001060595
295.3088,-0.0001060011
295.4088,-0.0001059888
295.5088,-0.0001059747
295.6088,-0.0001058476
295.7088,-0.000105825
295.8088,-0.0001058127
295.9088,-0.0001057327
296.0089,-0.0001056884
296.1089,-0.0001057195
296.2089,-0.0001056762
296.3089,-0.0001055839
296.4089,-0.0001055848
296.5089,-0.0001055368
296.6089,-0.0001054633
296.7089,-0.000105453
296.8089,-0.0001053569
296.9089,-0.0001053456
297.0089,-0.0001053117
297.1089,-0.0001052204
297.2089,-0.0001052081
297.3089,-0.0001051808
297.4089,-0.0001050998
297.5089,-0.0001050706
297.6089,-0.0001050198
297.709,-0.0001049595
297.809,-0.0001049228
297.909,-0.0001049002
298.009,-0.0001048277
298.109,-0.0001048117
298.209,-0.0001047749
298.309,-0.0001047005
298.409,-0.0001046996
298.509,-0.0001046374
298.609,-0.0001045894
298.709,-0.0001045687
298.809,-0.0001045451
298.909,-0.0001044868
299.009,-0.0001044538
299.109,-0.0001044133
299.209,-0.0001043709
299.3091,-0.000104338
299.4091,-0.0001043107
299.5091,-0.0001042278
299.6091,-0.0001042231
299.7091,-0.0001041798
299.8091,-0.0001041487
299.9091,-0.0001040997
300.0091,-0.0001040573
300.1091,-0.0001040159
300.2091,-0.0001039858
300.3091,-0.0001039735
300.4091,-0.0001039001
300.5091,-0.0001038775
300.6091,-0.0001038558
300.7091,-0.0001037692
300.8091,-0.0001037532
300.9091,-0.0001037296
301.0092,-0.0001036797
301.1092,-0.0001036571
301.2092,-0.0001035978
301.3092,-0.0001035639
301.4092,-0.0001035168
301.5092,-0.0001035215
301.6092,-0.0001034509
301.7092,-0.0001034207
301.8092,-0.0001033774
301.9092,-0.0001033077
302.0092,-0.0001032409
302.1092,-0.0001032691
302.2092,-0.0001032776
302.3092,-0.0001031787
302.4092,-0.0001031297
302.5092,-0.0001031147
302.6093,-0.0001030346
302.7093,-0.0001030111
302.8093,-0.0001029847
302.9093,-0.0001029282
303.0093,-0.0001028802
303.1093,-0.0001028397
303.2093,-0.0001028227
303.3093,-0.0001028114
303.4093,-0.0001027804
303.5093,-0.0001026871
303.6093,-0.0001027163
303.7093,-0.0001026334
303.8093,-0.0001025713
303.9093,-0.0001025638
304.0093,-0.0001025506
304.1093,-0.0001024329
304.2094,-0.00010243
304.3094,-0.0001024112
304.4094,-0.0001023575
304.5094,-0.0001023245
304.6094,-0.0001022784
304.7094,-0.0001022181
304.8094,-0.0001022172
304.9094,-0.0001021569
305.0094,-0.0001020835
305.1094,-0.0001021023
305.2094,-0.0001020524
305.3094,-0.000102027
305.4094,-0.00010201
305.5094,-0.0001019215
305.6094,-0.0001018688
305.7094,-0.0001018688
305.8094,-0.0001018292
305.9095,-0.0001017934
306.0095,-0.0001017379
306.1095,-0.000101704
306.2095,-0.0001016672
306.3095,-0.0001016719
306.4095,-0.0001016277
306.5095,-0.0001015307
306.6095,-0.0001015316
306.7095,-0.0001014864
306.8095,-0.0001014243
306.9095,-0.000101429
307.0095,-0.0001013979
307.1095,-0.0001013291
307.2095,-0.0001013141
307.3095,-0.0001012802
307.4095,-0.0001012077
307.5096,-0.0001012105
307.6096,-0.0001012274
307.7096,-0.0001011003
307.8096,-0.0001010965
307.9096,-0.0001010664
308.0096,-0.0001009826
308.1096,-0.0001009929
308.2096,-0.0001009854
308.3096,-0.0001008988
308.4096,-0.0001008818
308.5096,-0.0001008479
308.6096,-0.000100765
308.7096,-0.0001007519
308.8096,-0.000100766
308.9096,-0.0001006822
309.0096,-0.0001006379
309.1096,-0.0001006219
309.2097,-0.0001005541
309.3097,-0.0001005579
309.4097,-0.0001005249
309.5097,-0.0001004298
309.6097,-0.0001004232
309.7097,-0.0001003893
309.8097,-0.0001003497
309.9097,-0.0001003545
310.0097,-0.0001002904
310.1097,-0.0001002226
310.2097,-0.0001002226
310.3097,-0.0001001896
310.4097,-0.0001001379
310.5097,-0.0001001002
310.6097,-0.0001000776
310.7097,-0.0001000164
310.8098,-9.997681E-05
310.9098,-9.993726E-05
311.0098,-9.990524E-05
311.1098,-9.987794E-05
311.2098,-9.985157E-05
311.3098,-9.97574E-05
311.4098,-9.974891E-05
311.5098,-9.971878E-05
311.6098,-9.964722E-05
311.7098,-9.967075E-05
311.8098,-9.961142E-05
311.9098,-9.952008E-05
312.0098,-9.954362E-05
312.1098,-9.953137E-05
312.2098,-9.941083E-05
312.3098,-9.94551E-05
312.4099,-9.941272E-05
312.5099,-9.930253E-05
312.6099,-9.931102E-05
312.7099,-9.929782E-05
312.8099,-9.922061E-05
312.9099,-9.922814E-05
313.0099,-9.919236E-05
313.1099,-9.910006E-05
313.2099,-9.911419E-05
313.3099,-9.909347E-05
313.4099,-9.901437E-05
313.5099,-9.897952E-05
313.6099,-9.898611E-05
313.7099,-9.889948E-05
313.8099,-9.888535E-05
313.9099,-9.885428E-05
314.0099,-9.880625E-05
314.11,-9.882037E-05
314.21,-9.876575E-05
314.31,-9.866216E-05
314.41,-9.869417E-05
314.51,-9.865745E-05
314.61,-9.858212E-05
314.71,-9.855669E-05
314.81,-9.856045E-05
314.91,-9.847852E-05
315.01,-9.85096E-05
315.11,-9.845498E-05
315.21,-9.839282E-05
315.31,-9.83495E-05
315.41,-9.834385E-05
315.51,-9.825627E-05
315.61,-9.825344E-05
315.7101,-9.822896E-05
315.8101,-9.815927E-05
315.9101,-9.815645E-05
316.0101,-9.813479E-05
316.1101,-9.805474E-05
316.2101,-9.80312E-05
316.3101,-9.800012E-05
316.4101,-9.794268E-05
316.5101,-9.79455E-05
316.6101,-9.792195E-05
316.7101,-9.781083E-05
316.8101,-9.780424E-05
316.9101,-9.780707E-05
317.0101,-9.772984E-05
317.1101,-9.772984E-05
317.2101,-9.768182E-05
317.3102,-9.760742E-05
317.4102,-9.759612E-05
317.5102,-9.757069E-05
317.6102,-9.751607E-05
317.7102,-9.749629E-05
317.8102,-9.747934E-05
317.9102,-9.739553E-05
318.0102,-9.73993E-05
318.1102,-9.73654E-05
318.2102,-9.730324E-05
318.3102,-9.730324E-05
318.4102,-9.72731E-05
318.5102,-9.719306E-05
318.6102,-9.718458E-05
318.7102,-9.716763E-05
318.8102,-9.710265E-05
318.9102,-9.707911E-05
319.0103,-9.70405E-05
319.1103,-9.697081E-05
319.2103,-9.695574E-05
319.3103,-9.696893E-05
319.4103,-9.691713E-05
319.5103,-9.690395E-05
319.6103,-9.683896E-05
319.7103,-9.677398E-05
319.8103,-9.676457E-05
319.9103,-9.675704E-05
320.0103,-9.669583E-05
320.1103,-9.667982E-05
320.2103,-9.665157E-05
320.3103,-9.661954E-05
320.4103,-9.658376E-05
320.5103,-9.655551E-05
320.6104,-9.650466E-05
320.7104,-9.648205E-05
320.8104,-9.643684E-05
320.9104,-9.639447E-05
321.0104,-9.639165E-05
321.1104,-9.635774E-05
321.2104,-9.631442E-05
321.3104,-9.631537E-05
321.4104,-9.629936E-05
321.5104,-9.621648E-05
321.6104,-9.617881E-05
321.7104,-9.61741E-05
321.8104,-9.611384E-05
321.9104,-9.608464E-05
322.0104,-9.607523E-05
322.1104,-9.5998E-05
322.2104,-9.594338E-05
322.3105,-9.59189E-05
322.4105,-9.589912E-05
322.5105,-9.589535E-05
322.6105,-9.585862E-05
322.7105,-9.580777E-05
322.8105,-9.578423E-05
322.9105,-9.575221E-05
323.0105,-9.569289E-05
323.1105,-9.567875E-05
323.2105,-9.565804E-05
323.3105,-9.558834E-05
323.4105,-9.555256E-05
323.5105,-9.554032E-05
323.6105,-9.551112E-05
323.7105,-9.546404E-05
323.8105,-9.542354E-05
323.9106,-9.541601E-05
324.0106,-9.535857E-05
324.1106,-9.534255E-05
324.2106,-9.530771E-05
324.3106,-9.528511E-05
324.4106,-9.524556E-05
324.5106,-9.520883E-05
324.6106,-9.517964E-05
324.7106,-9.513538E-05
324.8106,-9.510242E-05
324.9106,-9.508452E-05
325.0106,-9.502613E-05
325.1106,-9.4996E-05
325.2106,-9.496963E-05
325.3106,-9.494044E-05
325.4106,-9.491971E-05
325.5107,-9.488488E-05
325.6107,-9.484532E-05
325.7107,-9.478882E-05
325.8107,-9.478882E-05
325.9107,-9.475208E-05
326.0107,-9.469936E-05
326.1107,-9.468428E-05
326.2107,-9.465321E-05
326.3107,-9.464756E-05
326.4107,-9.460894E-05
326.5107,-9.460518E-05
326.6107,-9.45402E-05
326.7107,-9.450442E-05
326.8107,-9.453078E-05
326.9107,-9.445451E-05
327.0107,-9.439047E-05
327.1107,-9.438387E-05
327.2108,-9.435091E-05
327.3108,-9.431701E-05
327.4108,-9.430382E-05
327.5108,-9.426898E-05
327.6108,-9.420024E-05
327.7108,-9.419271E-05
327.8108,-9.415597E-05
327.9108,-9.409853E-05
328.0108,-9.40797E-05
328.1108,-9.403544E-05
328.2108,-9.399871E-05
328.3108,-9.397517E-05
328.4108,-9.396668E-05
328.5108,-9.391207E-05
328.6108,-9.388758E-05
328.7108,-9.390359E-05
328.8109,-9.38292E-05
328.9109,-9.383767E-05
329.0109,-9.382072E-05
329.1109,-9.372654E-05
329.2109,-9.372467E-05
329.3109,-9.369358E-05
329.4109,-9.363048E-05
329.5109,-9.360506E-05
329.6109,-9.357398E-05
329.7109,-9.34864E-05
329.8109,-9.351371E-05
329.9109,-9.348358E-05
330.0109,-9.336397E-05
330.1109,-9.341766E-05
330.2109,-9.343649E-05
330.3109,-9.340353E-05
330.4109,-9.329524E-05
330.511,-9.330465E-05
330.611,-9.32764E-05
330.711,-9.324156E-05
330.811,-9.319729E-05
330.911,-9.314926E-05
331.011,-9.315398E-05
331.111,-9.309842E-05
331.211,-9.304285E-05
331.311,-9.30033E-05
331.411,-9.299011E-05
331.511,-9.295432E-05
331.611,-9.293267E-05
331.711,-9.288276E-05
331.811,-9.283661E-05
331.911,-9.280459E-05
332.011,-9.281778E-05
332.1111,-9.276316E-05
332.2111,-9.274338E-05
332.3111,-9.271042E-05
332.4111,-9.265485E-05
332.5111,-9.265109E-05
332.6111,-9.262002E-05
332.7111,-9.257481E-05
332.8111,-9.257198E-05
332.9111,-9.25136E-05
333.0111,-9.2491E-05
333.1111,-9.245333E-05
333.2111,-9.246086E-05
333.3111,-9.236857E-05
333.4111,-9.238834E-05
333.5111,-9.234691E-05
333.6111,-9.229135E-05
333.7112,-9.227816E-05
333.8112,-9.225462E-05
333.9112,-9.219623E-05
334.0112,-9.215856E-05
334.1112,-9.216327E-05
334.2112,-9.213595E-05
334.3112,-9.208134E-05
334.4112,-9.203237E-05
334.5112,-9.200977E-05
334.6112,-9.202295E-05
334.7112,-9.197021E-05
334.8112,-9.191842E-05
334.9112,-9.188075E-05
335.0112,-9.187133E-05
335.1112,-9.181294E-05
335.2112,-9.180258E-05
335.3112,-9.178376E-05
335.4113,-9.171689E-05
335.5113,-9.168675E-05
335.6113,-9.166792E-05
335.7113,-9.163401E-05
335.8113,-9.159541E-05
335.9113,-9.155868E-05
336.0113,-9.153232E-05
336.1113,-9.152761E-05
336.2113,-9.148617E-05
336.3113,-9.143155E-05
336.4113,-9.142307E-05
336.5113,-9.140329E-05
336.6113,-9.135621E-05
336.7113,-9.132607E-05
336.8113,-9.132513E-05
336.9113,-9.125168E-05
337.0114,-9.123849E-05
337.1114,-9.124979E-05
337.2114,-9.119141E-05
337.3114,-9.117163E-05
337.4114,-9.113961E-05
337.5114,-9.10897E-05
337.6114,-9.111512E-05
337.7114,-9.105203E-05
337.8114,-9.101813E-05
337.9114,-9.10219E-05
338.0114,-9.098987E-05
338.1114,-9.097104E-05
338.2114,-9.090041E-05
338.3114,-9.090323E-05
338.4114,-9.087121E-05
338.5114,-9.082319E-05
338.6115,-9.083167E-05
338.7115,-9.079304E-05
338.8115,-9.072995E-05
338.9115,-9.073372E-05
339.0115,-9.072902E-05
339.1115,-9.066027E-05
339.2115,-9.065933E-05
339.3115,-9.059717E-05
339.4115,-9.054161E-05
339.5115,-9.061318E-05
339.6115,-9.06405E-05
339.7115,-9.050583E-05
339.8115,-9.047287E-05
339.9115,-9.047004E-05
340.0115,-9.040506E-05
340.1115,-9.038716E-05
340.2115,-9.03495E-05
340.3116,-9.029488E-05
340.4116,-9.034007E-05
340.5116,-9.03495E-05
340.6116,-9.024685E-05
340.7116,-9.025344E-05
340.8116,-9.022425E-05
340.9116,-9.013102E-05
341.0116,-9.013572E-05
341.1116,-9.01376E-05
341.2116,-9.007545E-05
341.3116,-9.004908E-05
341.4116,-9.000011E-05
341.5116,-8.99841E-05
341.6116,-8.995963E-05
341.7116,-8.998129E-05
341.8116,-8.989087E-05
341.9117,-8.98485E-05
342.0117,-8.987392E-05
342.1117,-8.981742E-05
342.2117,-8.977598E-05
342.3117,-8.975809E-05
342.4117,-8.972607E-05
342.5117,-8.968463E-05
342.6117,-8.968463E-05
342.7117,-8.962154E-05
342.8117,-8.959611E-05
342.9117,-8.959141E-05
343.0117,-8.95575E-05
343.1117,-8.951606E-05
343.2117,-8.949723E-05
343.3117,-8.943978E-05
343.4117,-8.945673E-05
343.5117,-8.943037E-05
343.6118,-8.935879E-05
343.7118,-8.935126E-05
343.8118,-8.933242E-05
343.9118,-8.929946E-05
344.0118,-8.924108E-05
344.1118,-8.924484E-05
344.2118,-8.918645E-05
344.3118,-8.918458E-05
344.4118,-8.914973E-05
344.5118,-8.910358E-05
344.6118,-8.909606E-05
344.7118,-8.905933E-05
344.8118,-8.901882E-05
344.9118,-8.900565E-05
345.0118,-8.89821E-05
345.1118,-8.891336E-05
345.2119,-8.888511E-05
345.3119,-8.886533E-05
345.4119,-8.88399E-05
345.5119,-8.888511E-05
345.6119,-8.890864E-05
345.7119,-8.879187E-05
345.8119,-8.874007E-05
345.9119,-8.872595E-05
346.0119,-8.868358E-05
346.1119,-8.864779E-05
346.2119,-8.862424E-05
346.3119,-8.854608E-05
346.4119,-8.854325E-05
346.5119,-8.853761E-05
346.6119,-8.848581E-05
346.7119,-8.850088E-05
346.812,-8.842742E-05
346.912,-8.836809E-05
347.012,-8.837845E-05
347.112,-8.836809E-05
347.212,-8.831724E-05
347.312,-8.830218E-05
347.412,-8.827957E-05
347.512,-8.82146E-05
347.612,-8.823154E-05
347.712,-8.821931E-05
347.812,-8.815055E-05
347.912,-8.813831E-05
348.012,-8.812606E-05
348.112,-8.806203E-05
348.212,-8.807334E-05
348.312,-8.805262E-05
348.412,-8.802342E-05
348.5121,-8.799705E-05
348.6121,-8.795185E-05
348.7121,-8.791136E-05
348.8121,-8.790947E-05
348.9121,-8.791417E-05
349.0121,-8.78605E-05
349.1121,-8.783884E-05
349.2121,-8.783131E-05
349.3121,-8.777103E-05
349.4121,-8.775879E-05
349.5121,-8.773148E-05
349.6121,-8.772018E-05
349.7121,-8.768817E-05
349.8121,-8.767027E-05
349.9121,-8.760246E-05
350.0121,-8.762977E-05
350.1122,-8.759494E-05
350.2122,-8.754784E-05
350.3122,-8.755444E-05
350.4122,-8.75582E-05
350.5122,-8.748569E-05
350.6122,-8.746309E-05
350.7122,-8.746027E-05
350.8122,-8.742353E-05
350.9122,-8.739529E-05
351.0122,-8.737551E-05
351.1122,-8.734161E-05
351.2122,-8.735102E-05
351.3122,-8.732183E-05
351.4122,-8.729452E-05
351.5122,-8.727192E-05
351.6122,-8.723519E-05
351.7122,-8.71721E-05
351.8123,-8.7206E-05
351.9123,-8.71608E-05
352.0123,-8.713631E-05
352.1123,-8.708075E-05
352.2123,-8.705814E-05
352.3123,-8.704684E-05
352.4123,-8.700729E-05
352.5123,-8.7012E-05
352.6123,-8.696868E-05
352.7123,-8.692631E-05
352.8123,-8.692631E-05
352.9123,-8.68811E-05
353.0123,-8.68293E-05
353.1123,-8.684249E-05
353.2123,-8.680575E-05
353.3123,-8.67229E-05
353.4124,-8.675585E-05
353.5124,-8.673796E-05
353.6124,-8.664849E-05
353.7124,-8.666921E-05
353.8124,-8.666733E-05
353.9124,-8.661082E-05
354.0124,-8.659105E-05
354.1124,-8.657597E-05
354.2124,-8.653078E-05
354.3124,-8.651947E-05
354.4124,-8.652418E-05
354.5124,-8.647615E-05
354.6124,-8.642812E-05
354.7124,-8.640082E-05
354.8124,-8.637162E-05
354.9124,-8.636221E-05
355.0125,-8.634714E-05
355.1125,-8.630288E-05
355.2125,-8.626426E-05
355.3125,-8.626332E-05
355.4125,-8.623696E-05
355.5125,-8.619646E-05
355.6125,-8.617857E-05
355.7125,-8.614184E-05
355.8125,-8.61522E-05
355.9125,-8.610982E-05
356.0125,-8.604579E-05
356.1125,-8.604296E-05
356.2125,-8.606367E-05
356.3125,-8.602224E-05
356.4125,-8.599305E-05
356.5125,-8.596008E-05
356.6125,-8.59064E-05
356.7126,-8.590076E-05
356.8126,-8.590076E-05
356.9126,-8.58499E-05
357.0126,-8.583296E-05
357.1126,-8.579623E-05
357.2126,-8.575196E-05
357.3126,-8.576702E-05
357.4126,-8.572936E-05
357.5126,-8.569829E-05
357.6126,-8.5703E-05
357.7126,-8.564931E-05
357.8126,-8.561353E-05
357.9126,-8.558433E-05
358.0126,-8.559375E-05
358.1126,-8.554573E-05
358.2126,-8.554479E-05
358.3127,-8.549017E-05
358.4127,-8.545625E-05
358.5127,-8.550617E-05
358.6127,-8.554949E-05
358.7127,-8.541859E-05
358.8127,-8.539787E-05
358.9127,-8.542706E-05
359.0127,-8.535362E-05
359.1127,-8.53602E-05
359.2127,-8.531594E-05
359.3127,-8.525285E-05
359.4127,-8.523966E-05
359.5127,-8.522082E-05
359.6127,-8.517751E-05
359.7127,-8.51615E-05
359.8127,-8.520576E-05
359.9128,-8.512384E-05
360.0128,-8.510782E-05
360.1128,-8.507674E-05
360.2128,-8.502023E-05
360.3128,-8.504284E-05
360.4128,-8.501271E-05
360.5128,-8.49788E-05
360.6128,-8.494584E-05
360.7128,-8.492984E-05
360.8128,-8.491005E-05
360.9128,-8.487239E-05
361.0128,-8.485073E-05
361.1128,-8.478857E-05
361.2128,-8.483472E-05
361.3128,-8.481494E-05
361.4128,-8.473395E-05
361.5128,-8.473961E-05
361.6129,-8.468969E-05
361.7129,-8.468404E-05
361.8129,-8.467556E-05
361.9129,-8.463695E-05
362.0129,-8.457951E-05
362.1129,-8.458893E-05
362.2129,-8.459081E-05
362.3129,-8.452112E-05
362.4129,-8.447874E-05
362.5129,-8.449004E-05
362.6129,-8.444107E-05
362.7129,-8.446838E-05
362.8129,-8.443354E-05
362.9129,-8.436669E-05
363.0129,-8.433371E-05
363.1129,-8.435349E-05
363.213,-8.429228E-05
363.313,-8.428193E-05
363.413,-8.426121E-05
363.513,-8.421317E-05
363.613,-8.423389E-05
363.713,-8.419999E-05
363.813,-8.41482E-05
363.913,-8.413124E-05
364.013,-8.411806E-05
364.113,-8.408039E-05
364.213,-8.408228E-05
364.313,-8.405119E-05
364.413,-8.401729E-05
364.513,-8.399281E-05
364.613,-8.398904E-05
364.713,-8.392501E-05
364.813,-8.393818E-05
364.9131,-8.390993E-05
365.0131,-8.386379E-05
365.1131,-8.387227E-05
365.2131,-8.384872E-05
365.3131,-8.379787E-05
365.4131,-8.383272E-05
365.5131,-8.379975E-05
365.6131,-8.370182E-05
365.7131,-8.373478E-05
365.8131,-8.371499E-05
365.9131,-8.365755E-05
366.0131,-8.363778E-05
366.1131,-8.366226E-05
366.2131,-8.359069E-05
366.3131,-8.358316E-05
366.4131,-8.354925E-05
366.5132,-8.352383E-05
366.6132,-8.357185E-05
366.7132,-8.35841E-05
366.8132,-8.347109E-05
366.9132,-8.347298E-05
367.0132,-8.346544E-05
367.1132,-8.340988E-05
367.2132,-8.340141E-05
367.3132,-8.339011E-05
367.4132,-8.331382E-05
367.5132,-8.333172E-05
367.6132,-8.32997E-05
367.7132,-8.325544E-05
367.8132,-8.32366E-05
367.9132,-8.324225E-05
368.0132,-8.318009E-05
368.1133,-8.317162E-05
368.2133,-8.314619E-05
368.3133,-8.308404E-05
368.4133,-8.313866E-05
368.5133,-8.309346E-05
368.6133,-8.301624E-05
368.7133,-8.303978E-05
368.8133,-8.302848E-05
368.9133,-8.298421E-05
369.0133,-8.300588E-05
369.1133,-8.294467E-05
369.2133,-8.292017E-05
369.3133,-8.290228E-05
369.4133,-8.290511E-05
369.5133,-8.283072E-05
369.6133,-8.284483E-05
369.7133,-8.283731E-05
369.8134,-8.276667E-05
369.9134,-8.275067E-05
370.0134,-8.27648E-05
370.1134,-8.271771E-05
370.2134,-8.269134E-05
370.3134,-8.268568E-05
370.4134,-8.264143E-05
370.5134,-8.265179E-05
370.6134,-8.262353E-05
370.7134,-8.25821E-05
370.8134,-8.25934E-05
370.9134,-8.258492E-05
371.0134,-8.251335E-05
371.1134,-8.253595E-05
371.2134,-8.254537E-05
371.3134,-8.247379E-05
371.4135,-8.245213E-05
371.5135,-8.247286E-05
371.6135,-8.240694E-05
371.7135,-8.237398E-05
371.8135,-8.240599E-05
371.9135,-8.232689E-05
372.0135,-8.23203E-05
372.1135,-8.233253E-05
372.2135,-8.22685E-05
372.3135,-8.228828E-05
372.4135,-8.226944E-05
372.5135,-8.219128E-05
372.6135,-8.217715E-05
372.7135,-8.219222E-05
372.8135,-8.213854E-05
372.9135,-8.212818E-05
373.0135,-8.210746E-05
373.1136,-8.205096E-05
373.2136,-8.205096E-05
373.3136,-8.204625E-05
373.4136,-8.2018E-05
373.5136,-8.203778E-05
373.6136,-8.197468E-05
373.7136,-8.189464E-05
373.8136,-8.193324E-05
373.9136,-8.19436E-05
374.0136,-8.18758E-05
374.1136,-8.187768E-05
374.2136,-8.182494E-05
374.3136,-8.179857E-05
374.4136,-8.181835E-05
374.5136,-8.179198E-05
374.6136,-8.171287E-05
374.7137,-8.175055E-05
374.8137,-8.17449E-05
374.9137,-8.164319E-05
375.0137,-8.166768E-05
375.1137,-8.164131E-05
375.2137,-8.162436E-05
375.3137,-8.15848E-05
375.4137,-8.156691E-05
375.5137,-8.153207E-05
375.6137,-8.153113E-05
375.7137,-8.150476E-05
375.8137,-8.144826E-05
375.9137,-8.146802E-05
376.0137,-8.146991E-05
376.1137,-8.143036E-05
376.2137,-8.137291E-05
376.3138,-8.139646E-05
376.4138,-8.138893E-05
376.5138,-8.13908E-05
376.6138,-8.13861E-05
376.7138,-8.136444E-05
376.8138,-8.132112E-05
376.9138,-8.128909E-05
377.0138,-8.122224E-05
377.1138,-8.117232E-05
377.2138,-8.119116E-05
377.3138,-8.115161E-05
377.4138,-8.111111E-05
377.5138,-8.110169E-05
377.6138,-8.107156E-05
377.7138,-8.10612E-05
377.8138,-8.102259E-05
377.9138,-8.097927E-05
378.0139,-8.09708E-05
378.1139,-8.098303E-05
378.2139,-8.091994E-05
378.3139,-8.090581E-05
378.4139,-8.09077E-05
378.5139,-8.088321E-05
378.6139,-8.086344E-05
378.7139,-8.082483E-05
378.8139,-8.080505E-05
378.9139,-8.079752E-05
379.0139,-8.077679E-05
379.1139,-8.075608E-05
379.2139,-8.073536E-05
379.3139,-8.073442E-05
379.4139,-8.068168E-05
379.5139,-8.067791E-05
379.614,-8.065342E-05
379.714,-8.059786E-05
379.814,-8.058845E-05
379.914,-8.058374E-05
380.014,-8.056303E-05
380.114,-8.052064E-05
380.214,-8.055643E-05
380.314,-8.053665E-05
380.414,-8.046226E-05
380.514,-8.049617E-05
380.614,-8.047073E-05
380.714,-8.043212E-05
380.814,-8.043966E-05
380.914,-8.041423E-05
381.014,-8.033984E-05
381.114,-8.035773E-05
381.2141,-8.03323E-05
381.3141,-8.027862E-05
381.4141,-8.027391E-05
381.5141,-8.024378E-05
381.6141,-8.019951E-05
381.7141,-8.025319E-05
381.8141,-8.021082E-05
381.9141,-8.015054E-05
382.0141,-8.013453E-05
382.1141,-8.013736E-05
382.2141,-8.009592E-05
382.3141,-8.008086E-05
382.4141,-8.00705E-05
382.5141,-8.002059E-05
382.6141,-8.000834E-05
382.7141,-7.999139E-05
382.8141,-7.997162E-05
382.9142,-7.998292E-05
383.0142,-7.995278E-05
383.1142,-7.992264E-05
383.2142,-7.990382E-05
383.3142,-7.98718E-05
383.4142,-7.984543E-05
383.5142,-7.981435E-05
383.6142,-7.979645E-05
383.7142,-7.978798E-05
383.8142,-7.978798E-05
383.9142,-7.974937E-05
384.0142,-7.972394E-05
384.1142,-7.972394E-05
384.2142,-7.970888E-05
384.3142,-7.964578E-05
384.4142,-7.963918E-05
384.5143,-7.964389E-05
384.6143,-7.961753E-05
384.7143,-7.961565E-05
384.8143,-7.957986E-05
384.9143,-7.956007E-05
385.0143,-7.954313E-05
385.1143,-7.953183E-05
385.2143,-7.948286E-05
385.3143,-7.946968E-05
385.4143,-7.948663E-05
385.5143,-7.942918E-05
385.6143,-7.940941E-05
385.7143,-7.942918E-05
385.8143,-7.939528E-05
385.9143,-7.936514E-05
386.0143,-7.934348E-05
386.1143,-7.932182E-05
386.2144,-7.928981E-05
386.3144,-7.930675E-05
386.4144,-7.925967E-05
386.5144,-7.923801E-05
386.6144,-7.922199E-05
386.7144,-7.920034E-05
386.8144,-7.914572E-05
386.9144,-7.914572E-05
387.0144,-7.914572E-05
387.1144,-7.908357E-05
387.2144,-7.909581E-05
387.3144,-7.906755E-05
387.4144,-7.904119E-05
387.5144,-7.90233E-05
387.6144,-7.899786E-05
387.7144,-7.898657E-05
387.8145,-7.897715E-05
387.9145,-7.893383E-05
388.0145,-7.893571E-05
388.1145,-7.889899E-05
388.2145,-7.887921E-05
388.3145,-7.885283E-05
388.4145,-7.885943E-05
388.5145,-7.882553E-05
388.6145,-7.878221E-05
388.7145,-7.879727E-05
388.8145,-7.877751E-05
388.9145,-7.872665E-05
389.0145,-7.874831E-05
389.1145,-7.872382E-05
389.2145,-7.86805E-05
389.3145,-7.866638E-05
389.4146,-7.869463E-05
389.5146,-7.867203E-05
389.6146,-7.862494E-05
389.7146,-7.861929E-05
389.8146,-7.858257E-05
389.9146,-7.859009E-05
390.0146,-7.854396E-05
390.1146,-7.84931E-05
390.2146,-7.850157E-05
390.3146,-7.844414E-05
390.4146,-7.843376E-05
390.5146,-7.844884E-05
390.6146,-7.844414E-05
390.7146,-7.836502E-05
390.8146,-7.837068E-05
390.9146,-7.838763E-05
391.0146,-7.832547E-05
391.1147,-7.83104E-05
391.2147,-7.832924E-05
391.3147,-7.826426E-05
391.4147,-7.826237E-05
391.5147,-7.826049E-05
391.6147,-7.820399E-05
391.7147,-7.81842E-05
391.8147,-7.817761E-05
391.9147,-7.818516E-05
392.0147,-7.81277E-05
392.1147,-7.813336E-05
392.2147,-7.80825E-05
392.3147,-7.807591E-05
392.4147,-7.806178E-05
392.5147,-7.804578E-05
392.6147,-7.80373E-05
392.7148,-7.798927E-05
392.8148,-7.798645E-05
392.9148,-7.794784E-05
393.0148,-7.795537E-05
393.1148,-7.794501E-05
393.2148,-7.790263E-05
393.3148,-7.789415E-05
393.4148,-7.786026E-05
393.5148,-7.786026E-05
393.6148,-7.78499E-05
393.7148,-7.781505E-05
393.8148,-7.781693E-05
393.9148,-7.776797E-05
394.0148,-7.774725E-05
394.1148,-7.777927E-05
394.2148,-7.773783E-05
394.3148,-7.767096E-05
394.4149,-7.768792E-05
394.5149,-7.767002E-05
394.6149,-7.763519E-05
394.7149,-7.763424E-05
394.8149,-7.763989E-05
394.9149,-7.75928E-05
395.0149,-7.75815E-05
395.1149,-7.75702E-05
395.2149,-7.752499E-05
395.3149,-7.751559E-05
395.4149,-7.750711E-05
395.5149,-7.746097E-05
395.6149,-7.745437E-05
395.7149,-7.74619E-05
395.8149,-7.742423E-05
395.9149,-7.740822E-05
396.015,-7.736679E-05
396.115,-7.736114E-05
396.215,-7.741858E-05
396.315,-7.745437E-05
396.415,-7.7331E-05
396.515,-7.730934E-05
396.615,-7.735737E-05
396.715,-7.72745E-05
396.815,-7.723966E-05
396.915,-7.729899E-05
397.015,-7.720198E-05
397.115,-7.719916E-05
397.215,-7.717279E-05
397.315,-7.7137E-05
397.415,-7.713983E-05
397.515,-7.715019E-05
397.6151,-7.708804E-05
397.7151,-7.707391E-05
397.8151,-7.704848E-05
397.9151,-7.702399E-05
398.0151,-7.702965E-05
398.1151,-7.701175E-05
398.2151,-7.696278E-05
398.3151,-7.694771E-05
398.4151,-7.699669E-05
398.5151,-7.6927E-05
398.6151,-7.692794E-05
398.7151,-7.691852E-05
398.8151,-7.687332E-05
398.9151,-7.685542E-05
399.0151,-7.681399E-05
399.1151,-7.679704E-05
399.2151,-7.682153E-05
399.3152,-7.678856E-05
399.4152,-7.674054E-05
399.5152,-7.672076E-05
399.6152,-7.673018E-05
399.7152,-7.67217E-05
399.8152,-7.671888E-05
399.9152,-7.667273E-05
400.0152,-7.664636E-05
400.1152,-7.664166E-05
400.2152,-7.662565E-05
400.3152,-7.658232E-05
400.4152,-7.658986E-05
400.5152,-7.656914E-05
400.6152,-7.650888E-05
400.7152,-7.652865E-05
400.8152,-7.650793E-05
400.9153,-7.646367E-05
401.0153,-7.647592E-05
401.1153,-7.646649E-05
401.2153,-7.640057E-05
401.3153,-7.641658E-05
401.4153,-7.641564E-05
401.5153,-7.637232E-05
401.6153,-7.637326E-05
401.7153,-7.634407E-05
401.8153,-7.628003E-05
401.9153,-7.629509E-05
402.0153,-7.63064E-05
402.1153,-7.625931E-05
402.2153,-7.623954E-05
402.3153,-7.626308E-05
402.4153,-7.621504E-05
402.5154,-7.621976E-05
402.6154,-7.617362E-05
402.7154,-7.616985E-05
402.8154,-7.616326E-05
402.9154,-7.612465E-05
403.0154,-7.611711E-05
403.1154,-7.610487E-05
403.2154,-7.607567E-05
403.3154,-7.605214E-05
403.4154,-7.60719E-05
403.5154,-7.602859E-05
403.6154,-7.600034E-05
403.7154,-7.599751E-05
403.8154,-7.595608E-05
403.9154,-7.593442E-05
404.0154,-7.592123E-05
404.1154,-7.5925E-05
404.2155,-7.585154E-05
404.3155,-7.587791E-05
404.4155,-7.587602E-05
404.5155,-7.580635E-05
404.6155,-7.581575E-05
404.7155,-7.578845E-05
404.8155,-7.574513E-05
404.9155,-7.576773E-05
405.0155,-7.576302E-05
405.1155,-7.569239E-05
405.2155,-7.568957E-05
405.3155,-7.569804E-05
405.4155,-7.567261E-05
405.5155,-7.564436E-05
405.6155,-7.565002E-05
405.7155,-7.559633E-05
405.8156,-7.561611E-05
405.9156,-7.561329E-05
406.0156,-7.554642E-05
406.1156,-7.551064E-05
406.2156,-7.551817E-05
406.3156,-7.552288E-05
406.4156,-7.549275E-05
406.5156,-7.546544E-05
406.6156,-7.547015E-05
406.7156,-7.543247E-05
406.8156,-7.543436E-05
406.9156,-7.538633E-05
407.0156,-7.539292E-05
407.1156,-7.53835E-05
407.2156,-7.534583E-05
407.3156,-7.533358E-05
407.4156,-7.533265E-05
407.5157,-7.532229E-05
407.6157,-7.531758E-05
407.7157,-7.529026E-05
407.8157,-7.525731E-05
407.9157,-7.52526E-05
408.0157,-7.52592E-05
408.1157,-7.52187E-05
408.2157,-7.520929E-05
408.3157,-7.518763E-05
408.4157,-7.512735E-05
408.5157,-7.510852E-05
408.6157,-7.515183E-05
408.7157,-7.514712E-05
408.8157,-7.509344E-05
408.9157,-7.507085E-05
409.0157,-7.50586E-05
409.1158,-7.501623E-05
409.2158,-7.503788E-05
409.3158,-7.502E-05
409.4158,-7.495125E-05
409.5158,-7.495596E-05
409.6158,-7.493619E-05
409.7158,-7.491829E-05
409.8158,-7.490793E-05
409.9158,-7.487214E-05
410.0158,-7.483824E-05
410.1158,-7.486649E-05
410.2158,-7.484484E-05
410.3158,-7.478456E-05
410.4158,-7.479022E-05
410.5158,-7.476573E-05
410.6158,-7.477043E-05
410.7159,-7.47516E-05
410.8159,-7.472147E-05
410.9159,-7.466496E-05
411.0159,-7.473183E-05
411.1159,-7.475725E-05
411.2159,-7.467532E-05
411.3159,-7.46433E-05
411.4159,-7.465555E-05
411.5159,-7.460187E-05
411.6159,-7.459716E-05
411.7159,-7.458397E-05
411.8159,-7.453783E-05
411.9159,-7.455007E-05
412.0159,-7.452087E-05
412.1159,-7.449545E-05
412.2159,-7.447755E-05
412.3159,-7.444365E-05
412.416,-7.442765E-05
412.516,-7.442482E-05
412.616,-7.445495E-05
412.716,-7.440222E-05
412.816,-7.438056E-05
412.916,-7.439375E-05
413.016,-7.43636E-05
413.116,-7.44267E-05
413.216,-7.439375E-05
413.316,-7.429674E-05
413.416,-7.430428E-05
413.516,-7.430993E-05
413.616,-7.425719E-05
413.716,-7.424872E-05
413.816,-7.42214E-05
413.916,-7.421387E-05
414.0161,-7.425248E-05
414.1161,-7.423553E-05
414.2161,-7.414607E-05
414.3161,-7.413665E-05
414.4161,-7.414135E-05
414.5161,-7.409709E-05
414.6161,-7.408203E-05
414.7161,-7.406508E-05
414.8161,-7.400481E-05
414.9161,-7.400481E-05
415.0161,-7.401423E-05
415.1161,-7.394736E-05
415.2161,-7.393888E-05
415.3161,-7.389934E-05
415.4161,-7.387673E-05
415.5161,-7.391252E-05
415.6161,-7.388332E-05
415.7162,-7.382211E-05
415.8162,-7.382588E-05
415.9162,-7.382588E-05
416.0162,-7.379009E-05
416.1162,-7.376279E-05
416.2162,-7.376372E-05
416.3162,-7.377502E-05
416.4162,-7.379292E-05
416.5162,-7.375525E-05
416.6162,-7.371004E-05
416.7162,-7.371287E-05
416.8162,-7.369403E-05
416.9162,-7.365354E-05
417.0162,-7.366201E-05
417.1162,-7.363753E-05
417.2162,-7.356784E-05
417.3163,-7.355843E-05
417.4163,-7.357349E-05
417.5163,-7.357066E-05
417.6163,-7.354713E-05
417.7163,-7.3533E-05
417.8163,-7.348967E-05
417.9163,-7.347273E-05
418.0163,-7.347932E-05
418.1163,-7.345578E-05
418.2163,-7.3436E-05
418.3163,-7.342847E-05
418.4163,-7.33795E-05
418.5163,-7.336443E-05
418.6163,-7.33682E-05
418.7163,-7.338137E-05
418.8163,-7.33456E-05
418.9164,-7.331169E-05
419.0164,-7.33164E-05
419.1164,-7.327874E-05
419.2164,-7.326272E-05
419.3164,-7.328061E-05
419.4164,-7.325613E-05
419.5164,-7.322412E-05
419.6164,-7.319021E-05
419.7164,-7.319963E-05
419.8164,-7.319021E-05
419.9164,-7.320057E-05
420.0164,-7.315725E-05
420.1164,-7.311205E-05
420.2164,-7.311864E-05
420.3164,-7.310168E-05
420.4164,-7.312146E-05
420.5164,-7.306779E-05
420.6165,-7.30546E-05
420.7165,-7.303389E-05
420.8165,-7.302823E-05
420.9165,-7.302353E-05
421.0165,-7.299056E-05
421.1165,-7.298679E-05
421.2165,-7.297738E-05
421.3165,-7.29576E-05
421.4165,-7.2935E-05
421.5165,-7.290863E-05
421.6165,-7.291805E-05
421.7165,-7.288697E-05
421.8165,-7.284741E-05
421.9165,-7.284083E-05
422.0165,-7.284836E-05
422.1165,-7.28267E-05
422.2166,-7.28041E-05
422.3166,-7.27928E-05
422.4166,-7.275325E-05
422.5166,-7.276266E-05
422.6166,-7.277774E-05
422.7166,-7.269957E-05
422.8166,-7.26958E-05
422.9166,-7.272876E-05
423.0166,-7.269203E-05
423.1166,-7.262988E-05
423.2166,-7.266096E-05
423.3166,-7.262328E-05
423.4166,-7.264024E-05
423.5166,-7.261387E-05
423.6166,-7.256584E-05
423.7166,-7.25536E-05
423.8167,-7.257432E-05
423.9167,-7.252064E-05
424.0167,-7.253006E-05
424.1167,-7.257055E-05
424.2167,-7.249898E-05
424.3167,-7.244435E-05
424.4167,-7.246508E-05
424.5167,-7.242552E-05
424.6167,-7.244059E-05
424.7167,-7.242458E-05
424.8167,-7.240292E-05
424.9167,-7.239632E-05
425.0167,-7.237562E-05
425.1167,-7.231627E-05
425.2167,-7.23596E-05
425.3167,-7.234924E-05
425.4167,-7.227955E-05
425.5168,-7.229745E-05
425.6168,-7.235489E-05
425.7168,-7.23596E-05
425.8168,-7.22918E-05
425.9168,-7.226166E-05
426.0168,-7.226637E-05
426.1168,-7.223435E-05
426.2168,-7.223058E-05
426.3168,-7.219198E-05
426.4168,-7.215807E-05
426.5168,-7.217691E-05
426.6168,-7.213077E-05
426.7168,-7.209781E-05
426.8168,-7.210816E-05
426.9168,-7.208461E-05
427.0168,-7.206861E-05
427.1169,-7.207614E-05
427.2169,-7.205825E-05
427.3169,-7.200174E-05
427.4169,-7.207143E-05
427.5169,-7.201964E-05
427.6169,-7.19622E-05
427.7169,-7.19782E-05
427.8169,-7.196314E-05
427.9169,-7.191322E-05
428.0169,-7.191981E-05
428.1169,-7.191981E-05
428.2169,-7.185483E-05
428.3169,-7.186708E-05
428.4169,-7.186519E-05
428.5169,-7.184166E-05
428.6169,-7.183412E-05
428.7169,-7.180492E-05
428.817,-7.177479E-05
428.917,-7.17955E-05
429.017,-7.179927E-05
429.117,-7.175972E-05
429.217,-7.17503E-05
429.317,-7.171357E-05
429.417,-7.171545E-05
429.517,-7.171357E-05
429.617,-7.167309E-05
429.717,-7.164671E-05
429.817,-7.166743E-05
429.917,-7.168061E-05
430.017,-7.160904E-05
430.117,-7.163635E-05
430.217,-7.162034E-05
430.317,-7.158549E-05
430.4171,-7.159115E-05
430.5171,-7.158267E-05
430.6171,-7.153842E-05
430.7171,-7.153842E-05
430.8171,-7.152711E-05
430.9171,-7.14659E-05
431.0171,-7.150357E-05
431.1171,-7.14593E-05
431.2171,-7.143764E-05
431.3171,-7.143294E-05
431.4171,-7.142446E-05
431.5171,-7.137644E-05
431.6171,-7.141222E-05
431.7171,-7.138114E-05
431.8171,-7.133877E-05
431.9171,-7.133782E-05
432.0172,-7.134442E-05
432.1172,-7.131146E-05
432.2172,-7.132934E-05
432.3172,-7.131052E-05
432.4172,-7.12785E-05
432.5172,-7.126248E-05
432.6172,-7.122952E-05
432.7172,-7.123141E-05
432.8172,-7.121822E-05
432.9172,-7.119845E-05
433.0172,-7.122388E-05
433.1172,-7.121822E-05
433.2172,-7.11702E-05
433.3172,-7.110804E-05
433.4172,-7.114476E-05
433.5172,-7.112782E-05
433.6172,-7.109297E-05
433.7173,-7.110333E-05
433.8173,-7.107602E-05
433.9173,-7.104494E-05
434.0173,-7.106567E-05
434.1173,-7.10619E-05
434.2173,-7.099974E-05
434.3173,-7.09715E-05
434.4173,-7.098185E-05
434.5173,-7.092911E-05
434.6173,-7.095548E-05
434.7173,-7.093947E-05
434.8173,-7.087638E-05
434.9173,-7.089144E-05
435.0173,-7.090557E-05
435.1173,-7.088202E-05
435.2173,-7.082269E-05
435.3174,-7.084529E-05
435.4174,-7.07935E-05
435.5174,-7.081045E-05
435.6174,-7.08048E-05
435.7174,-7.076807E-05
435.8174,-7.074924E-05
435.9174,-7.076337E-05
436.0174,-7.0737E-05
436.1174,-7.072193E-05
436.2174,-7.069651E-05
436.3174,-7.06739E-05
436.4174,-7.066261E-05
436.5174,-7.068049E-05
436.6174,-7.064754E-05
436.7174,-7.062116E-05
436.8174,-7.063906E-05
436.9174,-7.06061E-05
437.0175,-7.058726E-05
437.1175,-7.058726E-05
437.2175,-7.057031E-05
437.3175,-7.054018E-05
437.4175,-7.053923E-05
437.5175,-7.052605E-05
437.6175,-7.047708E-05
437.7175,-7.053829E-05
437.8175,-7.050439E-05
437.9175,-7.046106E-05
438.0175,-7.045825E-05
438.1175,-7.045542E-05
438.2175,-7.0446E-05
438.3175,-7.043187E-05
438.4175,-7.039797E-05
438.5175,-7.046578E-05
438.6176,-7.047143E-05
438.7176,-7.040927E-05
438.8176,-7.037631E-05
438.9176,-7.035842E-05
439.0176,-7.035748E-05
439.1176,-7.034429E-05
439.2176,-7.032264E-05
439.3176,-7.027555E-05
439.4176,-7.026048E-05
439.5176,-7.023787E-05
439.6176,-7.022564E-05
439.7176,-7.02021E-05
439.8176,-7.017667E-05
439.9176,-7.020398E-05
440.0176,-7.020021E-05
440.1176,-7.014182E-05
440.2177,-7.013241E-05
440.3177,-7.013524E-05
440.4177,-7.012486E-05
440.5177,-7.010227E-05
440.6177,-7.006743E-05
440.7177,-7.007496E-05
440.8177,-7.007874E-05
440.9177,-7.003918E-05
441.0177,-7.000809E-05
441.1177,-7.00128E-05
441.2177,-7.00015E-05
441.3177,-7.003353E-05
441.4177,-6.996384E-05
441.5177,-6.991863E-05
441.6177,-6.992899E-05
441.7177,-6.993841E-05
441.8177,-6.98885E-05
441.9178,-6.988756E-05
442.0178,-6.98725E-05
442.1178,-6.985555E-05
442.2178,-6.984235E-05
442.3178,-6.984895E-05
442.4178,-6.979716E-05
442.5178,-6.98254E-05
442.6178,-6.980939E-05
442.7178,-6.977267E-05
442.8178,-6.97576E-05
442.9178,-6.97576E-05
443.0178,-6.97171E-05
443.1178,-6.9735E-05
443.2178,-6.969827E-05
443.3178,-6.965495E-05
443.4178,-6.969451E-05
443.5179,-6.968508E-05
443.6179,-6.963329E-05
443.7179,-6.963893E-05
443.8179,-6.9638E-05
443.9179,-6.958714E-05
444.0179,-6.958243E-05
444.1179,-6.955795E-05
444.2179,-6.957867E-05
444.3179,-6.955889E-05
444.4179,-6.954854E-05
444.5179,-6.951086E-05
444.6179,-6.952311E-05
444.7179,-6.951369E-05
444.8179,-6.947132E-05
444.9179,-6.947884E-05
445.0179,-6.946284E-05
445.118,-6.941857E-05
445.218,-6.946095E-05
445.318,-6.941669E-05
445.418,-6.935077E-05
445.518,-6.9428E-05
445.618,-6.943364E-05
445.718,-6.93762E-05
445.818,-6.933288E-05
445.918,-6.936301E-05
446.018,-6.933005E-05
446.118,-6.931311E-05
446.218,-6.932158E-05
446.318,-6.924718E-05
446.418,-6.921704E-05
446.518,-6.925471E-05
446.618,-6.923306E-05
446.718,-6.921798E-05
446.8181,-6.919632E-05
446.9181,-6.917655E-05
447.0181,-6.915489E-05
447.1181,-6.914359E-05
447.2181,-6.915018E-05
447.3181,-6.913793E-05
447.4181,-6.914171E-05
447.5181,-6.908897E-05
447.6181,-6.912193E-05
447.7181,-6.908709E-05
447.8181,-6.904847E-05
447.9181,-6.907673E-05
448.0181,-6.908143E-05
448.1181,-6.901645E-05
448.2181,-6.899668E-05
448.3181,-6.90061E-05
448.4182,-6.898538E-05
448.5182,-6.898255E-05
448.6182,-6.896278E-05
448.7182,-6.89364E-05
448.8182,-6.891946E-05
448.9182,-6.893359E-05
449.0182,-6.889686E-05
449.1182,-6.891003E-05
449.2182,-6.891381E-05
449.3182,-6.886107E-05
449.4182,-6.882528E-05
449.5182,-6.883377E-05
449.6182,-6.881681E-05
449.7182,-6.881775E-05
449.8182,-6.880174E-05
449.9182,-6.876879E-05
450.0182,-6.873959E-05
450.1183,-6.87556E-05
450.2183,-6.879138E-05
450.3183,-6.87264E-05
450.4183,-6.871039E-05
450.5183,-6.871698E-05
450.6183,-6.867178E-05
450.7183,-6.868497E-05
450.8183,-6.86699E-05
450.9183,-6.862187E-05
451.0183,-6.861905E-05
451.1183,-6.863788E-05
451.2183,-6.860303E-05
451.3183,-6.858609E-05
451.4183,-6.85955E-05
451.5183,-6.856819E-05
451.6183,-6.854559E-05
451.7184,-6.85437E-05
451.8184,-6.848438E-05
451.9184,-6.850227E-05
452.0184,-6.850698E-05
452.1184,-6.846648E-05
452.2184,-6.846178E-05
452.3184,-6.844295E-05
452.4184,-6.846554E-05
452.5184,-6.847591E-05
452.6184,-6.84533E-05
452.7184,-6.838078E-05
452.8184,-6.838361E-05
452.9184,-6.838833E-05
453.0184,-6.834029E-05
453.1184,-6.834688E-05
453.2184,-6.833088E-05
453.3185,-6.82885E-05
453.4185,-6.828943E-05
453.5185,-6.829226E-05
453.6185,-6.826966E-05
453.7185,-6.826589E-05
453.8185,-6.825177E-05
453.9185,-6.821221E-05
454.0185,-6.820469E-05
454.1185,-6.82028E-05
454.2185,-6.817831E-05
454.3185,-6.818208E-05
454.4185,-6.817454E-05
454.5185,-6.81284E-05
454.6185,-6.812934E-05
454.7185,-6.811898E-05
454.8185,-6.811145E-05
454.9185,-6.807567E-05
455.0186,-6.81171E-05
455.1186,-6.808697E-05
455.2186,-6.807002E-05
455.3186,-6.805118E-05
455.4186,-6.804177E-05
455.5186,-6.801163E-05
455.6186,-6.801727E-05
455.7186,-6.795795E-05
455.8186,-6.797396E-05
455.9186,-6.792593E-05
456.0186,-6.791934E-05
456.1186,-6.797679E-05
456.2186,-6.797396E-05
456.3186,-6.790239E-05
456.4186,-6.788733E-05
456.5186,-6.789863E-05
456.6187,-6.78619E-05
456.7187,-6.787413E-05
456.8187,-6.783553E-05
456.9187,-6.782139E-05
457.0187,-6.7844E-05
457.1187,-6.782611E-05
457.2187,-6.77423E-05
457.3187,-6.775359E-05
457.4187,-6.777055E-05
457.5187,-6.773287E-05
457.6187,-6.773099E-05
457.7187,-6.775359E-05
457.8187,-6.767637E-05
457.9187,-6.771781E-05
458.0187,-6.769615E-05
458.1187,-6.767825E-05
458.2188,-6.763964E-05
458.3188,-6.764247E-05
458.4188,-6.763494E-05
458.5188,-6.763023E-05
458.6188,-6.761515E-05
458.7188,-6.759538E-05
458.8188,-6.761515E-05
458.9188,-6.756902E-05
459.0188,-6.753134E-05
459.1188,-6.756243E-05
459.2188,-6.756148E-05
459.3188,-6.750497E-05
459.4188,-6.752758E-05
459.5188,-6.74852E-05
459.6188,-6.750686E-05
459.7188,-6.751345E-05
459.8188,-6.746448E-05
459.9189,-6.744471E-05
460.0189,-6.741739E-05
460.1189,-6.742493E-05
460.2189,-6.740516E-05
460.3189,-6.741269E-05
460.4189,-6.740704E-05
460.5189,-6.734394E-05
460.6189,-6.737219E-05
460.7189,-6.73496E-05
460.8189,-6.729874E-05
460.9189,-6.735242E-05
461.0189,-6.732323E-05
461.1189,-6.729121E-05
461.2189,-6.725824E-05
461.3189,-6.730628E-05
461.4189,-6.726389E-05
461.519,-6.725259E-05
461.619,-6.724694E-05
461.719,-6.721963E-05
461.819,-6.722057E-05
461.919,-6.719044E-05
462.019,-6.715747E-05
462.119,-6.718573E-05
462.219,-6.71603E-05
462.319,-6.714995E-05
462.419,-6.712734E-05
462.519,-6.710475E-05
462.619,-6.710004E-05
462.719,-6.709061E-05
462.819,-6.709721E-05
462.919,-6.705672E-05
463.019,-6.70134E-05
463.119,-6.70746E-05
463.2191,-6.707084E-05
463.3191,-6.700492E-05
463.4191,-6.701528E-05
463.5191,-6.700963E-05
463.6191,-6.694371E-05
463.7191,-6.696819E-05
463.8191,-6.697855E-05
463.9191,-6.696819E-05
464.0191,-6.694276E-05
464.1191,-6.691075E-05
464.2191,-6.691734E-05
464.3191,-6.689473E-05
464.4191,-6.692392E-05
464.5191,-6.686931E-05
464.6191,-6.685989E-05
464.7191,-6.683823E-05
464.8192,-6.684012E-05
464.9192,-6.687779E-05
465.0192,-6.682787E-05
465.1192,-6.678926E-05
465.2192,-6.680904E-05
465.3192,-6.682975E-05
465.4192,-6.675725E-05
465.5192,-6.674499E-05
465.6192,-6.674499E-05
465.7192,-6.670263E-05
465.8192,-6.673559E-05
465.9192,-6.673276E-05
466.0192,-6.666872E-05
466.1192,-6.666872E-05
466.2192,-6.665742E-05
466.3192,-6.661692E-05
466.4193,-6.665177E-05
466.5193,-6.664235E-05
466.6193,-6.658302E-05
466.7193,-6.661599E-05
466.8193,-6.660939E-05
466.9193,-6.656325E-05
467.0193,-6.659526E-05
467.1193,-6.657549E-05
467.2193,-6.655571E-05
467.3193,-6.653782E-05
467.4193,-6.65218E-05
467.5193,-6.649733E-05
467.6193,-6.652275E-05
467.7193,-6.650298E-05
467.8193,-6.645118E-05
467.9193,-6.648414E-05
468.0193,-6.646437E-05
468.1194,-6.641445E-05
468.2194,-6.643046E-05
468.3194,-6.644742E-05
468.4194,-6.639845E-05
468.5194,-6.638714E-05
468.6194,-6.638902E-05
468.7194,-6.63523E-05
468.8194,-6.638337E-05
468.9194,-6.636926E-05
469.0194,-6.632499E-05
469.1194,-6.632122E-05
469.2194,-6.632875E-05
469.3194,-6.629109E-05
469.4194,-6.63005E-05
469.5194,-6.629674E-05
469.6194,-6.625436E-05
469.7195,-6.625813E-05
469.8195,-6.62487E-05
469.9195,-6.622611E-05
470.0195,-6.624023E-05
470.1195,-6.621952E-05
470.2195,-6.61922E-05
470.3195,-6.618373E-05
470.4195,-6.616489E-05
470.5195,-6.616395E-05
470.6195,-6.617337E-05
470.7195,-6.615923E-05
470.8195,-6.610556E-05
470.9195,-6.612063E-05
471.0195,-6.613099E-05
471.1195,-6.609144E-05
471.2195,-6.608485E-05
471.3195,-6.605565E-05
471.4196,-6.605094E-05
471.5196,-6.604718E-05
471.6196,-6.60387E-05
471.7196,-6.60095E-05
471.8196,-6.601516E-05
471.9196,-6.60208E-05
472.0196,-6.597749E-05
472.1196,-6.597937E-05
472.2196,-6.59643E-05
472.3196,-6.594547E-05
472.4196,-6.595018E-05
472.5196,-6.593888E-05
472.6196,-6.589838E-05
472.7196,-6.588897E-05
472.8196,-6.587578E-05
472.9196,-6.588425E-05
473.0197,-6.588049E-05
473.1197,-6.58626E-05
473.2197,-6.586354E-05
473.3197,-6.586354E-05
473.4197,-6.58447E-05
473.5197,-6.580892E-05
473.6197,-6.58287E-05
473.7197,-6.578726E-05
473.8197,-6.577219E-05
473.9197,-6.576465E-05
474.0197,-6.576371E-05
474.1197,-6.572134E-05
474.2197,-6.576371E-05
474.3197,-6.572134E-05
474.4197,-6.567708E-05
474.5197,-6.569592E-05
474.6198,-6.568743E-05
474.7198,-6.566954E-05
474.8198,-6.566107E-05
474.9198,-6.566389E-05
475.0198,-6.561398E-05
475.1198,-6.563941E-05
475.2198,-6.565164E-05
475.3198,-6.561398E-05
475.4198,-6.563282E-05
475.5198,-6.559985E-05
475.6198,-6.556501E-05
475.7198,-6.556595E-05
475.8198,-6.558008E-05
475.9198,-6.554523E-05
476.0198,-6.553205E-05
476.1198,-6.551227E-05
476.2198,-6.550097E-05
476.3199,-6.55085E-05
476.4199,-6.552735E-05
476.5199,-6.54633E-05
476.6199,-6.546048E-05
476.7199,-6.546519E-05
476.8199,-6.544541E-05
476.9199,-6.544635E-05
477.0199,-6.541716E-05
477.1199,-6.537572E-05
477.2199,-6.536913E-05
477.3199,-6.540491E-05
477.4199,-6.533993E-05
477.5199,-6.534652E-05
477.6199,-6.535123E-05
477.7199,-6.530227E-05
477.8199,-6.534465E-05
477.92,-6.530603E-05
478.02,-6.527967E-05
478.12,-6.529097E-05
478.22,-6.528344E-05
478.32,-6.527025E-05
478.42,-6.522599E-05
478.52,-6.531168E-05
478.62,-6.524294E-05
478.72,-6.521281E-05
478.82,-6.525424E-05
478.92,-6.520809E-05
479.02,-6.51902E-05
479.12,-6.521375E-05
479.22,-6.513276E-05
479.32,-6.509037E-05
479.42,-6.520903E-05
479.5201,-6.521186E-05
479.6201,-6.510921E-05
479.7201,-6.510168E-05
479.8201,-6.512051E-05
479.9201,-6.507814E-05
480.0201,-6.507248E-05
480.1201,-6.50706E-05
480.2201,-6.501975E-05
480.3201,-6.502635E-05
480.4201,-6.500468E-05
480.5201,-6.495948E-05
480.6201,-6.50075E-05
480.7201,-6.504988E-05
480.8201,-6.496136E-05
480.9201,-6.497455E-05
481.0201,-6.49736E-05
481.1201,-6.49397E-05
481.2202,-6.496325E-05
481.3202,-6.493876E-05
481.4202,-6.487378E-05
481.5202,-6.489827E-05
481.6202,-6.491615E-05
481.7202,-6.485495E-05
481.8202,-6.483799E-05
481.9202,-6.483799E-05
482.0202,-6.484648E-05
482.1202,-6.484364E-05
482.2202,-6.481256E-05
482.3202,-6.477584E-05
482.4202,-6.481539E-05
482.5202,-6.480409E-05
482.6202,-6.474006E-05
482.7202,-6.473251E-05
482.8203,-6.471651E-05
482.9203,-6.467695E-05
483.0203,-6.469862E-05
483.1203,-6.470804E-05
483.2203,-6.468073E-05
483.3203,-6.472028E-05
483.4203,-6.468544E-05
483.5203,-6.461103E-05
483.6203,-6.467601E-05
483.7203,-6.462987E-05
483.8203,-6.457431E-05
483.9203,-6.461574E-05
484.0203,-6.460915E-05
484.1203,-6.45583E-05
484.2203,-6.453005E-05
484.3203,-6.454701E-05
484.4203,-6.449897E-05
484.5204,-6.449991E-05
484.6204,-6.453193E-05
484.7204,-6.448296E-05
484.8204,-6.448202E-05
484.9204,-6.448391E-05
485.0204,-6.442646E-05
485.1204,-6.442363E-05
485.2204,-6.441327E-05
485.3204,-6.441045E-05
485.4204,-6.440856E-05
485.5204,-6.439821E-05
485.6204,-6.438784E-05
485.7204,-6.435488E-05
485.8204,-6.435772E-05
485.9204,-6.433511E-05
486.0204,-6.43191E-05
486.1205,-6.431628E-05
486.2205,-6.428331E-05
486.3205,-6.433134E-05
486.4205,-6.428048E-05
486.5205,-6.426637E-05
486.6205,-6.42626E-05
486.7205,-6.427013E-05
486.8205,-6.425317E-05
486.9205,-6.422492E-05
487.0205,-6.423152E-05
487.1205,-6.421645E-05
487.2205,-6.42061E-05
487.3205,-6.418444E-05
487.4205,-6.417219E-05
487.5205,-6.41995E-05
487.6205,-6.414205E-05
487.7206,-6.415147E-05
487.8206,-6.41543E-05
487.9206,-6.414771E-05
488.0206,-6.409685E-05
488.1206,-6.410156E-05
488.2206,-6.41025E-05
488.3206,-6.408273E-05
488.4206,-6.408554E-05
488.5206,-6.4046E-05
488.6206,-6.401492E-05
488.7206,-6.401116E-05
488.8206,-6.408554E-05
488.9206,-6.409497E-05
489.0206,-6.399609E-05
489.1206,-6.399985E-05
489.2206,-6.401681E-05
489.3206,-6.398385E-05
489.4207,-6.398572E-05
489.5207,-6.397442E-05
489.6207,-6.391039E-05
489.7207,-6.394146E-05
489.8207,-6.395842E-05
489.9207,-6.39085E-05
490.0207,-6.391039E-05
490.1207,-6.389721E-05
490.2207,-6.390662E-05
490.3207,-6.390286E-05
490.4207,-6.389438E-05
490.5207,-6.38341E-05
490.6207,-6.386519E-05
490.7207,-6.384353E-05
490.8207,-6.383222E-05
490.9207,-6.38407E-05
491.0208,-6.380209E-05
491.1208,-6.379173E-05
491.2208,-6.38228E-05
491.3208,-6.381528E-05
491.4208,-6.376724E-05
491.5208,-6.377007E-05
491.6208,-6.376724E-05
491.7208,-6.37663E-05
491.8208,-6.375783E-05
491.9208,-6.374747E-05
492.0208,-6.372393E-05
492.1208,-6.370698E-05
492.2208,-6.370038E-05
492.3208,-6.369191E-05
492.4208,-6.368249E-05
492.5208,-6.366365E-05
492.6208,-6.3658E-05
492.7209,-6.36354E-05
492.8209,-6.36533E-05
492.9209,-6.363822E-05
493.0209,-6.363352E-05
493.1209,-6.360433E-05
493.2209,-6.359773E-05
493.3209,-6.360526E-05
493.4209,-6.360244E-05
493.5209,-6.357795E-05
493.6209,-6.356665E-05
493.7209,-6.355724E-05
493.8209,-6.357701E-05
493.9209,-6.354877E-05
494.0209,-6.353558E-05
494.1209,-6.351109E-05
494.2209,-6.353747E-05
494.321,-6.356007E-05
494.421,-6.348002E-05
494.521,-6.34932E-05
494.621,-6.348567E-05
494.721,-6.34593E-05
494.821,-6.347532E-05
494.921,-6.34593E-05
495.021,-6.341787E-05
495.121,-6.34141E-05
495.221,-6.341975E-05
495.321,-6.341692E-05
495.421,-6.34301E-05
495.521,-6.340562E-05
495.621,-6.336419E-05
495.721,-6.336419E-05
495.821,-6.338207E-05
495.9211,-6.333688E-05
496.0211,-6.335854E-05
496.1211,-6.334346E-05
496.2211,-6.332745E-05
496.3211,-6.334441E-05
496.4211,-6.331051E-05
496.5211,-6.330485E-05
496.6211,-6.327283E-05
496.7211,-6.328696E-05
496.8211,-6.329449E-05
496.9211,-6.326624E-05
497.0211,-6.325777E-05
497.1211,-6.323987E-05
497.2211,-6.323517E-05
497.3211,-6.325589E-05
497.4211,-6.322669E-05
497.5211,-6.321445E-05
497.6212,-6.318997E-05
497.7212,-6.319751E-05
497.8212,-6.320127E-05
497.9212,-6.315229E-05
498.0212,-6.315606E-05
498.1212,-6.316266E-05
498.2212,-6.31636E-05
498.3212,-6.316171E-05
498.4212,-6.317961E-05
498.5212,-6.314005E-05
498.6212,-6.311086E-05
498.7212,-6.314571E-05
498.8212,-6.310238E-05
498.9212,-6.306848E-05
499.0212,-6.309296E-05
499.1212,-6.308166E-05
499.2213,-6.305718E-05
499.3213,-6.305247E-05
499.4213,-6.305059E-05
499.5213,-6.303552E-05
499.6213,-6.303552E-05
499.7213,-6.299219E-05
499.8213,-6.298843E-05
499.9213,-6.301104E-05
500.0213,-6.298467E-05
500.1213,-6.296018E-05
500.2213,-6.295642E-05
500.3213,-6.294794E-05
500.4213,-6.294888E-05
500.5213,-6.296583E-05
500.6213,-6.291592E-05
500.7213,-6.292816E-05
500.8214,-6.290462E-05
500.9214,-6.29065E-05
501.0214,-6.289426E-05
501.1214,-6.290085E-05
501.2214,-6.286977E-05
501.3214,-6.284529E-05
501.4214,-6.288107E-05
501.5214,-6.284624E-05
501.6214,-6.283494E-05
501.7214,-6.281421E-05
501.8214,-6.280668E-05
501.9214,-6.280668E-05
502.0214,-6.281327E-05
502.1214,-6.278219E-05
502.2214,-6.277466E-05
502.3214,-6.277655E-05
502.4214,-6.276242E-05
502.5215,-6.277466E-05
502.6215,-6.273793E-05
502.7215,-6.27351E-05
502.8215,-6.272098E-05
502.9215,-6.269744E-05
503.0215,-6.268708E-05
503.1215,-6.272098E-05
503.2215,-6.268897E-05
503.3215,-6.266636E-05
503.4215,-6.26626E-05
503.5215,-6.267201E-05
503.6215,-6.267013E-05
503.7215,-6.264941E-05
503.8215,-6.263152E-05
503.9215,-6.261739E-05
504.0215,-6.263058E-05
504.1216,-6.259008E-05
504.2216,-6.254677E-05
504.3216,-6.260609E-05
504.4216,-6.26108E-05
504.5216,-6.260703E-05
504.6216,-6.254583E-05
504.7216,-6.254017E-05
504.8216,-6.254299E-05
504.9216,-6.252699E-05
505.0216,-6.253357E-05
505.1216,-6.251004E-05
505.2216,-6.248744E-05
505.3216,-6.251569E-05
505.4216,-6.247613E-05
505.5216,-6.245165E-05
505.6216,-6.244505E-05
505.7216,-6.246012E-05
505.8217,-6.246106E-05
505.9217,-6.244223E-05
506.0217,-6.244976E-05
506.1217,-6.241586E-05
506.2217,-6.243093E-05
506.3217,-6.241492E-05
506.4217,-6.23989E-05
506.5217,-6.237254E-05
506.6217,-6.235936E-05
506.7217,-6.23782E-05
506.8217,-6.23377E-05
506.9217,-6.231792E-05
507.0217,-6.231415E-05
507.1217,-6.230097E-05
507.2217,-6.231415E-05
507.3217,-6.228872E-05
507.4218,-6.228685E-05
507.5218,-6.226989E-05
507.6218,-6.223599E-05
507.7218,-6.227648E-05
507.8218,-6.224729E-05
507.9218,-6.223222E-05
508.0218,-6.222846E-05
508.1218,-6.21889E-05
508.2218,-6.21955E-05
508.3218,-6.220491E-05
508.4218,-6.219738E-05
508.5218,-6.21503E-05
508.6218,-6.216065E-05
508.7218,-6.217477E-05
508.8218,-6.213711E-05
508.9218,-6.213993E-05
509.0219,-6.212769E-05
509.1219,-6.210509E-05
509.2219,-6.211074E-05
509.3219,-6.209473E-05
509.4219,-6.207024E-05
509.5219,-6.208719E-05
509.6219,-6.204576E-05
509.7219,-6.207024E-05
509.8219,-6.208626E-05
509.9219,-6.203257E-05
510.0219,-6.200244E-05
510.1219,-6.203823E-05
510.2219,-6.202034E-05
510.3219,-6.202787E-05
510.4219,-6.204293E-05
510.5219,-6.198549E-05
510.6219,-6.196571E-05
510.722,-6.196288E-05
510.822,-6.19902E-05
510.922,-6.192616E-05
511.022,-6.193275E-05
511.122,-6.192616E-05
511.222,-6.189414E-05
511.322,-6.191862E-05
511.422,-6.192805E-05
511.522,-6.186118E-05
511.622,-6.189508E-05
511.722,-6.189414E-05
511.822,-6.185742E-05
511.922,-6.188096E-05
512.022,-6.185364E-05
512.122,-6.182257E-05
512.222,-6.182445E-05
512.322,-6.181221E-05
512.4219,-6.17962E-05
512.5219,-6.180845E-05
512.6219,-6.179338E-05
512.7219,-6.175665E-05
512.8218,-6.17962E-05
512.9218,-6.177925E-05
513.0218,-6.171427E-05
513.1218,-6.172275E-05
513.2217,-6.173123E-05
513.3217,-6.174158E-05
513.4217,-6.169355E-05
513.5217,-6.17331E-05
513.6216,-6.170768E-05
513.7216,-6.169355E-05
513.8216,-6.168414E-05
513.9216,-6.163799E-05
514.0215,-6.169637E-05
514.1215,-6.167284E-05
514.2215,-6.158996E-05
514.3215,-6.168037E-05
514.4214,-6.168414E-05
514.5214,-6.167849E-05
514.6214,-6.161915E-05
514.7214,-6.158902E-05
514.8214,-6.159467E-05
514.9213,-6.158337E-05
515.0213,-6.158431E-05
515.1213,-6.154005E-05
515.2213,-6.154287E-05
515.3212,-6.153251E-05
515.4212,-6.153534E-05
515.5212,-6.155229E-05
515.6212,-6.150897E-05
515.7211,-6.148449E-05
515.8211,-6.14779E-05
515.9211,-6.149673E-05
516.0211,-6.15005E-05
516.121,-6.146471E-05
516.221,-6.146565E-05
516.321,-6.145059E-05
516.421,-6.144871E-05
516.5209,-6.146283E-05
516.6209,-6.14148E-05
516.7209,-6.141292E-05
516.8209,-6.139973E-05
516.9208,-6.138466E-05
517.0208,-6.139973E-05
517.1208,-6.135453E-05
517.2208,-6.134888E-05
517.3207,-6.133946E-05
517.4207,-6.134323E-05
517.5207,-6.13244E-05
517.6207,-6.130839E-05
517.7206,-6.13065E-05
517.8206,-6.131121E-05
517.9206,-6.131498E-05
518.0206,-6.128672E-05
518.1205,-6.12839E-05
518.2205,-6.13291E-05
518.3205,-6.133004E-05
518.4205,-6.125565E-05
518.5204,-6.12387E-05
518.6204,-6.127166E-05
518.7204,-6.126318E-05
518.8204,-6.125942E-05
518.9203,-6.123305E-05
519.0203,-6.120573E-05
519.1203,-6.120103E-05
519.2203,-6.120668E-05
519.3203,-6.118784E-05
519.4202,-6.115865E-05
519.5202,-6.118596E-05
519.6202,-6.122928E-05
519.7202,-6.116901E-05
519.8201,-6.113699E-05
519.9201,-6.116054E-05
520.0201,-6.112946E-05
520.1201,-6.116618E-05
520.22,-6.113887E-05
520.32,-6.10786E-05
520.42,-6.110308E-05
520.52,-6.112946E-05
520.6199,-6.108049E-05
520.7199,-6.105223E-05
520.8199,-6.106636E-05
520.9199,-6.106353E-05
521.0198,-6.106824E-05
521.1198,-6.101551E-05
521.2198,-6.099197E-05
521.3198,-6.102492E-05
521.4197,-6.102398E-05
521.5197,-6.095523E-05
521.6197,-6.098725E-05
521.7197,-6.099479E-05
521.8196,-6.096842E-05
521.9196,-6.096842E-05
522.0196,-6.099008E-05
522.1196,-6.097219E-05
522.2195,-6.096654E-05
522.3195,-6.097124E-05
522.4195,-6.092039E-05
522.5195,-6.090438E-05
522.6194,-6.091662E-05
522.7194,-6.088366E-05
522.8194,-6.089308E-05
522.9194,-6.089214E-05
523.0193,-6.08394E-05
523.1193,-6.084976E-05
523.2193,-6.089119E-05
523.3193,-6.082057E-05
523.4193,-6.083375E-05
523.5192,-6.082904E-05
523.6192,-6.081398E-05
523.7192,-6.080738E-05
523.8192,-6.08168E-05
523.9191,-6.081962E-05
524.0191,-6.077819E-05
524.1191,-6.078007E-05
524.2191,-6.077254E-05
524.319,-6.074052E-05
524.419,-6.076312E-05
524.519,-6.071886E-05
524.619,-6.074147E-05
524.7189,-6.075747E-05
524.8189,-6.06859E-05
524.9189,-6.072263E-05
525.0189,-6.071509E-05
525.1188,-6.069061E-05
525.2188,-6.070379E-05
525.3188,-6.069909E-05
525.4188,-6.064069E-05
525.5187,-6.065105E-05
525.6187,-6.066707E-05
525.7187,-6.063505E-05
525.8187,-6.063505E-05
525.9186,-6.063787E-05
526.0186,-6.057289E-05
526.1186,-6.066518E-05
526.2186,-6.061715E-05
526.3185,-6.057195E-05
526.4185,-6.059173E-05
526.5185,-6.058608E-05
526.6185,-6.059361E-05
526.7184,-6.053334E-05
526.8184,-6.058137E-05
526.9184,-6.053805E-05
527.0184,-6.052298E-05
527.1183,-6.053052E-05
527.2183,-6.051827E-05
527.3183,-6.053899E-05
527.4183,-6.050697E-05
527.5182,-6.047778E-05
527.6182,-6.050132E-05
527.7182,-6.05098E-05
527.8182,-6.045894E-05
527.9182,-6.043728E-05
528.0181,-6.045235E-05
528.1181,-6.044953E-05
528.2181,-6.044859E-05
528.3181,-6.043258E-05
528.418,-6.040055E-05
528.518,-6.040526E-05
528.618,-6.040432E-05
528.718,-6.036854E-05
528.8179,-6.035441E-05
528.9179,-6.035724E-05
529.0179,-6.038078E-05
529.1179,-6.034876E-05
529.2178,-6.03723E-05
529.3178,-6.034311E-05
529.4178,-6.030733E-05
529.5178,-6.035724E-05
529.6177,-6.031486E-05
529.7177,-6.031015E-05
529.8177,-6.032522E-05
529.9177,-6.031392E-05
530.0176,-6.029791E-05
530.1176,-6.031674E-05
530.2176,-6.028378E-05
530.3176,-6.025741E-05
530.4175,-6.02593E-05
530.5175,-6.025082E-05
530.6175,-6.022822E-05
530.7175,-6.025082E-05
530.8174,-6.024517E-05
530.9174,-6.018678E-05
531.0174,-6.020656E-05
531.1174,-6.021409E-05
531.2173,-6.01736E-05
531.3173,-6.019714E-05
531.4173,-6.017548E-05
531.5173,-6.013781E-05
531.6172,-6.014158E-05
531.7172,-6.018678E-05
531.8172,-6.013216E-05
531.9172,-6.012557E-05
532.0172,-6.012369E-05
532.1171,-6.015006E-05
532.2171,-6.01331E-05
532.3171,-6.009544E-05
532.4171,-6.008131E-05
532.517,-6.008414E-05
532.617,-6.009826E-05
532.717,-6.007095E-05
532.817,-6.006436E-05
532.9169,-6.003987E-05
533.0169,-6.004081E-05
533.1169,-6.00474E-05
533.2169,-6.004458E-05
533.3168,-6.000315E-05
533.4168,-6.000315E-05
533.5168,-5.999278E-05
533.6168,-6.000126E-05
533.7167,-6.001256E-05
533.8167,-5.998148E-05
533.9167,-5.994005E-05
534.0167,-5.996077E-05
534.1166,-5.995135E-05
534.2166,-5.991933E-05
534.3166,-5.994758E-05
534.4166,-5.993816E-05
534.5165,-5.990615E-05
534.6165,-5.99052E-05
534.7165,-5.990332E-05
534.8165,-5.987413E-05
534.9164,-5.988825E-05
535.0164,-5.989108E-05
535.1164,-5.985153E-05
535.2164,-5.984211E-05
535.3163,-5.986094E-05
535.4163,-5.983175E-05
535.5163,-5.983552E-05
535.6163,-5.983834E-05
535.7162,-5.98035E-05
535.8162,-5.979784E-05
535.9162,-5.981857E-05
536.0162,-5.980632E-05
536.1161,-5.980162E-05
536.2161,-5.977242E-05
536.3161,-5.974605E-05
536.4161,-5.976583E-05
536.5161,-5.978937E-05
536.616,-5.974793E-05
536.716,-5.974417E-05
536.816,-5.973193E-05
536.916,-5.972345E-05
537.0159,-5.973287E-05
537.1159,-5.972439E-05
537.2159,-5.967448E-05
537.3159,-5.968296E-05
537.4158,-5.970085E-05
537.5158,-5.968672E-05
537.6158,-5.964058E-05
537.7158,-5.965094E-05
537.8157,-5.96613E-05
537.9157,-5.965565E-05
538.0157,-5.962739E-05
538.1157,-5.96321E-05
538.2156,-5.961892E-05
538.3156,-5.963963E-05
538.4156,-5.958973E-05
538.5156,-5.95982E-05
538.6155,-5.961515E-05
538.7155,-5.958125E-05
538.8155,-5.957372E-05
538.9155,-5.957466E-05
539.0154,-5.953322E-05
539.1154,-5.955677E-05
539.2154,-5.957654E-05
539.3154,-5.955017E-05
539.4153,-5.952098E-05
539.5153,-5.954546E-05
539.6153,-5.951344E-05
539.7153,-5.953322E-05
539.8152,-5.953887E-05
539.9152,-5.947766E-05
540.0152,-5.947107E-05
540.1152,-5.951156E-05
540.2151,-5.946918E-05
540.3151,-5.947766E-05
540.4151,-5.950403E-05
540.5151,-5.943339E-05
540.6151,-5.944941E-05
540.715,-5.946542E-05
540.815,-5.942304E-05
540.915,-5.940514E-05
541.015,-5.943717E-05
541.1149,-5.941268E-05
541.2149,-5.938819E-05
541.3149,-5.941644E-05
541.4149,-5.940609E-05
541.5148,-5.936182E-05
541.6148,-5.937219E-05
541.7148,-5.937219E-05
541.8148,-5.935429E-05
541.9147,-5.937878E-05
542.0147,-5.933169E-05
542.1147,-5.931191E-05
542.2147,-5.931756E-05
542.3146,-5.932039E-05
542.4146,-5.930721E-05
542.5146,-5.928931E-05
542.6146,-5.930344E-05
542.7145,-5.92733E-05
542.8145,-5.927142E-05
542.9145,-5.927424E-05
543.0145,-5.926012E-05
543.1144,-5.926389E-05
543.2144,-5.923752E-05
543.3144,-5.922528E-05
543.4144,-5.921115E-05
543.5143,-5.922904E-05
543.6143,-5.921963E-05
543.7143,-5.920832E-05
543.8143,-5.919325E-05
543.9142,-5.916877E-05
544.0142,-5.918855E-05
544.1142,-5.916594E-05
544.2142,-5.919891E-05
544.3141,-5.918572E-05
544.4141,-5.913675E-05
544.5141,-5.916312E-05
544.6141,-5.91311E-05
544.7141,-5.913016E-05
544.814,-5.914146E-05
544.914,-5.913298E-05
545.014,-5.90972E-05
545.114,-5.910944E-05
545.2139,-5.910473E-05
545.3139,-5.909343E-05
545.4139,-5.910662E-05
545.5139,-5.908496E-05
545.6138,-5.905482E-05
545.7138,-5.90746E-05
545.8138,-5.907178E-05
545.9138,-5.905293E-05
546.0137,-5.903881E-05
546.1137,-5.90228E-05
546.2137,-5.901904E-05
546.3137,-5.901527E-05
546.4136,-5.903599E-05
546.5136,-5.900774E-05
546.6136,-5.898419E-05
546.7136,-5.899549E-05
546.8135,-5.898042E-05
546.9135,-5.897948E-05
547.0135,-5.899643E-05
547.1135,-5.894652E-05
547.2134,-5.893805E-05
547.3134,-5.896159E-05
547.4134,-5.893616E-05
547.5134,-5.890603E-05
547.6133,-5.893145E-05
547.7133,-5.893522E-05
547.8133,-5.892016E-05
547.9133,-5.893616E-05
548.0132,-5.89258E-05
548.1132,-5.890603E-05
548.2132,-5.896253E-05
548.3132,-5.890979E-05
548.4131,-5.885989E-05
548.5131,-5.889755E-05
548.6131,-5.888625E-05
548.7131,-5.885517E-05
548.813,-5.887118E-05
548.913,-5.883163E-05
549.013,-5.881374E-05
549.113,-5.88354E-05
549.213,-5.882881E-05
549.3129,-5.878455E-05
549.4129,-5.878925E-05
549.5129,-5.878737E-05
549.6129,-5.876665E-05
549.7128,-5.878737E-05
549.8128,-5.878172E-05
549.9128,-5.874499E-05
550.0128,-5.876571E-05
550.1127,-5.873275E-05
550.2127,-5.873746E-05
550.3127,-5.873558E-05
550.4127,-5.873086E-05
550.5126,-5.871109E-05
550.6126,-5.871015E-05
550.7126,-5.871674E-05
550.8126,-5.870826E-05
550.9125,-5.870073E-05
551.0125,-5.868095E-05
551.1125,-5.866871E-05
551.2125,-5.870073E-05
551.3124,-5.865741E-05
551.4124,-5.861785E-05
551.5124,-5.872051E-05
551.6124,-5.873181E-05
551.7123,-5.864328E-05
551.8123,-5.862163E-05
551.9123,-5.864988E-05
552.0123,-5.859997E-05
552.1122,-5.862633E-05
552.2122,-5.865364E-05
552.3122,-5.859526E-05
552.4122,-5.85849E-05
552.5121,-5.859714E-05
552.6121,-5.858019E-05
552.7121,-5.857925E-05
552.8121,-5.855664E-05
552.912,-5.85331E-05
553.012,-5.856041E-05
553.112,-5.856983E-05
553.212,-5.853875E-05
553.312,-5.85284E-05
553.4119,-5.851427E-05
553.5119,-5.852933E-05
553.6119,-5.854911E-05
553.7119,-5.850956E-05
553.8118,-5.849167E-05
553.9118,-5.848413E-05
554.0118,-5.847471E-05
554.1118,-5.848884E-05
554.2117,-5.846812E-05
554.3117,-5.845682E-05
554.4117,-5.845117E-05
554.5117,-5.844364E-05
554.6116,-5.845588E-05
554.7116,-5.84427E-05
554.8116,-5.840879E-05
554.9116,-5.839749E-05
555.0115,-5.843234E-05
555.1115,-5.841539E-05
555.2115,-5.838996E-05
555.3115,-5.839749E-05
555.4114,-5.840032E-05
555.5114,-5.836642E-05
555.6114,-5.838808E-05
555.7114,-5.839749E-05
555.8113,-5.83344E-05
555.9113,-5.835417E-05
556.0113,-5.836924E-05
556.1113,-5.835323E-05
556.2112,-5.834193E-05
556.3112,-5.833157E-05
556.4112,-5.837583E-05
556.5112,-5.834382E-05
556.6111,-5.834382E-05
556.7111,-5.832592E-05
556.8111,-5.831933E-05
556.9111,-5.831274E-05
557.011,-5.829956E-05
557.111,-5.828543E-05
557.211,-5.828072E-05
557.311,-5.827883E-05
557.4109,-5.828731E-05
557.5109,-5.825624E-05
557.6109,-5.825435E-05
557.7109,-5.824022E-05
557.8109,-5.82374E-05
557.9108,-5.824682E-05
558.0108,-5.824305E-05
558.1108,-5.821292E-05
558.2108,-5.820726E-05
558.3107,-5.819502E-05
558.4107,-5.821197E-05
558.5107,-5.818467E-05
558.6107,-5.818278E-05
558.7106,-5.818843E-05
558.8106,-5.815924E-05
558.9106,-5.817713E-05
559.0106,-5.817713E-05
559.1105,-5.813663E-05
559.2105,-5.812721E-05
559.3105,-5.815735E-05
559.4105,-5.81517E-05
559.5104,-5.813004E-05
559.6104,-5.813193E-05
559.7104,-5.813098E-05
559.8104,-5.811686E-05
559.9103,-5.815264E-05
560.0103,-5.814134E-05
560.1103,-5.810462E-05
560.2103,-5.812251E-05
560.3102,-5.812627E-05
560.4102,-5.806224E-05
560.5102,-5.808484E-05
560.6102,-5.81065E-05
560.7101,-5.804717E-05
560.8101,-5.804529E-05
560.9101,-5.80321E-05
561.0101,-5.801609E-05
561.11,-5.802363E-05
561.21,-5.802739E-05
561.31,-5.799914E-05
561.41,-5.799349E-05
561.5099,-5.802928E-05
561.6099,-5.800197E-05
561.7099,-5.79756E-05
561.8099,-5.797842E-05
561.9099,-5.798501E-05
562.0098,-5.797936E-05
562.1098,-5.795959E-05
562.2098,-5.79464E-05
562.3098,-5.795582E-05
562.4097,-5.796242E-05
562.5097,-5.790214E-05
562.6097,-5.792851E-05
562.7097,-5.792945E-05
562.8096,-5.790874E-05
562.9096,-5.790967E-05
563.0096,-5.791062E-05
563.1096,-5.786353E-05
563.2095,-5.79125E-05
563.3095,-5.787672E-05
563.4095,-5.786259E-05
563.5095,-5.788048E-05
563.6094,-5.785223E-05
563.7094,-5.783905E-05
563.8094,-5.785223E-05
563.9094,-5.783716E-05
564.0093,-5.784847E-05
564.1093,-5.78381E-05
564.2093,-5.781927E-05
564.3093,-5.777972E-05
564.4092,-5.782492E-05
564.5092,-5.784281E-05
564.6092,-5.777312E-05
564.7092,-5.78042E-05
564.8091,-5.77769E-05
564.9091,-5.775335E-05
565.0091,-5.778349E-05
565.1091,-5.779667E-05
565.209,-5.774864E-05
565.309,-5.775241E-05
565.409,-5.780044E-05
565.509,-5.773828E-05
565.6089,-5.772133E-05
565.7089,-5.774487E-05
565.8089,-5.772792E-05
565.9089,-5.771756E-05
566.0089,-5.771568E-05
566.1088,-5.767612E-05
566.2088,-5.767707E-05
566.3088,-5.772227E-05
566.4088,-5.770626E-05
566.5087,-5.767518E-05
566.6087,-5.770721E-05
566.7087,-5.771097E-05
566.8087,-5.76394E-05
566.9086,-5.766294E-05
567.0086,-5.770815E-05
567.1086,-5.764034E-05
567.2086,-5.764882E-05
567.3085,-5.759985E-05
567.4085,-5.761303E-05
567.5085,-5.765824E-05
567.6085,-5.768366E-05
567.7084,-5.759137E-05
567.8084,-5.762056E-05
567.9084,-5.760173E-05
568.0084,-5.753581E-05
568.1083,-5.759985E-05
568.2083,-5.760833E-05
568.3083,-5.752074E-05
568.4083,-5.755182E-05
568.5082,-5.756218E-05
568.6082,-5.749061E-05
568.7082,-5.755276E-05
568.8082,-5.751038E-05
568.9081,-5.747648E-05
569.0081,-5.753864E-05
569.1081,-5.749626E-05
569.2081,-5.746706E-05
569.308,-5.744917E-05
569.408,-5.747648E-05
569.508,-5.743598E-05
569.608,-5.744728E-05
569.7079,-5.745859E-05
569.8079,-5.742374E-05
569.9079,-5.742092E-05
570.0079,-5.74407E-05
570.1078,-5.741433E-05
570.2078,-5.740208E-05
570.3078,-5.739267E-05
570.4078,-5.739079E-05
570.5078,-5.737948E-05
570.6077,-5.737289E-05
570.7077,-5.736724E-05
570.8077,-5.737477E-05
570.9077,-5.734558E-05
571.0076,-5.732863E-05
571.1076,-5.734276E-05
571.2076,-5.73437E-05
571.3076,-5.73211E-05
571.4075,-5.731073E-05
571.5075,-5.733616E-05
571.6075,-5.730791E-05
571.7075,-5.727683E-05
571.8074,-5.734181E-05
571.9074,-5.732015E-05
572.0074,-5.73258E-05
572.1074,-5.728719E-05
572.2073,-5.727966E-05
572.3073,-5.731167E-05
572.4073,-5.729378E-05
572.5073,-5.725517E-05
572.6072,-5.7258E-05
572.7072,-5.728719E-05
572.8072,-5.724482E-05
572.9072,-5.724293E-05
573.0071,-5.724576E-05
573.1071,-5.720055E-05
573.2071,-5.722033E-05
573.3071,-5.722786E-05
573.407,-5.718078E-05
573.507,-5.720809E-05
573.607,-5.718737E-05
573.707,-5.716665E-05
573.8069,-5.717513E-05
573.9069,-5.719302E-05
574.0069,-5.714217E-05
574.1069,-5.717136E-05
574.2068,-5.716948E-05
574.3068,-5.713934E-05
574.4068,-5.715158E-05
574.5068,-5.717418E-05
574.6068,-5.712615E-05
574.7067,-5.713745E-05
574.8067,-5.714499E-05
574.9067,-5.710921E-05
575.0067,-5.711957E-05
575.1066,-5.711862E-05
575.2066,-5.708472E-05
575.3066,-5.708943E-05
575.4066,-5.711579E-05
575.5065,-5.706588E-05
575.6065,-5.707342E-05
575.7065,-5.708943E-05
575.8065,-5.705082E-05
575.9064,-5.707719E-05
576.0064,-5.704799E-05
576.1064,-5.702539E-05
576.2064,-5.704611E-05
576.3063,-5.704328E-05
576.4063,-5.702728E-05
576.5063,-5.702163E-05
576.6063,-5.701221E-05
576.7062,-5.700656E-05
576.8062,-5.702445E-05
576.9062,-5.700279E-05
577.0062,-5.696324E-05
577.1061,-5.6967E-05
577.2061,-5.699714E-05
577.3061,-5.696794E-05
577.4061,-5.69623E-05
577.506,-5.695853E-05
577.606,-5.69331E-05
577.706,-5.69444E-05
577.806,-5.6967E-05
577.9059,-5.693028E-05
578.0059,-5.694064E-05
578.1059,-5.692556E-05
578.2059,-5.689261E-05
578.3058,-5.690014E-05
578.4058,-5.690768E-05
578.5058,-5.690296E-05
578.6058,-5.687754E-05
578.7057,-5.692556E-05
578.8057,-5.688413E-05
578.9057,-5.690014E-05
579.0057,-5.686624E-05
579.1057,-5.687848E-05
579.2056,-5.685494E-05
579.3056,-5.689072E-05
579.4056,-5.685588E-05
579.5056,-5.686153E-05
579.6055,-5.685964E-05
579.7055,-5.682386E-05
579.8055,-5.684834E-05
579.9055,-5.681821E-05
580.0054,-5.680973E-05
580.1054,-5.682386E-05
580.2054,-5.681538E-05
580.3054,-5.68248E-05
580.4053,-5.682198E-05
580.5053,-5.679938E-05
580.6053,-5.679844E-05
580.7053,-5.677677E-05
580.8052,-5.680597E-05
580.9052,-5.674664E-05
581.0052,-5.677206E-05
581.1052,-5.678901E-05
581.2051,-5.677112E-05
581.3051,-5.677206E-05
581.4051,-5.67617E-05
581.5051,-5.673345E-05
581.605,-5.678054E-05
581.705,-5.674664E-05
581.805,-5.670709E-05
581.905,-5.674381E-05
582.0049,-5.677677E-05
582.1049,-5.672969E-05
582.2049,-5.675135E-05
582.3049,-5.670802E-05
582.4048,-5.665152E-05
582.5048,-5.669955E-05
582.6048,-5.666848E-05
582.7048,-5.660444E-05
582.8047,-5.664022E-05
582.9047,-5.665435E-05
583.0047,-5.662704E-05
583.1047,-5.659973E-05
583.2047,-5.660444E-05
583.3046,-5.659314E-05
583.4046,-5.657336E-05
583.5046,-5.658466E-05
583.6046,-5.658372E-05
583.7045,-5.65696E-05
583.8045,-5.655358E-05
583.9045,-5.65404E-05
584.0045,-5.65517E-05
584.1044,-5.656017E-05
584.2044,-5.65404E-05
584.3044,-5.651026E-05
584.4044,-5.649331E-05
584.5043,-5.650461E-05
584.6043,-5.648766E-05
584.7043,-5.650461E-05
584.8043,-5.647825E-05
584.9042,-5.64773E-05
585.0042,-5.64773E-05
585.1042,-5.64434E-05
585.2042,-5.643116E-05
585.3041,-5.648013E-05
585.4041,-5.64773E-05
585.5041,-5.642268E-05
585.6041,-5.644152E-05
585.704,-5.644434E-05
585.804,-5.641515E-05
585.904,-5.644246E-05
586.004,-5.643869E-05
586.1039,-5.640291E-05
586.2039,-5.640667E-05
586.3039,-5.640385E-05
586.4039,-5.639161E-05
586.5038,-5.638972E-05
586.6038,-5.63982E-05
586.7038,-5.636335E-05
586.8038,-5.637842E-05
586.9037,-5.637371E-05
587.0037,-5.634734E-05
587.1037,-5.63577E-05
587.2037,-5.636618E-05
587.3036,-5.634546E-05
587.4036,-5.635676E-05
587.5036,-5.634263E-05
587.6036,-5.632192E-05
587.7036,-5.632568E-05
587.8035,-5.632098E-05
587.9035,-5.631156E-05
588.0035,-5.634452E-05
588.1035,-5.629461E-05
588.2034,-5.630591E-05
588.3034,-5.629932E-05
588.4034,-5.62899E-05
588.5034,-5.622868E-05
588.6033,-5.627766E-05
588.7033,-5.628613E-05
588.8033,-5.625035E-05
588.9033,-5.623057E-05
589.0032,-5.624093E-05
589.1032,-5.622868E-05
589.2032,-5.624658E-05
589.3032,-5.625506E-05
589.4031,-5.620325E-05
589.5031,-5.621362E-05
589.6031,-5.622963E-05
589.7031,-5.620043E-05
589.803,-5.622868E-05
589.903,-5.62155E-05
590.003,-5.617877E-05
590.103,-5.617972E-05
590.2029,-5.619667E-05
590.3029,-5.618819E-05
590.4029,-5.616841E-05
590.5029,-5.615523E-05
590.6028,-5.613828E-05
590.7028,-5.616841E-05
590.8028,-5.614864E-05
590.9028,-5.613263E-05
591.0027,-5.616088E-05
591.1027,-5.614487E-05
591.2027,-5.61185E-05
591.3027,-5.612133E-05
591.4026,-5.611662E-05
591.5026,-5.611191E-05
591.6026,-5.609779E-05
591.7026,-5.60959E-05
591.8026,-5.60733E-05
591.9025,-5.609684E-05
592.0025,-5.607895E-05
592.1025,-5.605541E-05
592.2025,-5.605635E-05
592.3024,-5.606011E-05
592.4024,-5.60394E-05
592.5024,-5.604882E-05
592.6024,-5.602339E-05
592.7023,-5.600832E-05
592.8023,-5.604128E-05
592.9023,-5.604882E-05
593.0023,-5.599231E-05
593.1022,-5.599702E-05
593.2022,-5.602151E-05
593.3022,-5.601491E-05
593.4022,-5.600173E-05
593.5021,-5.600361E-05
593.6021,-5.599326E-05
593.7021,-5.597253E-05
593.8021,-5.599231E-05
593.902,-5.593957E-05
594.002,-5.59537E-05
594.102,-5.599796E-05
594.202,-5.595087E-05
594.3019,-5.592262E-05
594.4019,-5.601303E-05
594.5019,-5.600456E-05
594.6019,-5.598101E-05
594.7018,-5.597065E-05
594.8018,-5.594522E-05
594.9018,-5.593675E-05
595.0018,-5.594805E-05
595.1017,-5.593204E-05
595.2017,-5.592168E-05
595.3017,-5.593392E-05
595.4017,-5.590191E-05
595.5016,-5.585105E-05
595.6016,-5.589626E-05
595.7016,-5.59198E-05
595.8016,-5.587459E-05
595.9016,-5.586047E-05
596.0015,-5.586047E-05
596.1015,-5.582563E-05
596.2015,-5.58454E-05
596.3015,-5.584728E-05
596.4014,-5.581809E-05
596.5014,-5.580961E-05
596.6014,-5.582374E-05
596.7014,-5.57936E-05
596.8013,-5.579078E-05
596.9013,-5.57936E-05
597.0013,-5.581433E-05
597.1013,-5.57889E-05
597.2012,-5.576817E-05
597.3012,-5.576817E-05
597.4012,-5.578136E-05
597.5012,-5.575876E-05
597.6011,-5.572298E-05
597.7011,-5.576347E-05
597.8011,-5.576817E-05
597.9011,-5.572203E-05
598.001,-5.573334E-05
598.101,-5.571921E-05
598.201,-5.573051E-05
598.301,-5.577854E-05
598.4009,-5.574087E-05
598.5009,-5.569001E-05
598.6009,-5.570603E-05
598.7009,-5.572298E-05
598.8008,-5.569472E-05
598.9008,-5.568248E-05
599.0008,-5.570603E-05
599.1008,-5.56401E-05
599.2007,-5.56806E-05
599.3007,-5.568248E-05
599.4007,-5.565706E-05
599.5007,-5.569472E-05
599.6006,-5.567212E-05
599.7006,-5.563916E-05
599.8006,-5.566082E-05
599.9006,-5.563163E-05
600.0005,-5.56354E-05
