EXPID. 1109
[电化学]: i-t : @ 0(V) X 600(sec)
起始电位 (V),0
静置时间 (秒),0
运行时间 (秒),600
记录间隔,0.1
电解液 信息:
HNO3,0.4
0.1,-0.01005814
0.2,-0.01005814
0.3,-0.01005814
0.4,-0.01005814
0.5,-0.01005814
0.6,-0.01005814
0.7,-0.01005814
0.8000001,-0.01005814
0.9000001,-0.01005814
1,-0.01005814
1.1,-0.01005814
1.2,-0.01005814
1.3,-0.01005814
1.4,-0.01005814
1.5,-0.01005814
1.6,-0.01005814
1.7,-0.01005814
1.8,-0.01005814
1.9,-0.01005814
2,-0.01005814
2.1,-0.01005814
2.2,-0.01005814
2.3,-0.01005814
2.4,-0.01005814
2.5,-0.01005814
2.6,-0.01005814
2.7,-0.01005814
2.799999,-0.01005814
2.899999,-0.01005814
2.999999,-0.01005814
3.099999,-0.01005814
3.199999,-0.01005814
3.299999,-0.01005814
3.399999,-0.01005814
3.499999,-0.01005814
3.599999,-0.01005814
3.699999,-0.01005814
3.799999,-0.01005814
3.899998,-0.01005814
3.999998,-0.01005814
4.099998,-0.01005814
4.199998,-0.01005814
4.299998,-0.01005814
4.399998,-0.01005814
4.499998,-0.01005814
4.599998,-0.01005814
4.699998,-0.01005814
4.799998,-0.01005814
4.899998,-0.01005814
4.999998,-0.01005814
5.099998,-0.01005814
5.199997,-0.01005814
5.299997,-0.01005814
5.399997,-0.01005814
5.499997,-0.01005814
5.599997,-0.01005814
5.699997,-0.01005814
5.799997,-0.01005814
5.899997,-0.01005814
5.999997,-0.01005814
6.099997,-0.01005814
6.199996,-0.01005814
6.299996,-0.01005814
6.399996,-0.01005814
6.499996,-0.01005814
6.599996,-0.01005814
6.699996,-0.01005814
6.799996,-0.007665278
6.899996,-0.00295094
6.999996,-0.004331277
7.099996,-0.005958124
7.199996,-0.006707242
7.299995,-0.007419075
7.399995,-0.007979782
7.499995,-0.008335958
7.599995,-0.008605689
7.699995,-0.008823978
7.799995,-0.008998109
7.899995,-0.009138171
7.999995,-0.009227403
8.099995,-0.009291016
8.199995,-0.009335962
8.299995,-0.009345968
8.399996,-0.009340605
8.499996,-0.00932946
8.599997,-0.009299072
8.699997,-0.00926371
8.799997,-0.009225995
8.899998,-0.009179243
8.999998,-0.009127184
9.099998,-0.009076666
9.199999,-0.009025267
9.299999,-0.008961153
9.4,-0.008904473
9.5,-0.00884612
9.6,-0.008781713
9.700001,-0.008724644
9.800001,-0.008662512
9.900002,-0.008596714
10,-0.008539311
10.1,-0.008474712
10.2,-0.008412017
10.3,-0.008355833
10.4,-0.008293313
10.5,-0.008228177
10.6,-0.008174378
10.7,-0.008113155
10.8,-0.008050178
10.90001,-0.007996376
11.00001,-0.007936622
11.10001,-0.007873887
11.20001,-0.007819893
11.30001,-0.007763245
11.40001,-0.007703993
11.50001,-0.007651626
11.60001,-0.007597633
11.70001,-0.007535216
11.80001,-0.007484903
11.90001,-0.007432917
12.00001,-0.007373125
12.10001,-0.007323859
12.20001,-0.007272879
12.30001,-0.007210716
12.40001,-0.007163859
12.50001,-0.007114356
12.60001,-0.007057566
12.70001,-0.007009747
12.80001,-0.006961449
12.90001,-0.006904794
13.00001,-0.006858397
13.10001,-0.0068093
13.20001,-0.00675538
13.30001,-0.006712888
13.40001,-0.006663487
13.50002,-0.006610559
13.60002,-0.006566631
13.70002,-0.006517249
13.80002,-0.006467042
13.90002,-0.006424948
14.00002,-0.006379256
14.10002,-0.006329448
14.20002,-0.006285707
14.30002,-0.006241924
14.40002,-0.006191226
14.50002,-0.006148966
14.60002,-0.006102369
14.70002,-0.006059885
14.80002,-0.006014443
14.90002,-0.00596859
15.00002,-0.005923537
15.10002,-0.005881513
15.20002,-0.005835182
15.30002,-0.005791684
15.40002,-0.00575093
15.50002,-0.00570364
15.60002,-0.005661927
15.70002,-0.005621438
15.80002,-0.005575435
15.90002,-0.005532878
16.00002,-0.005492955
16.10003,-0.005448448
16.20003,-0.005408169
16.30003,-0.005366842
16.40003,-0.005324193
16.50003,-0.005282789
16.60003,-0.00524375
16.70003,-0.005202344
16.80003,-0.00515908
16.90003,-0.005122772
17.00003,-0.005079703
17.10003,-0.005041164
17.20003,-0.005002391
17.30003,-0.004962576
17.40003,-0.004922919
17.50003,-0.004884825
17.60003,-0.004845907
17.70003,-0.004808452
17.80003,-0.004770928
17.90003,-0.004733025
18.00003,-0.00469624
18.10003,-0.004659647
18.20003,-0.004623227
18.30003,-0.004588252
18.40003,-0.004553131
18.50003,-0.004518827
18.60003,-0.004485799
18.70004,-0.004449818
18.80004,-0.004417179
18.90004,-0.004385926
19.00004,-0.004352635
19.10004,-0.004319534
19.20004,-0.004289335
19.30004,-0.004257842
19.40004,-0.004226131
19.50004,-0.0041976
19.60004,-0.004167825
19.70004,-0.004137461
19.80004,-0.004109534
19.90004,-0.004079769
20.00004,-0.004051993
20.10004,-0.004024882
20.20004,-0.003997541
20.30004,-0.003969938
20.40004,-0.003943904
20.50004,-0.003915944
20.60004,-0.003890483
20.70004,-0.003865386
20.80004,-0.003838837
20.90004,-0.003814063
21.00004,-0.003789625
21.10004,-0.003764299
21.20004,-0.003740335
21.30005,-0.00371573
21.40005,-0.003692539
21.50005,-0.003668144
21.60005,-0.003645431
21.70005,-0.003622542
21.80005,-0.003599467
21.90005,-0.003577222
22.00005,-0.003554797
22.10005,-0.003532079
22.20005,-0.003510904
22.30005,-0.003489504
22.40005,-0.003468014
22.50005,-0.003447275
22.60005,-0.003425463
22.70005,-0.003404606
22.80005,-0.00338482
22.90005,-0.003364081
23.00005,-0.003343585
23.10005,-0.003324068
23.20005,-0.003304016
23.30005,-0.003284194
23.40005,-0.003264933
23.50005,-0.003246072
23.60005,-0.00322626
23.70005,-0.003207955
23.80005,-0.003189387
23.90005,-0.003170331
24.00006,-0.003152017
24.10006,-0.003134021
24.20006,-0.003115306
24.30006,-0.003097918
24.40006,-0.003080749
24.50006,-0.003062638
24.60006,-0.00304521
24.70006,-0.003027844
24.80006,-0.003010569
24.90006,-0.002994232
25.00006,-0.002976964
25.10006,-0.002960339
25.20006,-0.002944096
25.30006,-0.002927918
25.40006,-0.002911231
25.50006,-0.002895607
25.60006,-0.002879745
25.70006,-0.002863312
25.80006,-0.002848125
25.90006,-0.002832514
26.00006,-0.002816535
26.10006,-0.002801803
26.20006,-0.002786533
26.30006,-0.002771054
26.40006,-0.002756456
26.50006,-0.00274159
26.60007,-0.002726554
26.70007,-0.002712369
26.80007,-0.002697599
26.90007,-0.002682933
27.00007,-0.002669123
27.10007,-0.002655167
27.20007,-0.002640354
27.30007,-0.002626951
27.40007,-0.002613043
27.50007,-0.002599346
27.60007,-0.002586213
27.70007,-0.002572388
27.80007,-0.002558758
27.90007,-0.002545746
28.00007,-0.002532615
28.10007,-0.00251893
28.20007,-0.002506339
28.30007,-0.002493338
28.40007,-0.002480534
28.50007,-0.00246764
28.60007,-0.002455942
28.70007,-0.002442379
28.80007,-0.002430175
28.90007,-0.002418255
29.00007,-0.002405516
29.10007,-0.002393595
29.20008,-0.002381697
29.30008,-0.002369222
29.40008,-0.00235742
29.50008,-0.002345955
29.60008,-0.002333625
29.70008,-0.002322579
29.80008,-0.002311642
29.90008,-0.002299384
30.00008,-0.002287961
30.10008,-0.002277024
30.20008,-0.002265361
30.30008,-0.002254687
30.40008,-0.002243347
30.50008,-0.00223239
30.60008,-0.00222173
30.70008,-0.00221089
30.80008,-0.002199893
30.90008,-0.00218938
31.00008,-0.002178677
31.10008,-0.002168156
31.20008,-0.002158063
31.30008,-0.00214774
31.40008,-0.002137093
31.50008,-0.002126944
31.60008,-0.002116814
31.70008,-0.002106257
31.80009,-0.002096653
31.90009,-0.002086722
32.00008,-0.00207627
32.10008,-0.002067306
32.20008,-0.002057331
32.30008,-0.002047095
32.40008,-0.002038074
32.50008,-0.002028318
32.60007,-0.002018665
32.70007,-0.002009538
32.80007,-0.002000208
32.90007,-0.001990634
33.00007,-0.001981821
33.10007,-0.001972526
33.20007,-0.00196321
33.30006,-0.00195445
33.40006,-0.001945285
33.50006,-0.001936215
33.60006,-0.001927446
33.70006,-0.001918609
33.80006,-0.001909858
33.90005,-0.001901391
34.00005,-0.001892513
34.10005,-0.001883763
34.20005,-0.00187535
34.30005,-0.001866754
34.40005,-0.001858263
34.50005,-0.001850513
34.60004,-0.001842033
34.70004,-0.001833478
34.80004,-0.001825268
34.90004,-0.001817302
35.00004,-0.001808933
35.10004,-0.001800878
35.20004,-0.001793064
35.30003,-0.001784934
35.40003,-0.001777199
35.50003,-0.001769374
35.60003,-0.001761531
35.70003,-0.001753651
35.80003,-0.001745941
35.90002,-0.001738405
36.00002,-0.001730933
36.10002,-0.001722899
36.20002,-0.00171584
36.30002,-0.001708457
36.40002,-0.001700606
36.50002,-0.001693467
36.60001,-0.001686343
36.70001,-0.001678774
36.80001,-0.001671724
36.90001,-0.001664482
37.00001,-0.001656889
37.10001,-0.001650115
37.2,-0.001643059
37.3,-0.001635716
37.4,-0.001629136
37.5,-0.001622216
37.6,-0.001614647
37.7,-0.001608207
37.8,-0.001601413
37.89999,-0.001594257
37.99999,-0.001587789
38.09999,-0.001581243
38.19999,-0.001574075
38.29999,-0.001567578
38.39999,-0.001561239
38.49998,-0.001554385
38.59998,-0.001548165
38.69998,-0.001541725
38.79998,-0.001535093
38.89998,-0.001528914
38.99998,-0.001522552
39.09998,-0.001516201
39.19997,-0.001509964
39.29997,-0.001503939
39.39997,-0.001497517
39.49997,-0.001491232
39.59997,-0.001485278
39.69997,-0.001479076
39.79996,-0.001473028
39.89996,-0.001467105
39.99996,-0.00146099
40.09996,-0.00145509
40.19996,-0.001449284
40.29996,-0.001443254
40.39996,-0.001437288
40.49995,-0.001431722
40.59995,-0.001425738
40.69995,-0.001419969
40.79995,-0.001414393
40.89995,-0.001408485
40.99995,-0.001402824
41.09995,-0.001397277
41.19994,-0.001391615
41.29994,-0.001386095
41.39994,-0.001380767
41.49994,-0.001375215
41.59994,-0.001369791
41.69994,-0.00136457
41.79993,-0.001358884
41.89993,-0.001353488
41.99993,-0.001348472
42.09993,-0.001342787
42.19993,-0.001337561
42.29993,-0.001332454
42.39993,-0.001327047
42.49992,-0.001321776
42.59992,-0.001316914
42.69992,-0.001311624
42.79992,-0.00130642
42.89992,-0.001301727
42.99992,-0.001296349
43.09991,-0.001291165
43.19991,-0.001286577
43.29991,-0.001281443
43.39991,-0.001276348
43.49991,-0.001271791
43.59991,-0.001266755
43.69991,-0.001261691
43.7999,-0.001256924
43.8999,-0.001251938
43.9999,-0.001247481
44.0999,-0.001242784
44.1999,-0.001237856
44.2999,-0.00123336
44.39989,-0.001228628
44.49989,-0.001223871
44.59989,-0.001219467
44.69989,-0.001214514
44.79989,-0.001210107
44.89989,-0.001205853
44.99989,-0.001201152
45.09988,-0.00119644
45.19988,-0.001192222
45.29988,-0.001187525
45.39988,-0.001182995
45.49988,-0.00117874
45.59988,-0.001174429
45.69987,-0.001169745
45.79987,-0.001165524
45.89987,-0.001161356
45.99987,-0.001156647
46.09987,-0.001152752
46.19987,-0.001148327
46.29987,-0.001144113
46.39986,-0.001140012
46.49986,-0.001135685
46.59986,-0.001131662
46.69986,-0.00112761
46.79986,-0.00112344
46.89986,-0.001119294
46.99986,-0.001115475
47.09985,-0.001111129
47.19985,-0.001107118
47.29985,-0.001103357
47.39985,-0.001098951
47.49985,-0.001095214
47.59985,-0.001091585
47.69984,-0.001087322
47.79984,-0.001083547
47.89984,-0.001079684
47.99984,-0.001075523
48.09984,-0.001071858
48.19984,-0.001068166
48.29984,-0.001064145
48.39983,-0.001060313
48.49983,-0.001056806
48.59983,-0.001052705
48.69983,-0.001049078
48.79983,-0.001045581
48.89983,-0.001041537
48.99982,-0.001037858
49.09982,-0.001034348
49.19982,-0.001030404
49.29982,-0.001026826
49.39982,-0.001023319
49.49982,-0.001019454
49.59982,-0.001015974
49.69981,-0.001012477
49.79981,-0.001008786
49.89981,-0.001005271
49.99981,-0.001001891
50.09981,-0.0009982068
50.19981,-0.0009949126
50.2998,-0.0009915186
50.3998,-0.0009879099
50.4998,-0.0009843917
50.5998,-0.0009812396
50.6998,-0.0009777157
50.7998,-0.0009743734
50.8998,-0.0009709634
50.99979,-0.0009676015
51.09979,-0.0009643384
51.19979,-0.0009610941
51.29979,-0.0009576238
51.39979,-0.0009544351
51.49979,-0.0009511089
51.59978,-0.00094786
51.69978,-0.000944595
51.79978,-0.0009417924
51.89978,-0.000938194
51.99978,-0.0009349789
52.09978,-0.0009319889
52.19978,-0.0009286759
52.29977,-0.000925733
52.39977,-0.000922647
52.49977,-0.0009192869
52.59977,-0.0009163326
52.69977,-0.0009133822
52.79977,-0.0009101483
52.89977,-0.0009072751
52.99976,-0.000904303
53.09976,-0.0009010955
53.19976,-0.0008982834
53.29976,-0.0008952228
53.39976,-0.0008920972
53.49976,-0.0008894537
53.59975,-0.0008864111
53.69975,-0.0008833645
53.79975,-0.0008805168
53.89975,-0.0008776726
53.99975,-0.0008746177
54.09975,-0.0008717473
54.19975,-0.0008691359
54.29974,-0.0008660037
54.39974,-0.0008632689
54.49974,-0.0008605247
54.59974,-0.0008575846
54.69974,-0.0008548555
54.79974,-0.0008521697
54.89973,-0.0008491683
54.99973,-0.0008465663
55.09973,-0.0008439097
55.19973,-0.0008410912
55.29973,-0.0008384401
55.39973,-0.0008356159
55.49973,-0.0008329377
55.59972,-0.0008303064
55.69972,-0.0008276074
55.79972,-0.0008249593
55.89972,-0.0008223846
55.99972,-0.0008196159
56.09972,-0.0008170488
56.19971,-0.0008145325
56.29971,-0.0008119672
56.39971,-0.0008093623
56.49971,-0.0008070391
56.59971,-0.0008042092
56.69971,-0.0008016684
56.79971,-0.000799283
56.8997,-0.0007966442
56.9997,-0.0007940743
57.0997,-0.0007916436
57.1997,-0.0007891273
57.2997,-0.0007866779
57.3997,-0.0007840806
57.49969,-0.0007816039
57.59969,-0.0007793136
57.69969,-0.0007769385
57.79969,-0.0007744015
57.89969,-0.000772099
57.99969,-0.0007696477
58.09969,-0.0007672424
58.19968,-0.0007649023
58.29968,-0.0007626214
58.39968,-0.0007601992
58.49968,-0.0007578582
58.59968,-0.000755645
58.69968,-0.0007533209
58.79967,-0.0007510729
58.89967,-0.0007487251
58.99967,-0.0007464735
59.09967,-0.0007442491
59.19967,-0.0007419316
59.29967,-0.0007396225
59.39967,-0.0007374696
59.49966,-0.0007352085
59.59966,-0.0007329531
59.69966,-0.0007307334
59.79966,-0.0007285825
59.89966,-0.0007262648
59.99966,-0.0007241253
60.09966,-0.0007219819
60.19965,-0.0007197123
60.29965,-0.0007175925
60.39965,-0.0007153653
60.49965,-0.0007131975
60.59965,-0.0007111887
60.69965,-0.0007089445
60.79964,-0.0007068173
60.89964,-0.0007047303
60.99964,-0.0007026303
61.09964,-0.0007005179
61.19964,-0.0006985356
61.29964,-0.0006964318
61.39964,-0.0006942649
61.49963,-0.0006922749
61.59963,-0.0006903464
61.69963,-0.0006882142
61.79963,-0.0006862668
61.89963,-0.0006841111
61.99963,-0.0006821768
62.09962,-0.0006802981
62.19962,-0.0006782885
62.29962,-0.0006761365
62.39962,-0.0006743887
62.49962,-0.0006723169
62.59962,-0.0006703882
62.69962,-0.0006684492
62.79961,-0.0006665055
62.89961,-0.0006645278
62.99961,-0.0006627837
63.09961,-0.0006608428
63.19961,-0.0006587211
63.29961,-0.0006569949
63.3996,-0.0006551218
63.4996,-0.0006531922
63.5996,-0.0006514444
63.6996,-0.0006494563
63.7996,-0.0006476209
63.8996,-0.0006457713
63.9996,-0.0006439331
64.09959,-0.0006420986
64.19959,-0.0006404091
64.29959,-0.0006384221
64.39959,-0.0006365866
64.49959,-0.0006349075
64.59959,-0.0006330382
64.69958,-0.0006312207
64.79958,-0.0006295632
64.89958,-0.0006276835
64.99958,-0.0006259235
65.09958,-0.0006242961
65.19958,-0.0006224607
65.29958,-0.0006206639
65.39957,-0.0006190498
65.49957,-0.0006174074
65.59957,-0.000615603
65.69957,-0.0006140105
65.79957,-0.0006122288
65.89957,-0.0006105016
65.99957,-0.0006089101
66.09956,-0.0006071331
66.19956,-0.0006054323
66.29956,-0.0006039152
66.39956,-0.0006021193
66.49956,-0.0006005221
66.59956,-0.0005989795
66.69955,-0.0005972364
66.79955,-0.0005957372
66.89955,-0.000594253
66.99955,-0.0005923479
67.09955,-0.0005908411
67.19955,-0.0005893607
67.29955,-0.0005876016
67.39954,-0.0005861032
67.49954,-0.0005846379
67.59954,-0.0005829748
67.69954,-0.0005812515
67.79954,-0.0005799546
67.89954,-0.0005782369
67.99953,-0.0005768056
68.09953,-0.0005752545
68.19953,-0.0005737505
68.29953,-0.000572095
68.39953,-0.0005706522
68.49953,-0.0005691116
68.59953,-0.0005675069
68.69952,-0.0005661093
68.79952,-0.0005646638
68.89952,-0.0005630167
68.99952,-0.0005617011
69.09952,-0.0005601557
69.19952,-0.0005585238
69.29951,-0.0005571789
69.39951,-0.0005557428
69.49951,-0.000554154
69.59951,-0.00055275
69.69951,-0.0005512573
69.79951,-0.0005498145
69.89951,-0.0005484359
69.9995,-0.00054698
70.0995,-0.0005455024
70.1995,-0.0005441717
70.2995,-0.0005426894
70.3995,-0.0005412863
70.4995,-0.0005399556
70.59949,-0.0005385553
70.69949,-0.0005371841
70.79949,-0.0005358544
70.89949,-0.0005343618
70.99949,-0.0005329425
71.09949,-0.0005316458
71.19949,-0.0005303217
71.29948,-0.000528992
71.39948,-0.0005276076
71.49948,-0.0005262129
71.59948,-0.0005249868
71.69948,-0.0005236542
71.79948,-0.0005221823
71.89948,-0.0005209759
71.99947,-0.0005197413
72.09947,-0.0005183476
72.19947,-0.0005170433
72.29947,-0.0005157239
72.39947,-0.0005144629
72.49947,-0.0005132293
72.59946,-0.000511973
72.69946,-0.0005106847
72.79946,-0.0005094935
72.89946,-0.0005081844
72.99946,-0.0005068547
73.09946,-0.0005057274
73.19946,-0.0005045333
73.29945,-0.0005032102
73.39945,-0.0005020886
73.49945,-0.0005008982
73.59945,-0.0004995525
73.69945,-0.000498478
73.79945,-0.0004972217
73.89944,-0.0004959343
73.99944,-0.000494938
74.09944,-0.0004937458
74.19944,-0.0004922663
74.29944,-0.0004911946
74.39944,-0.0004900731
74.49944,-0.0004887602
74.59943,-0.0004875897
74.69943,-0.0004864926
74.79943,-0.0004851996
74.89943,-0.0004840139
74.99943,-0.0004829733
75.09943,-0.000481653
75.19942,-0.0004804777
75.29942,-0.0004794352
75.39942,-0.0004781253
75.49942,-0.0004770809
75.59942,-0.000476028
75.69942,-0.0004747558
75.79942,-0.0004736446
75.89941,-0.00047257
75.99941,-0.0004714456
76.09941,-0.0004703438
76.19941,-0.0004692485
76.29941,-0.0004680554
76.39941,-0.00046701
76.4994,-0.0004659515
76.5994,-0.0004648111
76.6994,-0.0004637582
76.7994,-0.0004627054
76.8994,-0.0004618004
76.9994,-0.0004608191
77.0994,-0.0004597888
77.19939,-0.0004585024
77.29939,-0.0004575193
77.39939,-0.0004565361
77.49939,-0.0004555473
77.59939,-0.0004543597
77.69939,-0.0004534152
77.79939,-0.000452336
77.89938,-0.0004513029
77.99938,-0.0004503781
78.09938,-0.0004493271
78.19938,-0.0004482253
78.29938,-0.0004473288
78.39938,-0.000446242
78.49937,-0.0004452334
78.59937,-0.0004442201
78.69937,-0.0004432078
78.79937,-0.0004422227
78.89937,-0.0004413808
78.99937,-0.0004403581
79.09937,-0.0004394088
79.19936,-0.0004383757
79.29936,-0.0004372993
79.39936,-0.0004364518
79.49936,-0.0004354639
79.59936,-0.0004344016
79.69936,-0.0004334269
79.79935,-0.0004325361
79.89935,-0.0004315237
79.99935,-0.0004305971
80.09935,-0.0004296572
80.19935,-0.0004286373
80.29935,-0.0004277323
80.39935,-0.0004269667
80.49934,-0.0004258601
80.59934,-0.0004248864
80.69934,-0.0004240435
80.79934,-0.0004231583
80.89934,-0.0004222232
80.99934,-0.0004213615
81.09933,-0.0004203011
81.19933,-0.0004194658
81.29933,-0.0004186935
81.39933,-0.0004176398
81.49933,-0.0004167799
81.59933,-0.0004158778
81.69933,-0.0004148936
81.79932,-0.0004141101
81.89932,-0.0004131891
81.99932,-0.0004122107
82.09932,-0.0004114215
82.19932,-0.0004105513
82.29932,-0.0004095964
82.39931,-0.0004086415
82.49931,-0.0004078919
82.59931,-0.0004069153
82.69931,-0.0004061026
82.79931,-0.000405256
82.89931,-0.0004043359
82.99931,-0.0004034667
83.0993,-0.0004026832
83.1993,-0.0004016944
83.2993,-0.0004008836
83.3993,-0.0004001113
83.4993,-0.0003992148
83.5993,-0.0003983446
83.6993,-0.0003976571
83.79929,-0.0003966778
83.89929,-0.0003958735
83.99929,-0.0003951936
84.09929,-0.0003942566
84.19929,-0.0003934561
84.29929,-0.0003927507
84.39928,-0.0003919051
84.49928,-0.0003910057
84.59928,-0.0003903201
84.69928,-0.0003894359
84.79928,-0.0003886203
84.89928,-0.0003879385
84.99928,-0.0003871069
85.09927,-0.00038633
85.19927,-0.0003855437
85.29927,-0.0003847856
85.39927,-0.000383986
85.49927,-0.0003833316
85.59927,-0.0003824906
85.69926,-0.000381724
85.79926,-0.0003809791
85.89926,-0.0003801155
85.99926,-0.0003793009
86.09926,-0.0003786963
86.19926,-0.0003778563
86.29926,-0.0003771283
86.39925,-0.0003766942
86.49925,-0.0003756913
86.59925,-0.0003748409
86.69925,-0.0003743465
86.79925,-0.0003735055
86.89925,-0.0003726947
86.99924,-0.0003721664
87.09924,-0.0003713829
87.19924,-0.0003705796
87.29924,-0.0003700145
87.39924,-0.0003692508
87.49924,-0.0003684465
87.59924,-0.0003678533
87.69923,-0.0003670528
87.79923,-0.0003663323
87.89923,-0.000365691
87.99923,-0.0003649198
88.09923,-0.0003641908
88.19923,-0.0003635891
88.29922,-0.0003627952
88.39922,-0.0003619863
88.49922,-0.0003615182
88.59922,-0.0003607431
88.69922,-0.000360164
88.79922,-0.0003595604
88.89922,-0.0003587787
88.99921,-0.0003584246
89.09921,-0.0003577654
89.19921,-0.0003569659
89.29921,-0.000356398
89.39921,-0.0003558255
89.49921,-0.0003550372
89.59921,-0.0003544317
89.6992,-0.0003538271
89.7992,-0.0003530634
89.8992,-0.0003524578
89.9992,-0.0003518871
90.0992,-0.000351065
90.1992,-0.0003504058
90.29919,-0.0003498351
90.39919,-0.0003490186
90.49919,-0.0003483716
90.59919,-0.0003477859
90.69919,-0.0003469882
90.79919,-0.0003463818
90.89919,-0.0003457546
90.99918,-0.0003450162
91.09918,-0.0003443985
91.19918,-0.0003439116
91.29918,-0.0003431064
91.39918,-0.0003424378
91.49918,-0.0003419481
91.59917,-0.000341157
91.69917,-0.0003405722
91.79917,-0.0003399902
91.89917,-0.0003392227
91.99917,-0.0003386266
92.09917,-0.0003380973
92.19917,-0.0003373685
92.29916,-0.0003367168
92.39916,-0.0003362393
92.49916,-0.0003355556
92.59916,-0.0003348776
92.69916,-0.0003343399
92.79916,-0.0003336675
92.89915,-0.0003330544
92.99915,-0.0003325412
93.09915,-0.0003318603
93.19915,-0.0003312529
93.29915,-0.0003307924
93.39915,-0.0003300945
93.49915,-0.0003294824
93.59914,-0.0003289107
93.69914,-0.0003282996
93.79914,-0.0003277421
93.89914,-0.0003271921
93.99914,-0.0003265828
94.09914,-0.0003260818
94.19913,-0.0003255431
94.29913,-0.0003248237
94.39913,-0.0003241889
94.49913,-0.0003237011
94.59913,-0.0003230749
94.69913,-0.000322441
94.79913,-0.0003219514
94.89912,-0.0003213138
94.99912,-0.000320745
95.09912,-0.000320326
95.19912,-0.0003196658
95.29912,-0.000319129
95.39912,-0.000318709
95.49911,-0.000318014
95.59911,-0.0003175158
95.69911,-0.0003170129
95.79911,-0.0003164215
95.89911,-0.0003158801
95.99911,-0.0003153885
96.09911,-0.0003147236
96.1991,-0.0003142555
96.2991,-0.0003138045
96.3991,-0.0003131848
96.4991,-0.000312665
96.5991,-0.0003121998
96.6991,-0.0003116215
96.7991,-0.0003111667
96.89909,-0.0003106092
96.99909,-0.0003100338
97.09909,-0.000309512
97.19909,-0.0003091231
97.29909,-0.0003085778
97.39909,-0.000308075
97.49908,-0.0003074365
97.59908,-0.0003069543
97.69908,-0.0003064552
97.79908,-0.0003059598
97.89908,-0.0003053986
97.99908,-0.0003049371
98.09908,-0.0003044295
98.19907,-0.0003039662
98.29907,-0.0003034369
98.39907,-0.0003030386
98.49907,-0.0003023888
98.59907,-0.0003019575
98.69907,-0.0003015045
98.79906,-0.0003009225
98.89906,-0.0003004592
98.99906,-0.0003000429
99.09906,-0.000299476
99.19906,-0.0002989675
99.29906,-0.0002985286
99.39906,-0.0002980286
99.49905,-0.0002975794
99.59905,-0.0002971028
99.69905,-0.0002964841
99.79905,-0.0002960735
99.89905,-0.0002956554
99.99905,-0.0002951732
100.099,-0.0002946911
100.199,-0.0002941797
100.299,-0.0002936599
100.399,-0.0002931645
100.499,-0.0002928227
100.599,-0.0002922661
100.699,-0.0002918018
100.799,-0.000291412
100.899,-0.0002908451
100.999,-0.0002904354
101.099,-0.0002900229
101.199,-0.0002894617
101.299,-0.00028902
101.399,-0.0002886282
101.499,-0.0002881169
101.599,-0.0002876554
101.699,-0.0002872561
101.799,-0.0002867042
101.899,-0.0002863323
101.999,-0.0002859057
102.099,-0.0002853962
102.199,-0.0002849998
102.299,-0.0002845731
102.399,-0.0002840891
102.499,-0.0002837274
102.599,-0.0002833724
102.699,-0.0002827998
102.799,-0.0002824495
102.899,-0.0002820606
102.999,-0.0002814824
103.099,-0.0002811094
103.199,-0.000280729
103.299,-0.0002802148
103.399,-0.0002798014
103.499,-0.0002794322
103.599,-0.0002789001
103.699,-0.0002785262
103.799,-0.0002781608
103.899,-0.0002776523
103.999,-0.0002772851
104.099,-0.0002769395
104.199,-0.0002764412
104.299,-0.0002760213
104.399,-0.0002756747
104.499,-0.0002751737
104.599,-0.0002748366
104.699,-0.000274441
104.799,-0.0002739532
104.899,-0.0002735803
104.999,-0.0002732262
105.099,-0.0002727224
105.199,-0.0002724822
105.299,-0.0002720434
105.399,-0.0002715989
105.499,-0.0002712684
105.599,-0.0002708389
105.699,-0.0002703746
105.799,-0.0002700497
105.899,-0.0002696749
105.999,-0.0002692342
106.099,-0.000268898
106.199,-0.00026851
106.299,-0.0002680212
106.3989,-0.0002676907
106.4989,-0.0002673112
106.5989,-0.0002668742
106.6989,-0.0002666472
106.7989,-0.000266231
106.8989,-0.0002657743
106.9989,-0.0002654626
107.0989,-0.0002650972
107.1989,-0.0002646762
107.2989,-0.0002642816
107.3989,-0.0002640001
107.4989,-0.000263548
107.5989,-0.0002632212
107.6989,-0.0002629077
107.7989,-0.0002624725
107.8989,-0.0002620704
107.9989,-0.0002617559
108.0989,-0.0002613359
108.1989,-0.00026101
108.2989,-0.0002606522
108.3989,-0.0002602049
108.4989,-0.000259913
108.5989,-0.000259557
108.6989,-0.0002591417
108.7989,-0.0002587697
108.8989,-0.0002584664
108.9989,-0.0002580191
109.0989,-0.0002577319
109.1989,-0.0002573298
109.2989,-0.0002569672
109.3989,-0.0002565867
109.4989,-0.0002562722
109.5989,-0.0002559237
109.6989,-0.0002554727
109.7989,-0.000255193
109.8989,-0.0002548135
109.9989,-0.0002544857
110.0989,-0.0002541222
110.1989,-0.0002537182
110.2989,-0.000253399
110.3989,-0.0002530958
110.4989,-0.0002527304
110.5989,-0.0002523414
110.6989,-0.0002520702
110.7989,-0.0002516643
110.8989,-0.0002513385
110.9989,-0.000251006
111.0989,-0.0002505898
111.1989,-0.0002502819
111.2989,-0.0002499937
111.3989,-0.0002496057
111.4989,-0.0002492695
111.5989,-0.0002489088
111.6989,-0.000248648
111.7989,-0.0002483287
111.8989,-0.0002479143
111.9989,-0.0002475263
112.0989,-0.0002472627
112.1989,-0.0002469123
112.2989,-0.0002465469
112.3989,-0.0002462343
112.4989,-0.0002458679
112.5989,-0.0002454875
112.6989,-0.0002452135
112.7989,-0.0002449347
112.8988,-0.0002445703
112.9988,-0.000244268
113.0988,-0.000243961
113.1988,-0.0002435343
113.2988,-0.0002432368
113.3988,-0.0002429816
113.4988,-0.0002425888
113.5988,-0.0002423233
113.6988,-0.0002420483
113.7988,-0.0002417159
113.8988,-0.0002413825
113.9988,-0.0002411489
114.0988,-0.0002407007
114.1988,-0.0002404436
114.2988,-0.0002402364
114.3988,-0.0002398409
114.4988,-0.0002394821
114.5988,-0.0002392683
114.6988,-0.0002389406
114.7988,-0.0002386496
114.8988,-0.0002383266
114.9988,-0.0002380864
115.0988,-0.000237835
115.1988,-0.000237446
115.2988,-0.0002370628
115.3988,-0.0002368142
115.4988,-0.0002365439
115.5988,-0.0002362256
115.6988,-0.0002359572
115.7988,-0.0002355824
115.8988,-0.0002352452
115.9988,-0.0002349872
116.0988,-0.0002347932
116.1988,-0.0002344184
116.2988,-0.0002341575
116.3988,-0.0002338703
116.4988,-0.0002334889
116.5988,-0.0002332676
116.6988,-0.0002330256
116.7988,-0.0002326413
116.8988,-0.0002323786
116.9988,-0.0002320895
117.0988,-0.0002318512
117.1988,-0.0002315847
117.2988,-0.0002312278
117.3988,-0.0002308841
117.4988,-0.0002306279
117.5988,-0.0002303548
117.6988,-0.0002300864
117.7988,-0.0002297841
117.8988,-0.0002294893
117.9988,-0.0002291824
118.0988,-0.0002289403
118.1988,-0.0002286766
118.2988,-0.0002283838
118.3988,-0.000228106
118.4988,-0.0002278357
118.5988,-0.0002275306
118.6988,-0.0002272556
118.7988,-0.0002270437
118.8988,-0.0002267084
118.9988,-0.0002264429
119.0988,-0.0002261933
119.1988,-0.0002258515
119.2988,-0.0002256019
119.3988,-0.0002254418
119.4987,-0.000225115
119.5987,-0.000224824
119.6987,-0.0002246357
119.7987,-0.0002242759
119.8987,-0.0002239821
119.9987,-0.0002237891
120.0987,-0.0002235188
120.1987,-0.000223193
120.2987,-0.0002229208
120.3987,-0.0002227098
120.4987,-0.0002224527
120.5987,-0.0002222201
120.6987,-0.0002218764
120.7987,-0.0002216259
120.8987,-0.0002213829
120.9987,-0.0002210995
121.0987,-0.0002208801
121.1987,-0.0002205674
121.2987,-0.0002203762
121.3987,-0.0002201935
121.4987,-0.0002199845
121.5987,-0.0002195955
121.6987,-0.0002193074
121.7987,-0.0002190898
121.8987,-0.0002188092
121.9987,-0.0002185389
122.0987,-0.0002183101
122.1987,-0.0002180078
122.2987,-0.0002177959
122.3987,-0.0002176217
122.4987,-0.0002173373
122.5987,-0.0002170821
122.6987,-0.0002168325
122.7987,-0.0002165509
122.8987,-0.0002163051
122.9987,-0.0002161064
123.0987,-0.0002158145
123.1987,-0.0002155922
123.2987,-0.0002152768
123.3987,-0.0002151458
123.4987,-0.000214934
123.5987,-0.0002146844
123.6987,-0.0002143755
123.7987,-0.0002141712
123.8987,-0.0002139207
123.9987,-0.000213656
124.0987,-0.0002134046
124.1987,-0.0002131786
124.2987,-0.0002128848
124.3987,-0.0002126823
124.4987,-0.0002124459
124.5987,-0.0002121549
124.6987,-0.0002120023
124.7987,-0.0002117151
124.8987,-0.0002114533
124.9987,-0.000211249
125.0987,-0.0002110324
125.1987,-0.000210763
125.2987,-0.0002105549
125.3987,-0.0002103148
125.4987,-0.0002100558
125.5987,-0.0002098213
125.6987,-0.000209648
125.7987,-0.0002093495
125.8987,-0.0002090679
125.9986,-0.0002089088
126.0986,-0.0002086394
126.1986,-0.0002084426
126.2986,-0.0002082298
126.3986,-0.0002079303
126.4986,-0.0002077307
126.5986,-0.000207515
126.6986,-0.000207272
126.7986,-0.0002070903
126.8986,-0.0002068812
126.9986,-0.0002065563
127.0986,-0.0002063972
127.1986,-0.00020619
127.2986,-0.0002059225
127.3986,-0.0002057323
127.4986,-0.0002055195
127.5986,-0.0002051946
127.6986,-0.0002050383
127.7986,-0.0002048424
127.8986,-0.0002045759
127.9986,-0.0002043188
128.0986,-0.0002041963
128.1986,-0.0002038809
128.2986,-0.0002036982
128.3986,-0.0002035079
128.4986,-0.0002032188
128.5986,-0.0002030135
128.6987,-0.0002028676
128.7987,-0.000202553
128.8987,-0.0002023157
128.9987,-0.0002021914
129.0987,-0.0002019098
129.1987,-0.0002016989
129.2987,-0.0002015341
129.3987,-0.0002012591
129.4987,-0.0002010783
129.5987,-0.0002008814
129.6987,-0.0002005961
129.7987,-0.0002004153
129.8987,-0.0002002712
129.9987,-0.0001999576
130.0987,-0.0001997485
130.1987,-0.0001995866
130.2988,-0.0001992843
130.3988,-0.000199111
130.4988,-0.0001989292
130.5988,-0.0001986995
130.6988,-0.0001984894
130.7988,-0.0001983256
130.8988,-0.0001980384
130.9988,-0.000197834
131.0988,-0.0001976975
131.1988,-0.0001974413
131.2988,-0.0001972285
131.3988,-0.0001970524
131.4988,-0.0001967538
131.5988,-0.0001965871
131.6988,-0.0001964563
131.7988,-0.0001961803
131.8988,-0.0001959524
131.9989,-0.0001957989
132.0989,-0.0001955927
132.1989,-0.0001953968
132.2989,-0.0001951294
132.3989,-0.000194908
132.4989,-0.0001947433
132.5989,-0.0001945361
132.6989,-0.0001942893
132.7989,-0.0001941594
132.8989,-0.0001939484
132.9989,-0.000193681
133.0989,-0.0001935152
133.1989,-0.0001933146
133.2989,-0.0001931028
133.3989,-0.0001929681
133.4989,-0.0001927308
133.599,-0.0001924925
133.699,-0.0001923494
133.799,-0.0001921638
133.899,-0.0001919039
133.999,-0.0001917598
134.099,-0.0001916186
134.199,-0.0001913031
134.299,-0.0001911863
134.399,-0.0001909839
134.499,-0.0001907437
134.599,-0.0001905977
134.699,-0.0001904094
134.799,-0.0001901457
134.899,-0.0001899865
134.999,-0.0001898142
135.099,-0.0001895844
135.1991,-0.0001894441
135.2991,-0.0001892746
135.3991,-0.0001890703
135.4991,-0.0001888405
135.5991,-0.0001886521
135.6991,-0.0001884779
135.7991,-0.0001882971
135.8991,-0.0001880786
135.9991,-0.0001879505
136.0991,-0.0001877518
136.1991,-0.0001875513
136.2991,-0.0001874024
136.3991,-0.0001872405
136.4991,-0.0001870521
136.5991,-0.0001868685
136.6991,-0.0001867668
136.7991,-0.0001865163
136.8992,-0.0001863449
136.9992,-0.0001862196
137.0992,-0.000186004
137.1992,-0.0001858411
137.2992,-0.0001856687
137.3992,-0.0001855256
137.4992,-0.0001852798
137.5992,-0.0001851913
137.6992,-0.0001849916
137.7992,-0.0001848165
137.8992,-0.0001846366
137.9992,-0.0001844511
138.0992,-0.0001843183
138.1992,-0.0001841375
138.2992,-0.0001839491
138.3992,-0.0001837127
138.4993,-0.0001836421
138.5993,-0.000183466
138.6993,-0.0001832908
138.7993,-0.0001830874
138.8993,-0.0001829066
138.9993,-0.0001827399
139.0993,-0.0001825798
139.1993,-0.0001824075
139.2993,-0.0001822229
139.3993,-0.0001820497
139.4993,-0.0001818839
139.5993,-0.0001817125
139.6993,-0.0001815552
139.7993,-0.0001814064
139.8993,-0.0001811333
139.9993,-0.0001810778
140.0993,-0.0001808668
140.1994,-0.0001806295
140.2994,-0.0001805109
140.3994,-0.000180282
140.4994,-0.0001801304
140.5994,-0.0001800164
140.6994,-0.0001798366
140.7994,-0.0001796219
140.8994,-0.0001794382
140.9994,-0.0001793667
141.0994,-0.0001792386
141.1994,-0.0001789504
141.2994,-0.000178893
141.3994,-0.0001787752
141.4994,-0.0001785012
141.5994,-0.0001783138
141.6994,-0.0001782639
141.7995,-0.0001779908
141.8995,-0.0001778655
141.9995,-0.0001777544
142.0995,-0.0001775378
142.1995,-0.0001773335
142.2995,-0.0001772355
142.3995,-0.000177066
142.4995,-0.000176905
142.5995,-0.0001767731
142.6995,-0.0001765772
142.7995,-0.0001764482
142.8995,-0.0001763107
142.9995,-0.000176113
143.0995,-0.0001759256
143.1995,-0.0001758229
143.2995,-0.0001756092
143.3996,-0.0001754246
143.4996,-0.0001752692
143.5996,-0.0001750479
143.6996,-0.0001749575
143.7996,-0.0001748134
143.8996,-0.0001745874
143.9996,-0.0001744376
144.0996,-0.0001743133
144.1996,-0.0001741174
144.2996,-0.0001739941
144.3996,-0.0001738208
144.4996,-0.0001736211
144.5996,-0.000173446
144.6996,-0.000173348
144.7996,-0.0001731861
144.8996,-0.0001730184
144.9996,-0.0001728593
145.0997,-0.0001726728
145.1997,-0.0001725071
145.2997,-0.0001724252
145.3997,-0.000172201
145.4997,-0.0001720503
145.5997,-0.0001719025
145.6997,-0.000171717
145.7997,-0.0001716049
145.8997,-0.0001714505
145.9997,-0.0001712518
146.0997,-0.0001711387
146.1997,-0.0001709853
146.2997,-0.0001707997
146.3997,-0.0001706641
146.4997,-0.0001704937
146.5997,-0.000170391
146.6998,-0.0001702752
146.7998,-0.0001700134
146.8998,-0.0001698457
146.9998,-0.0001696923
147.0998,-0.0001695642
147.1998,-0.0001693975
147.2998,-0.0001692496
147.3998,-0.0001690735
147.4998,-0.0001689238
147.5998,-0.0001687703
147.6998,-0.0001687223
147.7998,-0.000168483
147.8998,-0.0001683917
147.9998,-0.0001682731
148.0998,-0.000168048
148.1998,-0.0001679086
148.2999,-0.0001677796
148.3999,-0.0001675941
148.4999,-0.0001674509
148.5999,-0.0001673059
148.6999,-0.0001671213
148.7999,-0.0001669772
148.8999,-0.0001668878
148.9999,-0.0001666391
149.0999,-0.0001665968
149.1999,-0.0001663934
149.2999,-0.0001662107
149.3999,-0.0001660845
149.4999,-0.0001659856
149.5999,-0.0001657869
149.6999,-0.0001656692
149.7999,-0.0001655289
149.8999,-0.000165332
150,-0.0001652774
150.1,-0.0001651446
150.2,-0.000164944
150.3,-0.0001647576
150.4,-0.000164686
150.5,-0.0001645608
150.6,-0.0001644477
150.7,-0.0001642528
150.8,-0.000164136
150.9,-0.0001639938
151,-0.0001638733
151.1,-0.000163733
151.2,-0.0001636096
151.3,-0.0001634354
151.4,-0.0001633045
151.5,-0.0001632357
151.6001,-0.0001630747
151.7001,-0.0001629099
151.8001,-0.0001627818
151.9001,-0.0001626151
152.0001,-0.00016244
152.1001,-0.0001623439
152.2001,-0.0001622064
152.3001,-0.000162068
152.4001,-0.0001618674
152.5001,-0.0001618099
152.6001,-0.000161697
152.7001,-0.0001614964
152.8001,-0.0001613391
152.9001,-0.0001612421
153.0001,-0.0001610895
153.1001,-0.0001609624
153.2001,-0.000160839
153.3002,-0.0001606931
153.4002,-0.0001605264
153.5002,-0.0001604407
153.6002,-0.0001603154
153.7002,-0.000160177
153.8002,-0.0001600423
153.9002,-0.0001598907
154.0002,-0.000159757
154.1002,-0.0001596214
154.2002,-0.0001595291
154.3002,-0.0001593935
154.4002,-0.0001592164
154.5002,-0.00015911
154.6002,-0.0001589772
154.7002,-0.000158819
154.8002,-0.0001587578
154.9003,-0.0001585845
155.0003,-0.0001584517
155.1003,-0.0001583463
155.2003,-0.000158222
155.3003,-0.0001580882
155.4003,-0.0001579404
155.5003,-0.000157833
155.6003,-0.0001577021
155.7003,-0.000157591
155.8003,-0.0001574836
155.9003,-0.0001573066
156.0003,-0.0001571795
156.1003,-0.0001570561
156.2003,-0.0001569299
156.3003,-0.0001568216
156.4003,-0.0001566747
156.5004,-0.0001565673
156.6004,-0.0001564195
156.7004,-0.0001562792
156.8004,-0.000156168
156.9004,-0.0001560532
157.0004,-0.0001559147
157.1004,-0.0001557923
157.2004,-0.0001556237
157.3004,-0.000155538
157.4004,-0.0001554514
157.5004,-0.0001552941
157.6004,-0.0001551142
157.7004,-0.0001550436
157.8004,-0.0001549052
157.9004,-0.0001547865
158.0004,-0.0001546829
158.1004,-0.0001545407
158.2005,-0.0001543863
158.3005,-0.0001543166
158.4005,-0.0001541772
158.5005,-0.0001540623
158.6005,-0.0001539503
158.7005,-0.0001537553
158.8005,-0.0001537205
158.9005,-0.0001536028
159.0005,-0.0001534493
159.1005,-0.0001533316
159.2005,-0.0001532383
159.3005,-0.0001530773
159.4005,-0.0001529991
159.5005,-0.0001528805
159.6005,-0.0001527467
159.7005,-0.0001526158
159.8006,-0.0001525217
159.9006,-0.0001524002
160.0006,-0.0001522552
160.1006,-0.0001521789
160.2006,-0.0001520254
160.3006,-0.0001519124
160.4006,-0.0001518144
160.5006,-0.0001516863
160.6006,-0.0001515583
160.7006,-0.0001514396
160.8006,-0.000151304
160.9006,-0.0001511721
161.0006,-0.0001510723
161.1006,-0.0001509782
161.2006,-0.0001507879
161.3006,-0.0001506712
161.4007,-0.0001505704
161.5007,-0.0001505158
161.6007,-0.0001503679
161.7007,-0.0001502737
161.8007,-0.0001501372
161.9007,-0.0001500091
162.0007,-0.0001499385
162.1007,-0.000149817
162.2007,-0.0001497417
162.3007,-0.0001496183
162.4007,-0.0001494394
162.5007,-0.000149462
162.6007,-0.0001493386
162.7007,-0.0001492699
162.8007,-0.0001491455
162.9007,-0.0001490052
163.0007,-0.0001489459
163.1008,-0.0001488282
163.2008,-0.0001486144
163.3008,-0.0001485786
163.4008,-0.0001485127
163.5008,-0.0001483423
163.6008,-0.000148218
163.7008,-0.0001481596
163.8008,-0.00014804
163.9008,-0.0001479326
164.0008,-0.0001478507
164.1008,-0.0001476793
164.2008,-0.0001476049
164.3008,-0.0001475154
164.4008,-0.0001473939
164.5008,-0.0001472753
164.6008,-0.0001471745
164.7009,-0.0001470314
164.8009,-0.0001469108
164.9009,-0.0001468581
165.0009,-0.0001467215
165.1009,-0.0001465991
165.2009,-0.0001465304
165.3009,-0.0001463731
165.4009,-0.0001462299
165.5009,-0.0001461838
165.6009,-0.0001460397
165.7009,-0.0001459154
165.8009,-0.000145809
165.9009,-0.00014568
166.0009,-0.0001456122
166.1009,-0.0001455547
166.2009,-0.0001453645
166.3009,-0.0001452477
166.401,-0.0001451752
166.501,-0.0001450471
166.601,-0.0001449709
166.701,-0.0001448277
166.801,-0.0001446883
166.901,-0.000144597
167.001,-0.0001445066
167.101,-0.0001443879
167.201,-0.0001443474
167.301,-0.0001442307
167.401,-0.0001440423
167.501,-0.0001439406
167.601,-0.000143869
167.701,-0.0001437485
167.801,-0.0001436581
167.901,-0.000143497
168.0011,-0.0001434613
168.1011,-0.0001433972
168.2011,-0.0001432851
168.3011,-0.0001431062
168.4011,-0.0001429989
168.5011,-0.0001429235
168.6011,-0.0001428303
168.7011,-0.0001426872
168.8011,-0.0001426222
168.9011,-0.0001424357
169.0011,-0.0001423754
169.1011,-0.000142286
169.2011,-0.0001421146
169.3011,-0.000142092
169.4011,-0.0001420138
169.5011,-0.000141866
169.6012,-0.0001417614
169.7012,-0.0001416946
169.8012,-0.0001415759
169.9012,-0.0001415072
170.0012,-0.0001414158
170.1012,-0.0001413367
170.2012,-0.0001412086
170.3012,-0.0001411493
170.4012,-0.0001409817
170.5012,-0.000140928
170.6012,-0.0001408141
170.7012,-0.0001406803
170.8012,-0.0001406097
170.9012,-0.0001405381
171.0012,-0.0001403611
171.1012,-0.0001402773
171.2012,-0.0001402179
171.3013,-0.0001401275
171.4013,-0.0001400833
171.5013,-0.0001399156
171.6013,-0.0001397697
171.7013,-0.0001396802
171.8013,-0.0001396256
171.9013,-0.0001394777
172.0013,-0.000139442
172.1013,-0.0001393082
172.2013,-0.000139183
172.3013,-0.0001391444
172.4013,-0.0001390474
172.5013,-0.0001388835
172.6013,-0.0001388251
172.7013,-0.0001387545
172.8013,-0.0001386161
172.9014,-0.0001385501
173.0014,-0.0001384428
173.1014,-0.0001382808
173.2014,-0.0001382036
173.3014,-0.0001381687
173.4014,-0.0001380256
173.5014,-0.0001379173
173.6014,-0.0001378335
173.7014,-0.0001376997
173.8014,-0.0001376404
173.9014,-0.0001375472
174.0014,-0.0001374361
174.1014,-0.0001373325
174.2014,-0.0001372204
174.3014,-0.0001371441
174.4014,-0.0001370368
174.5014,-0.0001369501
174.6015,-0.0001368042
174.7015,-0.0001367778
174.8015,-0.0001367194
174.9015,-0.0001365367
175.0015,-0.0001364548
175.1015,-0.0001363644
175.2015,-0.0001362438
175.3015,-0.0001362014
175.4015,-0.0001360828
175.5015,-0.000135918
175.6015,-0.0001358803
175.7015,-0.0001358153
175.8015,-0.0001356779
175.9015,-0.0001355903
176.0015,-0.000135497
176.1015,-0.0001353379
176.2016,-0.0001353059
176.3016,-0.0001352098
176.4016,-0.0001350723
176.5016,-0.0001349989
176.6016,-0.0001349132
176.7016,-0.0001347663
176.8016,-0.0001346834
176.9016,-0.0001346533
177.0016,-0.0001345054
177.1016,-0.000134464
177.2016,-0.0001343698
177.3016,-0.0001341814
177.4016,-0.0001341268
177.5016,-0.0001340807
177.6016,-0.0001339517
177.7016,-0.0001338594
177.8017,-0.0001337605
177.9017,-0.0001336776
178.0017,-0.0001335665
178.1017,-0.0001335514
178.2017,-0.0001333829
178.3017,-0.0001333819
178.4017,-0.0001332444
178.5017,-0.0001331013
178.6017,-0.0001330363
178.7017,-0.0001329619
178.8017,-0.0001328451
178.9017,-0.0001327811
179.0017,-0.0001326718
179.1017,-0.0001325777
179.2017,-0.0001325221
179.3017,-0.0001324477
179.4017,-0.0001322904
179.5018,-0.0001322151
179.6018,-0.0001321435
179.7018,-0.0001320625
179.8018,-0.000131959
179.9018,-0.000131878
180.0018,-0.0001317659
180.1018,-0.0001316774
180.2018,-0.0001316435
180.3018,-0.000131538
180.4018,-0.0001313581
180.5018,-0.0001313459
180.6018,-0.0001313318
180.7018,-0.0001312027
180.8018,-0.0001310643
180.9018,-0.000131053
181.0018,-0.0001309146
181.1019,-0.0001308383
181.2019,-0.0001307573
181.3019,-0.0001306622
181.4019,-0.0001305539
181.5019,-0.0001304833
181.6019,-0.0001304032
181.7019,-0.0001303476
181.8019,-0.0001302375
181.9019,-0.000130115
182.0019,-0.0001300802
182.1019,-0.000130002
182.2019,-0.0001298975
182.3019,-0.0001298033
182.4019,-0.0001297647
182.5019,-0.0001296461
182.6019,-0.0001295698
182.702,-0.0001295076
182.802,-0.0001293833
182.902,-0.0001292995
183.002,-0.0001292628
183.102,-0.0001291338
183.202,-0.0001290518
183.302,-0.0001289784
183.402,-0.0001288503
183.502,-0.000128791
183.602,-0.0001287477
183.702,-0.0001286111
183.802,-0.0001285725
183.902,-0.0001286083
184.002,-0.0001284406
184.102,-0.0001283361
184.202,-0.0001283069
184.302,-0.0001282043
184.4021,-0.0001281628
184.5021,-0.0001281299
184.6021,-0.0001279557
184.7021,-0.0001278681
184.8021,-0.0001278728
184.9021,-0.0001277701
185.0021,-0.0001276515
185.1021,-0.0001276072
185.2021,-0.0001275196
185.3021,-0.000127433
185.4021,-0.0001273859
185.5021,-0.00012732
185.6021,-0.0001272531
185.7021,-0.0001272381
185.8021,-0.0001271062
185.9021,-0.0001269791
186.0022,-0.0001269631
186.1022,-0.0001268764
186.2022,-0.0001267832
186.3022,-0.0001267305
186.4022,-0.0001266203
186.5022,-0.0001265393
186.6022,-0.0001264856
186.7022,-0.0001263698
186.8022,-0.0001262935
186.9022,-0.0001262248
187.0022,-0.0001261391
187.1022,-0.000126043
187.2022,-0.0001259978
187.3022,-0.0001258631
187.4022,-0.0001257671
187.5022,-0.0001257087
187.6022,-0.0001256258
187.7023,-0.000125575
187.8023,-0.0001254846
187.9023,-0.00012538
188.0023,-0.0001253263
188.1023,-0.0001252821
188.2023,-0.0001251879
188.3023,-0.0001250787
188.4023,-0.0001249911
188.5023,-0.0001249073
188.6023,-0.0001248734
188.7023,-0.0001248423
188.8023,-0.0001246822
188.9023,-0.0001245843
189.0023,-0.0001245381
189.1023,-0.000124475
189.2023,-0.0001243818
189.3024,-0.0001243338
189.4024,-0.0001242349
189.5024,-0.0001241285
189.6024,-0.0001240842
189.7024,-0.0001239768
189.8024,-0.0001238714
189.9024,-0.0001238375
190.0024,-0.0001237386
190.1024,-0.0001236849
190.2024,-0.0001236039
190.3024,-0.0001234702
190.4024,-0.0001233996
190.5024,-0.0001233412
190.6024,-0.0001232611
190.7024,-0.0001231622
190.8024,-0.0001230775
190.9025,-0.0001230012
191.0025,-0.0001229391
191.1025,-0.0001228609
191.2025,-0.0001227601
191.3025,-0.0001227733
191.4025,-0.0001226942
191.5025,-0.0001225699
191.6025,-0.0001225049
191.7025,-0.0001224691
191.8025,-0.0001223486
191.9025,-0.0001222506
192.0025,-0.0001221904
192.1025,-0.0001220614
192.2025,-0.000122019
192.3025,-0.0001219785
192.4025,-0.0001218504
192.5025,-0.0001217468
192.6026,-0.0001217289
192.7026,-0.0001216037
192.8026,-0.0001215622
192.9026,-0.0001214652
193.0026,-0.0001213428
193.1026,-0.0001213004
193.2026,-0.0001212468
193.3026,-0.0001211309
193.4026,-0.0001210556
193.5026,-0.0001209859
193.6026,-0.0001208974
193.7026,-0.000120872
193.8026,-0.0001208042
193.9026,-0.0001206827
194.0026,-0.0001206375
194.1026,-0.000120597
194.2027,-0.0001204736
194.3027,-0.0001204114
194.4027,-0.0001203747
194.5027,-0.0001202485
194.6027,-0.0001202222
194.7027,-0.0001201638
194.8027,-0.0001200545
194.9027,-0.0001199924
195.0027,-0.0001199509
195.1027,-0.0001198455
195.2027,-0.0001197485
195.3027,-0.0001197438
195.4027,-0.000119642
195.5027,-0.0001195385
195.6027,-0.0001195714
195.7027,-0.000119449
195.8027,-0.0001193285
195.9028,-0.000119287
196.0028,-0.0001192136
196.1028,-0.000119125
196.2028,-0.0001190845
196.3028,-0.0001189894
196.4028,-0.0001188727
196.5028,-0.0001188322
196.6028,-0.0001187785
196.7028,-0.0001186994
196.8028,-0.0001186231
196.9028,-0.0001185327
197.0028,-0.0001184724
197.1028,-0.0001184197
197.2028,-0.0001183378
197.3028,-0.0001182841
197.4028,-0.0001181843
197.5029,-0.0001181456
197.6029,-0.0001181701
197.7029,-0.0001180637
197.8029,-0.000117913
197.9029,-0.0001178773
198.0029,-0.0001178283
198.1029,-0.0001177482
198.2029,-0.0001176945
198.3029,-0.0001175872
198.4029,-0.0001175476
198.5029,-0.0001175589
198.6029,-0.0001174629
198.7029,-0.0001173141
198.8029,-0.0001172774
198.9029,-0.0001172246
199.0029,-0.0001171295
199.103,-0.0001170429
199.203,-0.0001169958
199.303,-0.0001169091
199.403,-0.0001168809
199.503,-0.0001167801
199.603,-0.0001166709
199.703,-0.0001166144
199.803,-0.0001165861
199.903,-0.0001165033
200.003,-0.0001164194
200.103,-0.0001163761
200.203,-0.0001162725
200.303,-0.000116217
200.403,-0.0001161605
200.503,-0.0001160785
200.603,-0.0001160409
200.703,-0.0001159345
200.8031,-0.0001158742
200.9031,-0.0001158083
201.0031,-0.0001157367
201.1031,-0.0001156453
201.2031,-0.0001155804
201.3031,-0.0001155446
201.4031,-0.000115441
201.5031,-0.0001154024
201.6031,-0.0001153581
201.7031,-0.0001152225
201.8031,-0.0001152366
201.9031,-0.0001151406
202.0031,-0.0001150765
202.1031,-0.0001150163
202.2031,-0.0001149287
202.3031,-0.0001148364
202.4032,-0.0001148289
202.5032,-0.0001147356
202.6032,-0.0001146236
202.7032,-0.0001145812
202.8032,-0.0001145567
202.9032,-0.0001144324
203.0032,-0.0001144371
203.1032,-0.0001143053
203.2032,-0.0001142167
203.3032,-0.0001141988
203.4032,-0.0001141442
203.5032,-0.0001140397
203.6032,-0.0001139917
203.7032,-0.0001139135
203.8032,-0.0001138617
203.9032,-0.0001138052
204.0033,-0.0001137204
204.1033,-0.0001136319
204.2033,-0.0001135679
204.3033,-0.0001135095
204.4033,-0.0001134332
204.5033,-0.0001133758
204.6033,-0.0001133051
204.7033,-0.0001132251
204.8033,-0.0001131771
204.9033,-0.0001131121
205.0033,-0.0001130556
205.1033,-0.000113016
205.2033,-0.000112888
205.3033,-0.0001128333
205.4033,-0.0001127702
205.5033,-0.0001127232
205.6033,-0.0001126045
205.7034,-0.0001125885
205.8034,-0.0001125131
205.9034,-0.0001124538
206.0034,-0.0001124256
206.1034,-0.0001123352
206.2034,-0.00011224
206.3034,-0.0001122156
206.4034,-0.0001121619
206.5034,-0.000112047
206.6034,-0.0001119669
206.7034,-0.0001119359
206.8034,-0.0001118172
206.9034,-0.0001118116
207.0034,-0.0001117795
207.1034,-0.0001116128
207.2034,-0.0001116298
207.3035,-0.0001115865
207.4035,-0.000111465
207.5035,-0.0001114415
207.6035,-0.0001113614
207.7035,-0.0001112625
207.8035,-0.0001112418
207.9035,-0.000111158
208.0035,-0.0001111156
208.1035,-0.0001110478
208.2035,-0.0001109715
208.3035,-0.0001108962
208.4035,-0.0001108689
208.5035,-0.000110802
208.6035,-0.000110706
208.7035,-0.0001107088
208.8035,-0.0001105986
208.9035,-0.0001105421
209.0036,-0.0001105073
209.1036,-0.0001104216
209.2036,-0.0001103717
209.3036,-0.0001103293
209.4036,-0.0001102285
209.5036,-0.000110188
209.6036,-0.0001101522
209.7036,-0.0001101117
209.8036,-0.0001099987
209.9036,-0.0001099309
210.0036,-0.0001099187
210.1036,-0.0001098499
210.2036,-0.0001097633
210.3036,-0.0001097388
210.4036,-0.0001096795
210.5036,-0.0001095975
210.6037,-0.0001095853
210.7037,-0.0001095071
210.8037,-0.0001094149
210.9037,-0.0001093875
211.0037,-0.0001093461
211.1037,-0.0001092727
211.2037,-0.0001092058
211.3037,-0.0001090965
211.4037,-0.0001090768
211.5037,-0.0001090287
211.6037,-0.0001089346
211.7037,-0.000108863
211.8037,-0.0001087942
211.9037,-0.0001087924
212.0037,-0.0001086878
212.1037,-0.0001086181
212.2038,-0.0001085824
212.3038,-0.0001084872
212.4038,-0.0001084759
212.5038,-0.0001084223
212.6038,-0.0001083149
212.7038,-0.0001082678
212.8038,-0.0001082556
212.9038,-0.0001081586
213.0038,-0.0001080974
213.1038,-0.000108055
213.2038,-0.0001079448
213.3038,-0.0001079401
213.4038,-0.0001078874
213.5038,-0.0001078205
213.6038,-0.000107732
213.7038,-0.0001077113
213.8038,-0.0001076604
213.9039,-0.0001075756
214.0039,-0.0001075276
214.1039,-0.0001074231
214.2039,-0.0001074061
214.3039,-0.0001073732
214.4039,-0.0001072828
214.5039,-0.0001072263
214.6039,-0.0001071622
214.7039,-0.0001070907
214.8039,-0.000107052
214.9039,-0.0001070125
215.0039,-0.0001069324
215.1039,-0.0001068637
215.2039,-0.0001068383
215.3039,-0.0001067658
215.4039,-0.0001067253
215.504,-0.0001066678
215.604,-0.0001065972
215.704,-0.0001065642
215.804,-0.0001064974
215.904,-0.000106439
216.004,-0.0001063561
216.104,-0.0001063326
216.204,-0.0001062704
216.304,-0.0001061998
216.404,-0.0001061508
216.504,-0.0001060661
216.604,-0.0001060519
216.704,-0.0001059813
216.804,-0.000105905
216.904,-0.000105856
217.004,-0.0001057995
217.104,-0.0001057525
217.2041,-0.0001057393
217.3041,-0.0001056781
217.4041,-0.0001055603
217.5041,-0.0001054907
217.6041,-0.0001054737
217.7041,-0.0001053946
217.8041,-0.0001053682
217.9041,-0.000105308
218.0041,-0.0001052138
218.1041,-0.0001051629
218.2041,-0.0001051347
218.3041,-0.0001050876
218.4041,-0.0001050367
218.5041,-0.0001049539
218.6041,-0.0001048748
218.7041,-0.0001048258
218.8042,-0.0001047947
218.9042,-0.0001047316
219.0042,-0.0001046949
219.1042,-0.0001045791
219.2042,-0.0001045489
219.3042,-0.0001045508
219.4042,-0.0001044839
219.5042,-0.0001043587
219.6042,-0.0001043502
219.7042,-0.000104306
219.8042,-0.000104241
219.9042,-0.0001041675
220.0042,-0.0001041129
220.1042,-0.000104047
220.2042,-0.0001040338
220.3042,-0.0001039876
220.4043,-0.0001038624
220.5043,-0.0001038313
220.6043,-0.0001038068
220.7043,-0.0001037211
220.8043,-0.0001037023
220.9043,-0.0001036044
221.0043,-0.0001035818
221.1043,-0.0001035931
221.2043,-0.00010353
221.3043,-0.0001034047
221.4043,-0.0001033727
221.5043,-0.0001033002
221.6043,-0.0001032126
221.7043,-0.0001032117
221.8043,-0.0001031523
221.9043,-0.0001030318
222.0043,-0.000103029
222.1044,-0.0001029988
222.2044,-0.0001028802
222.3044,-0.0001028406
222.4044,-0.0001028086
222.5044,-0.0001027154
222.6044,-0.0001027314
222.7044,-0.0001026438
222.8044,-0.0001025647
222.9044,-0.0001025327
223.0044,-0.0001024752
223.1044,-0.0001024291
223.2044,-0.0001023716
223.3044,-0.0001023434
223.4044,-0.0001022191
223.5044,-0.0001022021
223.6044,-0.0001021899
223.7045,-0.0001020919
223.8045,-0.0001020307
223.9045,-0.0001020044
224.0045,-0.0001019526
224.1045,-0.000101898
224.2045,-0.000101864
224.3045,-0.0001017859
224.4045,-0.0001017454
224.5045,-0.0001017331
224.6045,-0.0001016587
224.7045,-0.0001016051
224.8045,-0.0001015665
224.9045,-0.0001014949
225.0045,-0.0001014761
225.1045,-0.0001014139
225.2045,-0.0001013593
225.3046,-0.0001012858
225.4046,-0.000101251
225.5046,-0.0001012114
225.6046,-0.0001011417
225.7046,-0.0001011078
225.8046,-0.0001010645
225.9046,-0.0001010127
226.0046,-0.0001009477
226.1046,-0.0001008922
226.2046,-0.0001008696
226.3046,-0.0001008112
226.4046,-0.0001007424
226.5046,-0.0001007537
226.6046,-0.0001006728
226.7046,-0.0001005786
226.8046,-0.0001005437
226.9046,-0.000100491
227.0047,-0.0001004514
227.1047,-0.0001004336
227.2047,-0.0001003384
227.3047,-0.0001002678
227.4047,-0.0001002687
227.5047,-0.0001002113
227.6047,-0.0001001717
227.7047,-0.0001000653
227.8047,-0.0001000776
227.9047,-0.0001000437
228.0047,-9.998341E-05
228.1047,-9.989677E-05
228.2047,-9.987982E-05
228.3047,-9.981672E-05
228.4047,-9.977246E-05
228.5047,-9.970089E-05
228.6048,-9.969524E-05
228.7048,-9.96199E-05
228.8048,-9.955775E-05
228.9048,-9.953232E-05
229.0048,-9.946263E-05
229.1048,-9.939106E-05
229.2048,-9.936564E-05
229.3048,-9.929971E-05
229.4048,-9.92225E-05
229.5048,-9.923473E-05
229.6048,-9.917446E-05
229.7048,-9.909912E-05
229.8048,-9.905016E-05
229.9048,-9.903979E-05
230.0048,-9.898423E-05
230.1048,-9.893338E-05
230.2048,-9.887499E-05
230.3049,-9.882037E-05
230.4049,-9.877234E-05
230.5049,-9.876292E-05
230.6049,-9.869795E-05
230.7049,-9.863674E-05
230.8049,-9.858494E-05
230.9049,-9.852656E-05
231.0049,-9.848983E-05
231.1049,-9.843521E-05
231.2049,-9.840318E-05
231.3049,-9.836363E-05
231.4049,-9.832502E-05
231.5049,-9.822237E-05
231.6049,-9.819317E-05
231.7049,-9.819506E-05
231.8049,-9.811219E-05
231.905,-9.810371E-05
232.005,-9.801613E-05
232.105,-9.794456E-05
232.205,-9.793138E-05
232.305,-9.791255E-05
232.405,-9.782684E-05
232.505,-9.777222E-05
232.605,-9.77176E-05
232.705,-9.767711E-05
232.805,-9.761967E-05
232.905,-9.762343E-05
233.005,-9.751607E-05
233.105,-9.747369E-05
233.205,-9.751795E-05
233.305,-9.739647E-05
233.405,-9.735597E-05
233.5051,-9.731925E-05
233.6051,-9.724768E-05
233.7051,-9.71827E-05
233.8051,-9.716104E-05
233.9051,-9.713278E-05
234.0051,-9.705934E-05
234.1051,-9.701601E-05
234.2051,-9.694068E-05
234.3051,-9.694256E-05
234.4051,-9.689829E-05
234.5051,-9.680413E-05
234.6051,-9.678341E-05
234.7051,-9.672408E-05
234.8051,-9.666192E-05
234.9051,-9.666381E-05
235.0051,-9.658941E-05
235.1051,-9.652254E-05
235.2052,-9.647546E-05
235.3052,-9.64359E-05
235.4052,-9.639918E-05
235.5052,-9.636904E-05
235.6052,-9.632101E-05
235.7052,-9.624096E-05
235.8052,-9.623438E-05
235.9052,-9.619106E-05
236.0052,-9.614773E-05
236.1052,-9.610724E-05
236.2052,-9.607428E-05
236.3052,-9.598858E-05
236.4052,-9.596504E-05
236.5052,-9.593679E-05
236.6052,-9.588218E-05
236.7052,-9.587181E-05
236.8053,-9.576162E-05
236.9053,-9.571548E-05
237.0053,-9.571078E-05
237.1053,-9.567404E-05
237.2053,-9.560059E-05
237.3053,-9.559494E-05
237.4053,-9.552431E-05
237.5053,-9.546686E-05
237.6053,-9.54405E-05
237.7053,-9.542637E-05
237.8053,-9.531619E-05
237.9053,-9.529359E-05
238.0053,-9.527381E-05
238.1053,-9.521731E-05
238.2053,-9.521919E-05
238.3053,-9.515139E-05
238.4053,-9.505627E-05
238.5054,-9.503744E-05
238.6054,-9.502048E-05
238.7054,-9.496869E-05
238.8054,-9.49056E-05
238.9054,-9.487075E-05
239.0054,-9.482272E-05
239.1054,-9.482084E-05
239.2054,-9.476057E-05
239.3054,-9.466545E-05
239.4054,-9.464567E-05
239.5054,-9.461554E-05
239.6054,-9.456281E-05
239.7054,-9.454868E-05
239.8054,-9.447899E-05
239.9054,-9.439894E-05
240.0054,-9.437916E-05
240.1055,-9.437351E-05
240.2055,-9.42558E-05
240.3055,-9.424732E-05
240.4055,-9.425015E-05
240.5055,-9.413149E-05
240.6055,-9.41249E-05
240.7055,-9.40731E-05
240.8055,-9.397799E-05
240.9055,-9.398646E-05
241.0055,-9.395727E-05
241.1055,-9.387157E-05
241.2055,-9.384709E-05
241.3055,-9.380283E-05
241.4055,-9.37209E-05
241.5055,-9.373125E-05
241.6055,-9.370488E-05
241.7056,-9.359376E-05
241.8056,-9.361072E-05
241.9056,-9.356269E-05
242.0056,-9.347039E-05
242.1056,-9.347699E-05
242.2056,-9.343743E-05
242.3056,-9.334043E-05
242.4056,-9.335551E-05
242.5056,-9.329712E-05
242.6056,-9.317846E-05
242.7056,-9.321143E-05
242.8056,-9.319635E-05
242.9056,-9.312195E-05
243.0056,-9.308146E-05
243.1056,-9.301366E-05
243.2056,-9.297128E-05
243.3056,-9.295339E-05
243.4057,-9.290348E-05
243.5057,-9.285451E-05
243.6057,-9.279329E-05
243.7057,-9.278387E-05
243.8057,-9.273209E-05
243.9057,-9.266239E-05
244.0057,-9.263132E-05
244.1057,-9.26266E-05
244.2057,-9.258423E-05
244.3057,-9.253997E-05
244.4057,-9.248441E-05
244.5057,-9.242696E-05
244.6057,-9.238458E-05
244.7057,-9.23422E-05
244.8057,-9.233089E-05
244.9057,-9.226592E-05
245.0058,-9.221224E-05
245.1058,-9.215668E-05
245.2058,-9.213125E-05
245.3058,-9.208699E-05
245.4058,-9.203802E-05
245.5058,-9.19721E-05
245.6058,-9.192972E-05
245.7058,-9.192219E-05
245.8058,-9.187604E-05
245.9058,-9.178564E-05
246.0058,-9.175832E-05
246.1058,-9.173196E-05
246.2058,-9.170559E-05
246.3058,-9.164438E-05
246.4058,-9.157845E-05
246.5058,-9.158129E-05
246.6059,-9.151818E-05
246.7059,-9.148617E-05
246.8059,-9.144097E-05
246.9059,-9.138635E-05
247.0059,-9.137316E-05
247.1059,-9.129688E-05
247.2059,-9.127617E-05
247.3059,-9.123566E-05
247.4059,-9.11801E-05
247.5059,-9.114902E-05
247.6059,-9.110005E-05
247.7059,-9.108499E-05
247.8059,-9.105486E-05
247.9059,-9.099082E-05
248.0059,-9.093526E-05
248.1059,-9.086369E-05
248.2059,-9.089099E-05
248.306,-9.081565E-05
248.406,-9.078552E-05
248.506,-9.072807E-05
248.606,-9.070547E-05
248.706,-9.064897E-05
248.806,-9.061506E-05
248.906,-9.058775E-05
249.006,-9.054161E-05
249.106,-9.0503E-05
249.206,-9.045308E-05
249.306,-9.042389E-05
249.406,-9.039941E-05
249.506,-9.034762E-05
249.606,-9.032313E-05
249.706,-9.025908E-05
249.806,-9.020918E-05
249.9061,-9.020259E-05
250.0061,-9.015362E-05
250.1061,-9.009806E-05
250.2061,-9.006981E-05
250.3061,-9.004815E-05
250.4061,-8.996903E-05
250.5061,-8.997657E-05
250.6061,-8.992667E-05
250.7061,-8.98711E-05
250.8061,-8.982496E-05
250.9061,-8.978069E-05
251.0061,-8.977127E-05
251.1061,-8.975621E-05
251.2061,-8.969217E-05
251.3061,-8.962248E-05
251.4061,-8.959894E-05
251.5061,-8.957162E-05
251.6062,-8.952265E-05
251.7062,-8.942189E-05
251.8062,-8.946803E-05
251.9062,-8.947274E-05
252.0062,-8.937763E-05
252.1062,-8.929287E-05
252.2062,-8.93004E-05
252.3062,-8.923166E-05
252.4062,-8.919116E-05
252.5062,-8.916009E-05
252.6062,-8.90904E-05
252.7062,-8.910076E-05
252.8062,-8.902731E-05
252.9062,-8.900282E-05
253.0062,-8.895103E-05
253.1062,-8.887568E-05
253.2063,-8.885779E-05
253.3063,-8.881824E-05
253.4063,-8.878433E-05
253.5063,-8.87429E-05
253.6063,-8.868922E-05
253.7063,-8.866945E-05
253.8063,-8.861577E-05
253.9063,-8.858657E-05
254.0063,-8.853761E-05
254.1063,-8.852254E-05
254.2063,-8.844532E-05
254.3063,-8.844343E-05
254.4063,-8.841141E-05
254.5063,-8.834832E-05
254.6063,-8.832006E-05
254.7063,-8.828333E-05
254.8064,-8.821836E-05
254.9064,-8.819011E-05
255.0064,-8.817598E-05
255.1064,-8.813172E-05
255.2064,-8.806391E-05
255.3064,-8.802437E-05
255.4064,-8.800552E-05
255.5064,-8.795656E-05
255.6064,-8.792642E-05
255.7064,-8.790477E-05
255.8064,-8.781907E-05
255.9064,-8.780588E-05
256.0064,-8.778422E-05
256.1064,-8.773619E-05
256.2064,-8.771077E-05
256.3064,-8.764485E-05
256.4064,-8.758363E-05
256.5064,-8.760059E-05
256.6064,-8.753184E-05
256.7065,-8.752148E-05
256.8065,-8.746968E-05
256.9065,-8.741883E-05
257.0065,-8.73774E-05
257.1065,-8.737551E-05
257.2065,-8.732371E-05
257.3065,-8.725874E-05
257.4065,-8.721164E-05
257.5065,-8.720129E-05
257.6065,-8.716738E-05
257.7065,-8.71316E-05
257.8065,-8.705155E-05
257.9065,-8.702707E-05
258.0065,-8.704308E-05
258.1065,-8.698563E-05
258.2065,-8.690746E-05
258.3065,-8.68858E-05
258.4066,-8.689146E-05
258.5066,-8.679823E-05
258.6066,-8.675585E-05
258.7066,-8.68293E-05
258.8066,-8.672383E-05
258.9066,-8.662401E-05
259.0066,-8.666733E-05
259.1066,-8.666261E-05
259.2066,-8.657221E-05
259.3066,-8.65562E-05
259.4066,-8.654772E-05
259.5066,-8.642248E-05
259.6066,-8.642153E-05
259.7066,-8.64253E-05
259.8066,-8.633867E-05
259.9066,-8.632454E-05
260.0067,-8.630759E-05
260.1067,-8.62492E-05
260.2067,-8.622378E-05
260.3067,-8.618704E-05
260.4067,-8.612301E-05
260.5067,-8.610512E-05
260.6067,-8.610512E-05
260.7067,-8.605991E-05
260.8067,-8.603166E-05
260.9067,-8.595349E-05
261.0067,-8.593372E-05
261.1067,-8.59064E-05
261.2067,-8.588004E-05
261.3067,-8.585838E-05
261.4067,-8.579435E-05
261.5067,-8.575855E-05
261.6068,-8.572371E-05
261.7068,-8.56851E-05
261.8068,-8.563802E-05
261.9068,-8.561824E-05
262.0068,-8.559752E-05
262.1068,-8.554573E-05
262.2068,-8.549205E-05
262.3068,-8.547227E-05
262.4068,-8.544025E-05
262.5068,-8.538375E-05
262.6068,-8.539505E-05
262.7068,-8.537244E-05
262.8068,-8.529993E-05
262.9068,-8.525096E-05
263.0068,-8.523306E-05
263.1068,-8.522271E-05
263.2068,-8.521047E-05
263.3069,-8.512289E-05
263.4069,-8.506073E-05
263.5069,-8.504096E-05
263.6069,-8.503813E-05
263.7069,-8.498446E-05
263.8069,-8.493831E-05
263.9069,-8.490817E-05
264.0069,-8.490629E-05
264.1069,-8.485826E-05
264.2069,-8.480552E-05
264.3069,-8.475185E-05
264.4069,-8.473019E-05
264.5069,-8.472076E-05
264.6069,-8.468781E-05
264.7069,-8.463224E-05
264.8069,-8.457951E-05
264.907,-8.455502E-05
265.007,-8.452394E-05
265.107,-8.449569E-05
265.207,-8.441565E-05
265.307,-8.444672E-05
265.407,-8.444201E-05
265.507,-8.439964E-05
265.607,-8.429981E-05
265.707,-8.429228E-05
265.807,-8.422824E-05
265.907,-8.418398E-05
266.007,-8.417645E-05
266.107,-8.413124E-05
266.207,-8.408039E-05
266.307,-8.40785E-05
266.407,-8.403802E-05
266.507,-8.397774E-05
266.6071,-8.396267E-05
266.7071,-8.391936E-05
266.8071,-8.38864E-05
266.9071,-8.386002E-05
267.0071,-8.384119E-05
267.1071,-8.383272E-05
267.2071,-8.374797E-05
267.3071,-8.372159E-05
267.4071,-8.370464E-05
267.5071,-8.367356E-05
267.6071,-8.36406E-05
267.7071,-8.358692E-05
267.8071,-8.355302E-05
267.9071,-8.350782E-05
268.0071,-8.349746E-05
268.1071,-8.346921E-05
268.2072,-8.344378E-05
268.3072,-8.336656E-05
268.4072,-8.335149E-05
268.5072,-8.331853E-05
268.6072,-8.331194E-05
268.7072,-8.326862E-05
268.8072,-8.322907E-05
268.9072,-8.319422E-05
269.0072,-8.321305E-05
269.1072,-8.312265E-05
269.2072,-8.311041E-05
269.3072,-8.306991E-05
269.4072,-8.304449E-05
269.5072,-8.301152E-05
269.6072,-8.297103E-05
269.7072,-8.291358E-05
269.8073,-8.291735E-05
269.9073,-8.289851E-05
270.0073,-8.287592E-05
270.1073,-8.284483E-05
270.2073,-8.279776E-05
270.3073,-8.272901E-05
270.4073,-8.274596E-05
270.5073,-8.271583E-05
270.6073,-8.266592E-05
270.7073,-8.264331E-05
270.8073,-8.260563E-05
270.9073,-8.258775E-05
271.0073,-8.254349E-05
271.1073,-8.247945E-05
271.2073,-8.247474E-05
271.3073,-8.242765E-05
271.4073,-8.242954E-05
271.5074,-8.237586E-05
271.6074,-8.237115E-05
271.7074,-8.233819E-05
271.8074,-8.228262E-05
271.9074,-8.226756E-05
272.0074,-8.222611E-05
272.1074,-8.215832E-05
272.2074,-8.217528E-05
272.3074,-8.214136E-05
272.4074,-8.207638E-05
272.5074,-8.205284E-05
272.6074,-8.205378E-05
272.7074,-8.199445E-05
272.8074,-8.196526E-05
272.9074,-8.193701E-05
273.0074,-8.187392E-05
273.1075,-8.185414E-05
273.2075,-8.186167E-05
273.3075,-8.179198E-05
273.4075,-8.177503E-05
273.5075,-8.171759E-05
273.6075,-8.171852E-05
273.7075,-8.166485E-05
273.8075,-8.162436E-05
273.9075,-8.159704E-05
274.0075,-8.156127E-05
274.1075,-8.160646E-05
274.2075,-8.156127E-05
274.3075,-8.151228E-05
274.4075,-8.145296E-05
274.5075,-8.139363E-05
274.6075,-8.141906E-05
274.7076,-8.140964E-05
274.8076,-8.132771E-05
274.9076,-8.13117E-05
275.0076,-8.127592E-05
275.1076,-8.121941E-05
275.2076,-8.118268E-05
275.3076,-8.118645E-05
275.4076,-8.109887E-05
275.5076,-8.110923E-05
275.6076,-8.10998E-05
275.7076,-8.103766E-05
275.8076,-8.100941E-05
275.9076,-8.099057E-05
276.0076,-8.091994E-05
276.1076,-8.092088E-05
276.2076,-8.08738E-05
276.3076,-8.083236E-05
276.4077,-8.08333E-05
276.5077,-8.078715E-05
276.6077,-8.070805E-05
276.7077,-8.074102E-05
276.8077,-8.074006E-05
276.9077,-8.065249E-05
277.0077,-8.064872E-05
277.1077,-8.06007E-05
277.2077,-8.052913E-05
277.3077,-8.05649E-05
277.4077,-8.051405E-05
277.5077,-8.043778E-05
277.6077,-8.041988E-05
277.7077,-8.040482E-05
277.8077,-8.034736E-05
277.9077,-8.035302E-05
278.0078,-8.034736E-05
278.1078,-8.025225E-05
278.2078,-8.025132E-05
278.3078,-8.024849E-05
278.4078,-8.018163E-05
278.5078,-8.015808E-05
278.6078,-8.01562E-05
278.7078,-8.007897E-05
278.8078,-8.005826E-05
278.9078,-8.006202E-05
279.0078,-8.002435E-05
279.1078,-8.003849E-05
279.2078,-7.995278E-05
279.3078,-7.992547E-05
279.4078,-7.991229E-05
279.5078,-7.987368E-05
279.6078,-7.982189E-05
279.7079,-7.983695E-05
279.8079,-7.976915E-05
279.9079,-7.971735E-05
280.0079,-7.973054E-05
280.1079,-7.969098E-05
280.2079,-7.963165E-05
280.3079,-7.963259E-05
280.4079,-7.959492E-05
280.5079,-7.95403E-05
280.6079,-7.955255E-05
280.7079,-7.950264E-05
280.8079,-7.943012E-05
280.9079,-7.943388E-05
281.0079,-7.944048E-05
281.1079,-7.937173E-05
281.2079,-7.935196E-05
281.308,-7.934066E-05
281.408,-7.925025E-05
281.508,-7.927002E-05
281.608,-7.926155E-05
281.708,-7.920881E-05
281.808,-7.915797E-05
281.908,-7.915043E-05
282.008,-7.910051E-05
282.108,-7.908922E-05
282.208,-7.907602E-05
282.308,-7.904119E-05
282.408,-7.89988E-05
282.508,-7.897055E-05
282.608,-7.891499E-05
282.708,-7.892441E-05
282.808,-7.890934E-05
282.9081,-7.883495E-05
283.0081,-7.888392E-05
283.1081,-7.883213E-05
283.2081,-7.872854E-05
283.3081,-7.874265E-05
283.4081,-7.874548E-05
283.5081,-7.865978E-05
283.6081,-7.86513E-05
283.7081,-7.862871E-05
283.8081,-7.856373E-05
283.9081,-7.85496E-05
284.0081,-7.856091E-05
284.1081,-7.849593E-05
284.2081,-7.845354E-05
284.3081,-7.845354E-05
284.4081,-7.837632E-05
284.5081,-7.839045E-05
284.6082,-7.836409E-05
284.7082,-7.830664E-05
284.8082,-7.828497E-05
284.9082,-7.827179E-05
285.0082,-7.822282E-05
285.1082,-7.818799E-05
285.2082,-7.820116E-05
285.3082,-7.813524E-05
285.4082,-7.814937E-05
285.5082,-7.813336E-05
285.6082,-7.80599E-05
285.7082,-7.804861E-05
285.8082,-7.799775E-05
285.9082,-7.794031E-05
286.0082,-7.794877E-05
286.1082,-7.794031E-05
286.2083,-7.786967E-05
286.3083,-7.786214E-05
286.4083,-7.78433E-05
286.5083,-7.776137E-05
286.6083,-7.775008E-05
286.7083,-7.776703E-05
286.8083,-7.767944E-05
286.9083,-7.768416E-05
287.0083,-7.766437E-05
287.1083,-7.763424E-05
287.2083,-7.758338E-05
287.3083,-7.754948E-05
287.4083,-7.751747E-05
287.5083,-7.752877E-05
287.6083,-7.74572E-05
287.7083,-7.741481E-05
287.8083,-7.744871E-05
287.9084,-7.740634E-05
288.0084,-7.733477E-05
288.1084,-7.735549E-05
288.2084,-7.731123E-05
288.3084,-7.725378E-05
288.4084,-7.726037E-05
288.5084,-7.722929E-05
288.6084,-7.717373E-05
288.7084,-7.717091E-05
288.8084,-7.71257E-05
288.9084,-7.708615E-05
289.0084,-7.708426E-05
289.1084,-7.706731E-05
289.2084,-7.699952E-05
289.3084,-7.699669E-05
289.4084,-7.696561E-05
289.5085,-7.6927E-05
289.6085,-7.692041E-05
289.7085,-7.686295E-05
289.8085,-7.68008E-05
289.9085,-7.683659E-05
290.0085,-7.681399E-05
290.1085,-7.673771E-05
290.2085,-7.672641E-05
290.3085,-7.672641E-05
290.4085,-7.664919E-05
290.5085,-7.666708E-05
290.6085,-7.66087E-05
290.7085,-7.658232E-05
290.8085,-7.655784E-05
290.9085,-7.652959E-05
291.0085,-7.65004E-05
291.1086,-7.648344E-05
291.2086,-7.645802E-05
291.3086,-7.637985E-05
291.4086,-7.640434E-05
291.5086,-7.639681E-05
291.6086,-7.633371E-05
291.7086,-7.624896E-05
291.8086,-7.632052E-05
291.9086,-7.629509E-05
292.0086,-7.624613E-05
292.1086,-7.623388E-05
292.2086,-7.621411E-05
292.3086,-7.614066E-05
292.4086,-7.614254E-05
292.5086,-7.610392E-05
292.6086,-7.605684E-05
292.7086,-7.603706E-05
292.8087,-7.59994E-05
292.9087,-7.594383E-05
293.0087,-7.5925E-05
293.1087,-7.591182E-05
293.2087,-7.588451E-05
293.3087,-7.583082E-05
293.4087,-7.579786E-05
293.5087,-7.576113E-05
293.6087,-7.574701E-05
293.7087,-7.572535E-05
293.8087,-7.570274E-05
293.9087,-7.567168E-05
294.0087,-7.561329E-05
294.1087,-7.560481E-05
294.2087,-7.558973E-05
294.3087,-7.555772E-05
294.4088,-7.554548E-05
294.5088,-7.550216E-05
294.6088,-7.547862E-05
294.7088,-7.544378E-05
294.8088,-7.542023E-05
294.9088,-7.539009E-05
295.0088,-7.53948E-05
295.1088,-7.536467E-05
295.2088,-7.530816E-05
295.3088,-7.528462E-05
295.4088,-7.529216E-05
295.5088,-7.52366E-05
295.6088,-7.520081E-05
295.7088,-7.518856E-05
295.8088,-7.518763E-05
295.9088,-7.513112E-05
296.0089,-7.513771E-05
296.1089,-7.506519E-05
296.2089,-7.504354E-05
296.3089,-7.502753E-05
296.4089,-7.501435E-05
296.5089,-7.497479E-05
296.6089,-7.495879E-05
296.7089,-7.493806E-05
296.8089,-7.487497E-05
296.9089,-7.484484E-05
297.0089,-7.482599E-05
297.1089,-7.482129E-05
297.2089,-7.47855E-05
297.3089,-7.474689E-05
297.4089,-7.47224E-05
297.5089,-7.4713E-05
297.6089,-7.470357E-05
297.709,-7.467815E-05
297.809,-7.462541E-05
297.909,-7.461882E-05
298.009,-7.456796E-05
298.109,-7.455383E-05
298.209,-7.453217E-05
298.309,-7.448321E-05
298.409,-7.446343E-05
298.509,-7.445213E-05
298.609,-7.44154E-05
298.709,-7.442011E-05
298.809,-7.437209E-05
298.909,-7.431935E-05
299.009,-7.431558E-05
299.109,-7.428733E-05
299.209,-7.427414E-05
299.3091,-7.425626E-05
299.4091,-7.421293E-05
299.5091,-7.417337E-05
299.6091,-7.419315E-05
299.7091,-7.420822E-05
299.8091,-7.412629E-05
299.9091,-7.408769E-05
300.0091,-7.410369E-05
300.1091,-7.404813E-05
300.2091,-7.400104E-05
300.3091,-7.396901E-05
300.4091,-7.395302E-05
300.5091,-7.392947E-05
300.6091,-7.388896E-05
300.7091,-7.383906E-05
300.8091,-7.383058E-05
300.9091,-7.384848E-05
301.0092,-7.380799E-05
301.1092,-7.377408E-05
301.2092,-7.375713E-05
301.3092,-7.369969E-05
301.4092,-7.370063E-05
301.5092,-7.370533E-05
301.6092,-7.366956E-05
301.7092,-7.362435E-05
301.8092,-7.357443E-05
301.9092,-7.356314E-05
302.0092,-7.35556E-05
302.1092,-7.35377E-05
302.2092,-7.34925E-05
302.3092,-7.345954E-05
302.4092,-7.345578E-05
302.5092,-7.342093E-05
302.6093,-7.339362E-05
302.7093,-7.336443E-05
302.8093,-7.336631E-05
302.9093,-7.332111E-05
303.0093,-7.33051E-05
303.1093,-7.329098E-05
303.2093,-7.322599E-05
303.3093,-7.321752E-05
303.4093,-7.320246E-05
303.5093,-7.31516E-05
303.6093,-7.313747E-05
303.7093,-7.310735E-05
303.8093,-7.309038E-05
303.9093,-7.303765E-05
304.0093,-7.30367E-05
304.1093,-7.301693E-05
304.2094,-7.295007E-05
304.3094,-7.298208E-05
304.4094,-7.294348E-05
304.5094,-7.289732E-05
304.6094,-7.288509E-05
304.7094,-7.28606E-05
304.8094,-7.284177E-05
304.9094,-7.2822E-05
305.0094,-7.279657E-05
305.1094,-7.276078E-05
305.2094,-7.270522E-05
305.3094,-7.268356E-05
305.4094,-7.26619E-05
305.5094,-7.265531E-05
305.6094,-7.265154E-05
305.7094,-7.255454E-05
305.8094,-7.255925E-05
305.9095,-7.259221E-05
306.0095,-7.25715E-05
306.1095,-7.250086E-05
306.2095,-7.24632E-05
306.3095,-7.24839E-05
306.4095,-7.240763E-05
306.5095,-7.239915E-05
306.6095,-7.237938E-05
306.7095,-7.234453E-05
306.8095,-7.232287E-05
306.9095,-7.23031E-05
307.0095,-7.229086E-05
307.1095,-7.224754E-05
307.2095,-7.223906E-05
307.3095,-7.221458E-05
307.4095,-7.217502E-05
307.5096,-7.214866E-05
307.6096,-7.215148E-05
307.7096,-7.211663E-05
307.8096,-7.209498E-05
307.9096,-7.205919E-05
308.0096,-7.205165E-05
308.1096,-7.204883E-05
308.2096,-7.202717E-05
308.3096,-7.197726E-05
308.4096,-7.19603E-05
308.5096,-7.19151E-05
308.6096,-7.192358E-05
308.7096,-7.192546E-05
308.8096,-7.188497E-05
308.9096,-7.187085E-05
309.0096,-7.181717E-05
309.1096,-7.181623E-05
309.2097,-7.177196E-05
309.3097,-7.174371E-05
309.4097,-7.170981E-05
309.5097,-7.169098E-05
309.6097,-7.172299E-05
309.7097,-7.16486E-05
309.8097,-7.164389E-05
309.9097,-7.160904E-05
310.0097,-7.157326E-05
310.1097,-7.156949E-05
310.2097,-7.155913E-05
310.3097,-7.150263E-05
310.4097,-7.148285E-05
310.5097,-7.145271E-05
310.6097,-7.144707E-05
310.7097,-7.146213E-05
310.8098,-7.140658E-05
310.9098,-7.133971E-05
311.0098,-7.136231E-05
311.1098,-7.132558E-05
311.2098,-7.13237E-05
311.3098,-7.128414E-05
311.4098,-7.125777E-05
311.5098,-7.127472E-05
311.6098,-7.125684E-05
311.7098,-7.121162E-05
311.8098,-7.115513E-05
311.9098,-7.114665E-05
312.0098,-7.110615E-05
312.1098,-7.108074E-05
312.2098,-7.10958E-05
312.3098,-7.103929E-05
312.4099,-7.099221E-05
312.5099,-7.100728E-05
312.6099,-7.095737E-05
312.7099,-7.0931E-05
312.8099,-7.093287E-05
312.9099,-7.089991E-05
313.0099,-7.085095E-05
313.1099,-7.083682E-05
313.2099,-7.085755E-05
313.3099,-7.078973E-05
313.4099,-7.079821E-05
313.5099,-7.076619E-05
313.6099,-7.072288E-05
313.7099,-7.070122E-05
313.8099,-7.070686E-05
313.9099,-7.065412E-05
314.0099,-7.062116E-05
314.11,-7.066731E-05
314.21,-7.059291E-05
314.31,-7.055995E-05
314.41,-7.055713E-05
314.51,-7.049592E-05
314.61,-7.049026E-05
314.71,-7.049969E-05
314.81,-7.044695E-05
314.91,-7.043376E-05
315.01,-7.04008E-05
315.11,-7.039515E-05
315.21,-7.039327E-05
315.31,-7.032169E-05
315.41,-7.029156E-05
315.51,-7.030193E-05
315.61,-7.02765E-05
315.7101,-7.022093E-05
315.8101,-7.022469E-05
315.9101,-7.018137E-05
316.0101,-7.015972E-05
316.1101,-7.015312E-05
316.2101,-7.013994E-05
316.3101,-7.008814E-05
316.4101,-7.007308E-05
316.5101,-7.00533E-05
316.6101,-7.003258E-05
316.7101,-7.00128E-05
316.8101,-6.998079E-05
316.9101,-6.994783E-05
317.0101,-6.995066E-05
317.1101,-6.993464E-05
317.2101,-6.988567E-05
317.3102,-6.986119E-05
317.4102,-6.985271E-05
317.5102,-6.982823E-05
317.6102,-6.982258E-05
317.7102,-6.978962E-05
317.8102,-6.971617E-05
317.9102,-6.974065E-05
318.0102,-6.969262E-05
318.1102,-6.965024E-05
318.2102,-6.961163E-05
318.3102,-6.963141E-05
318.4102,-6.96088E-05
318.5102,-6.955701E-05
318.6102,-6.954194E-05
318.7102,-6.951369E-05
318.8102,-6.950428E-05
318.9102,-6.949485E-05
319.0103,-6.946284E-05
319.1103,-6.943647E-05
319.2103,-6.941575E-05
319.3103,-6.937902E-05
319.4103,-6.935077E-05
319.5103,-6.935171E-05
319.6103,-6.93762E-05
319.7103,-6.930556E-05
319.8103,-6.931121E-05
319.9103,-6.927919E-05
320.0103,-6.923588E-05
320.1103,-6.924718E-05
320.2103,-6.921516E-05
320.3103,-6.916618E-05
320.4103,-6.917185E-05
320.5103,-6.915018E-05
320.6104,-6.911911E-05
320.7104,-6.906637E-05
320.8104,-6.907673E-05
320.9104,-6.904377E-05
321.0104,-6.90739E-05
321.1104,-6.903435E-05
321.2104,-6.895713E-05
321.3104,-6.895619E-05
321.4104,-6.894582E-05
321.5104,-6.892323E-05
321.6104,-6.893169E-05
321.7104,-6.889403E-05
321.8104,-6.883941E-05
321.9104,-6.883941E-05
322.0104,-6.88413E-05
322.1104,-6.880174E-05
322.2104,-6.87895E-05
322.3105,-6.881681E-05
322.4105,-6.87217E-05
322.5105,-6.871416E-05
322.6105,-6.871604E-05
322.7105,-6.865107E-05
322.8105,-6.867932E-05
322.9105,-6.865671E-05
323.0105,-6.858609E-05
323.1105,-6.859739E-05
323.2105,-6.859644E-05
323.3105,-6.85277E-05
323.4105,-6.856066E-05
323.5105,-6.850886E-05
323.6105,-6.844295E-05
323.7105,-6.848155E-05
323.8105,-6.847779E-05
323.9106,-6.838926E-05
324.0106,-6.838926E-05
324.1106,-6.838926E-05
324.2106,-6.835913E-05
324.3106,-6.833464E-05
324.4106,-6.834406E-05
324.5106,-6.829508E-05
324.6106,-6.829132E-05
324.7106,-6.827437E-05
324.8106,-6.82207E-05
324.9106,-6.821599E-05
325.0106,-6.821881E-05
325.1106,-6.816325E-05
325.2106,-6.814253E-05
325.3106,-6.811052E-05
325.4106,-6.808414E-05
325.5107,-6.810203E-05
325.6107,-6.808509E-05
325.7107,-6.803611E-05
325.8107,-6.802576E-05
325.9107,-6.801727E-05
326.0107,-6.797396E-05
326.1107,-6.79523E-05
326.2107,-6.790239E-05
326.3107,-6.789109E-05
326.4107,-6.791275E-05
326.5107,-6.790992E-05
326.6107,-6.782611E-05
326.7107,-6.781763E-05
326.8107,-6.780633E-05
326.9107,-6.777808E-05
327.0107,-6.778655E-05
327.1107,-6.775548E-05
327.2108,-6.772252E-05
327.3108,-6.76952E-05
327.4108,-6.77131E-05
327.5108,-6.764624E-05
327.6108,-6.765471E-05
327.7108,-6.765848E-05
327.8108,-6.760763E-05
327.9108,-6.758973E-05
328.0108,-6.756995E-05
328.1108,-6.750309E-05
328.2108,-6.751062E-05
328.3108,-6.748991E-05
328.4108,-6.74513E-05
328.5108,-6.742775E-05
328.6108,-6.741457E-05
328.7108,-6.736748E-05
328.8109,-6.73995E-05
328.9109,-6.7359E-05
329.0109,-6.727708E-05
329.1109,-6.731474E-05
329.2109,-6.731757E-05
329.3109,-6.725918E-05
329.4109,-6.727802E-05
329.5109,-6.721493E-05
329.6109,-6.715089E-05
329.7109,-6.71848E-05
329.8109,-6.71782E-05
329.9109,-6.714429E-05
330.0109,-6.713488E-05
330.1109,-6.713017E-05
330.2109,-6.704635E-05
330.3109,-6.702469E-05
330.4109,-6.703505E-05
330.511,-6.701152E-05
330.611,-6.700963E-05
330.711,-6.69729E-05
330.811,-6.691734E-05
330.911,-6.691922E-05
331.011,-6.694088E-05
331.111,-6.687685E-05
331.211,-6.687873E-05
331.311,-6.683164E-05
331.411,-6.686648E-05
331.511,-6.68646E-05
331.611,-6.680904E-05
331.711,-6.675159E-05
331.811,-6.675537E-05
331.911,-6.675442E-05
332.011,-6.669603E-05
332.1111,-6.669226E-05
332.2111,-6.666777E-05
332.3111,-6.661033E-05
332.4111,-6.662351E-05
332.5111,-6.662917E-05
332.6111,-6.657643E-05
332.7111,-6.65849E-05
332.8111,-6.654535E-05
332.9111,-6.651428E-05
333.0111,-6.652934E-05
333.1111,-6.65171E-05
333.2111,-6.647284E-05
333.3111,-6.647189E-05
333.4111,-6.643046E-05
333.5111,-6.642198E-05
333.6111,-6.642387E-05
333.7112,-6.638055E-05
333.8112,-6.635324E-05
333.9112,-6.634006E-05
334.0112,-6.633535E-05
334.1112,-6.629674E-05
334.2112,-6.627319E-05
334.3112,-6.628073E-05
334.4112,-6.623082E-05
334.5112,-6.623929E-05
334.6112,-6.623458E-05
334.7112,-6.615547E-05
334.8112,-6.618656E-05
334.9112,-6.620162E-05
335.0112,-6.611404E-05
335.1112,-6.610556E-05
335.2112,-6.608107E-05
335.3112,-6.607542E-05
335.4113,-6.60679E-05
335.5113,-6.603588E-05
335.6113,-6.601704E-05
335.7113,-6.599067E-05
335.8113,-6.597373E-05
335.9113,-6.593228E-05
336.0113,-6.594264E-05
336.1113,-6.593417E-05
336.2113,-6.588237E-05
336.3113,-6.587202E-05
336.4113,-6.584376E-05
336.5113,-6.583341E-05
336.6113,-6.584659E-05
336.7113,-6.580704E-05
336.8113,-6.576371E-05
336.9113,-6.575336E-05
337.0114,-6.575618E-05
337.1114,-6.570533E-05
337.2114,-6.569215E-05
337.3114,-6.57204E-05
337.4114,-6.567802E-05
337.5114,-6.564317E-05
337.6114,-6.56008E-05
337.7114,-6.555654E-05
337.8114,-6.55782E-05
337.9114,-6.55782E-05
338.0114,-6.553675E-05
338.1114,-6.551133E-05
338.2114,-6.55038E-05
338.3114,-6.547931E-05
338.4114,-6.547931E-05
338.5114,-6.547178E-05
338.6115,-6.540963E-05
338.7115,-6.543694E-05
338.8115,-6.538985E-05
338.9115,-6.536066E-05
339.0115,-6.535501E-05
339.1115,-6.533429E-05
339.2115,-6.531168E-05
339.3115,-6.527967E-05
339.4115,-6.526554E-05
339.5115,-6.518926E-05
339.6115,-6.519962E-05
339.7115,-6.520903E-05
339.8115,-6.516101E-05
339.9115,-6.51337E-05
340.0115,-6.513653E-05
340.1115,-6.512427E-05
340.2115,-6.509132E-05
340.3116,-6.509414E-05
340.4116,-6.508284E-05
340.5116,-6.499809E-05
340.6116,-6.500939E-05
340.7116,-6.499903E-05
340.8116,-6.496607E-05
340.9116,-6.496513E-05
341.0116,-6.49284E-05
341.1116,-6.493781E-05
341.2116,-6.486624E-05
341.3116,-6.484552E-05
341.4116,-6.484458E-05
341.5116,-6.483422E-05
341.6116,-6.480409E-05
341.7116,-6.477584E-05
341.8116,-6.476077E-05
341.9117,-6.472969E-05
342.0117,-6.472781E-05
342.1117,-6.472028E-05
342.2117,-6.467413E-05
342.3117,-6.461574E-05
342.4117,-6.46487E-05
342.5117,-6.465342E-05
342.6117,-6.460633E-05
342.7117,-6.458937E-05
342.8117,-6.45583E-05
342.9117,-6.453005E-05
343.0117,-6.454135E-05
343.1117,-6.452345E-05
343.2117,-6.449991E-05
343.3117,-6.446319E-05
343.4117,-6.441421E-05
343.5117,-6.445282E-05
343.6118,-6.440197E-05
343.7118,-6.436524E-05
343.8118,-6.435018E-05
343.9118,-6.435206E-05
344.0118,-6.432381E-05
344.1118,-6.432475E-05
344.2118,-6.428708E-05
344.3118,-6.4256E-05
344.4118,-6.425317E-05
344.5118,-6.423528E-05
344.6118,-6.420704E-05
344.7118,-6.418632E-05
344.8118,-6.416277E-05
344.9118,-6.416465E-05
345.0118,-6.414582E-05
345.1118,-6.411286E-05
345.2119,-6.407802E-05
345.3119,-6.405164E-05
345.4119,-6.407802E-05
345.5119,-6.403658E-05
345.6119,-6.403282E-05
345.7119,-6.399232E-05
345.8119,-6.396783E-05
345.9119,-6.3933E-05
346.0119,-6.393958E-05
346.1119,-6.394146E-05
346.2119,-6.392263E-05
346.3119,-6.387554E-05
346.4119,-6.386235E-05
346.5119,-6.383976E-05
346.6119,-6.38341E-05
346.7119,-6.381433E-05
346.812,-6.381151E-05
346.912,-6.381151E-05
347.012,-6.373805E-05
347.112,-6.372864E-05
347.212,-6.372957E-05
347.312,-6.373147E-05
347.412,-6.369568E-05
347.512,-6.366082E-05
347.612,-6.365141E-05
347.712,-6.360056E-05
347.812,-6.36241E-05
347.912,-6.360339E-05
348.012,-6.358455E-05
348.112,-6.356665E-05
348.212,-6.353558E-05
348.312,-6.352051E-05
348.412,-6.353088E-05
348.5121,-6.350827E-05
348.6121,-6.347532E-05
348.7121,-6.34932E-05
348.8121,-6.344517E-05
348.9121,-6.339244E-05
349.0121,-6.345459E-05
349.1121,-6.341504E-05
349.2121,-6.336231E-05
349.3121,-6.33576E-05
349.4121,-6.334158E-05
349.5121,-6.330956E-05
349.6121,-6.330392E-05
349.7121,-6.326342E-05
349.8121,-6.321538E-05
349.9121,-6.321351E-05
350.0121,-6.323234E-05
350.1122,-6.319656E-05
350.2122,-6.31749E-05
350.3122,-6.3141E-05
350.4122,-6.313629E-05
350.5122,-6.313441E-05
350.6122,-6.311556E-05
350.7122,-6.306377E-05
350.8122,-6.307884E-05
350.9122,-6.309485E-05
351.0122,-6.305718E-05
351.1122,-6.30374E-05
351.2122,-6.300162E-05
351.3122,-6.296206E-05
351.4122,-6.299879E-05
351.5122,-6.294699E-05
351.6122,-6.293476E-05
351.7122,-6.291027E-05
351.8123,-6.287542E-05
351.9123,-6.290744E-05
352.0123,-6.291216E-05
352.1123,-6.28387E-05
352.2123,-6.281045E-05
352.3123,-6.28208E-05
352.4123,-6.279161E-05
352.5123,-6.277466E-05
352.6123,-6.274264E-05
352.7123,-6.275112E-05
352.8123,-6.270309E-05
352.9123,-6.271439E-05
353.0123,-6.268614E-05
353.1123,-6.262681E-05
353.2123,-6.263999E-05
353.3123,-6.264941E-05
353.4124,-6.261833E-05
353.5124,-6.260044E-05
353.6124,-6.257878E-05
353.7124,-6.25411E-05
353.8124,-6.254865E-05
353.9124,-6.255806E-05
354.0124,-6.249026E-05
354.1124,-6.248931E-05
354.2124,-6.246672E-05
354.3124,-6.244694E-05
354.4124,-6.243564E-05
354.5124,-6.244223E-05
354.6124,-6.238007E-05
354.7124,-6.238102E-05
354.8124,-6.237254E-05
354.9124,-6.233864E-05
355.0125,-6.231227E-05
355.1125,-6.232828E-05
355.2125,-6.226047E-05
355.3125,-6.226047E-05
355.4125,-6.226895E-05
355.5125,-6.222281E-05
355.6125,-6.219832E-05
355.7125,-6.218419E-05
355.8125,-6.218514E-05
355.9125,-6.219361E-05
356.0125,-6.2155E-05
356.1125,-6.208061E-05
356.2125,-6.208343E-05
356.3125,-6.208532E-05
356.4125,-6.208343E-05
356.5125,-6.204105E-05
356.6125,-6.202975E-05
356.7126,-6.199773E-05
356.8126,-6.199585E-05
356.9126,-6.197701E-05
357.0126,-6.195253E-05
357.1126,-6.195158E-05
357.2126,-6.192428E-05
357.3126,-6.189414E-05
357.4126,-6.187813E-05
357.5126,-6.189414E-05
357.6126,-6.185459E-05
357.7126,-6.183857E-05
357.8126,-6.181504E-05
357.9126,-6.180656E-05
358.0126,-6.183857E-05
358.1126,-6.179903E-05
358.2126,-6.171333E-05
358.3127,-6.172369E-05
358.4127,-6.173405E-05
358.5127,-6.168884E-05
358.6127,-6.168414E-05
358.7127,-6.168979E-05
358.8127,-6.166531E-05
358.9127,-6.161351E-05
359.0127,-6.164741E-05
359.1127,-6.164647E-05
359.2127,-6.158431E-05
359.3127,-6.155512E-05
359.4127,-6.153534E-05
359.5127,-6.152028E-05
359.6127,-6.151933E-05
359.7127,-6.145529E-05
359.8127,-6.143928E-05
359.9128,-6.143175E-05
360.0128,-6.140538E-05
360.1128,-6.138937E-05
360.2128,-6.141951E-05
360.3128,-6.133098E-05
360.4128,-6.134794E-05
360.5128,-6.13517E-05
360.6128,-6.129426E-05
360.7128,-6.127448E-05
360.8128,-6.12952E-05
360.9128,-6.130274E-05
361.0128,-6.127166E-05
361.1128,-6.124529E-05
361.2128,-6.122363E-05
361.3128,-6.119915E-05
361.4128,-6.122269E-05
361.5128,-6.119443E-05
361.6129,-6.114358E-05
361.7129,-6.11709E-05
361.8129,-6.111721E-05
361.9129,-6.112098E-05
362.0129,-6.111533E-05
362.1129,-6.108802E-05
362.2129,-6.106542E-05
362.3129,-6.104753E-05
362.4129,-6.101927E-05
362.5129,-6.100232E-05
362.6129,-6.100609E-05
362.7129,-6.0959E-05
362.8129,-6.093263E-05
362.9129,-6.094205E-05
363.0129,-6.095618E-05
363.1129,-6.089779E-05
363.213,-6.089967E-05
363.313,-6.08686E-05
363.413,-6.08507E-05
363.513,-6.086671E-05
363.613,-6.082151E-05
363.713,-6.080362E-05
363.813,-6.078949E-05
363.913,-6.077536E-05
364.013,-6.076406E-05
364.113,-6.072074E-05
364.213,-6.069909E-05
364.313,-6.070097E-05
364.413,-6.071133E-05
364.513,-6.0668E-05
364.613,-6.062469E-05
364.713,-6.065482E-05
364.813,-6.064258E-05
364.9131,-6.057007E-05
365.0131,-6.058137E-05
365.1131,-6.057854E-05
365.2131,-6.054841E-05
365.3131,-6.054746E-05
365.4131,-6.05098E-05
365.5131,-6.04693E-05
365.6131,-6.04985E-05
365.7131,-6.050885E-05
365.8131,-6.043916E-05
365.9131,-6.043163E-05
366.0131,-6.042033E-05
366.1131,-6.040338E-05
366.2131,-6.042598E-05
366.3131,-6.038832E-05
366.4131,-6.03384E-05
366.5132,-6.036759E-05
366.6132,-6.032333E-05
366.7132,-6.030167E-05
366.8132,-6.033181E-05
366.9132,-6.028755E-05
367.0132,-6.024705E-05
367.1132,-6.025176E-05
367.2132,-6.024046E-05
367.3132,-6.022822E-05
367.4132,-6.022539E-05
367.5132,-6.015476E-05
367.6132,-6.016889E-05
367.7132,-6.021315E-05
367.8132,-6.016889E-05
367.9132,-6.011144E-05
368.0132,-6.012934E-05
368.1133,-6.013875E-05
368.2133,-6.009449E-05
368.3133,-6.008414E-05
368.4133,-6.006247E-05
368.5133,-6.000503E-05
368.6133,-6.002857E-05
368.7133,-6.001821E-05
368.8133,-5.997113E-05
368.9133,-5.995794E-05
369.0133,-5.997677E-05
369.1133,-5.994758E-05
369.2133,-5.994664E-05
369.3133,-5.991368E-05
369.4133,-5.987319E-05
369.5133,-5.986659E-05
369.6133,-5.987036E-05
369.7133,-5.983269E-05
369.8134,-5.982893E-05
369.9134,-5.981292E-05
370.0134,-5.977242E-05
370.1134,-5.976394E-05
370.2134,-5.977524E-05
370.3134,-5.971968E-05
370.4134,-5.973098E-05
370.5134,-5.969897E-05
370.6134,-5.96547E-05
370.7134,-5.96613E-05
370.8134,-5.964246E-05
370.9134,-5.961327E-05
371.0134,-5.961232E-05
371.1134,-5.959255E-05
371.2134,-5.955205E-05
371.3134,-5.954075E-05
371.4135,-5.954735E-05
371.5135,-5.949084E-05
371.6135,-5.950403E-05
371.7135,-5.945505E-05
371.8135,-5.94155E-05
371.9135,-5.941644E-05
372.0135,-5.943151E-05
372.1135,-5.937124E-05
372.2135,-5.937689E-05
372.3135,-5.936182E-05
372.4135,-5.936748E-05
372.5135,-5.931474E-05
372.6135,-5.931286E-05
372.7135,-5.925918E-05
372.8135,-5.928084E-05
372.9135,-5.926577E-05
373.0135,-5.918384E-05
373.1136,-5.918007E-05
373.2136,-5.917348E-05
373.3136,-5.916972E-05
373.4136,-5.914146E-05
373.5136,-5.911697E-05
373.6136,-5.910568E-05
373.7136,-5.911227E-05
373.8136,-5.908025E-05
373.9136,-5.902186E-05
374.0136,-5.912357E-05
374.1136,-5.910756E-05
374.2136,-5.905011E-05
374.3136,-5.902845E-05
374.4136,-5.900302E-05
374.5136,-5.899361E-05
374.6136,-5.899078E-05
374.7137,-5.897101E-05
374.8137,-5.891168E-05
374.9137,-5.892957E-05
375.0137,-5.892486E-05
375.1137,-5.88919E-05
375.2137,-5.888342E-05
375.3137,-5.887684E-05
375.4137,-5.887024E-05
375.5137,-5.883634E-05
375.6137,-5.882975E-05
375.7137,-5.884859E-05
375.8137,-5.878548E-05
375.9137,-5.879396E-05
376.0137,-5.879208E-05
376.1137,-5.87836E-05
376.2137,-5.8761E-05
376.3138,-5.873652E-05
376.4138,-5.868754E-05
376.5138,-5.873652E-05
376.6138,-5.876289E-05
376.7138,-5.871768E-05
376.8138,-5.866118E-05
376.9138,-5.868849E-05
377.0138,-5.864988E-05
377.1138,-5.864705E-05
377.2138,-5.862163E-05
377.3138,-5.863858E-05
377.4138,-5.859902E-05
377.5138,-5.860091E-05
377.6138,-5.856889E-05
377.7138,-5.855759E-05
377.8138,-5.853875E-05
377.9138,-5.854723E-05
378.0139,-5.855382E-05
378.1139,-5.85105E-05
378.2139,-5.848602E-05
378.3139,-5.848413E-05
378.4139,-5.848319E-05
378.5139,-5.846153E-05
378.6139,-5.845494E-05
378.7139,-5.84248E-05
378.8139,-5.841256E-05
378.9139,-5.841727E-05
379.0139,-5.840032E-05
379.1139,-5.837866E-05
379.2139,-5.83617E-05
379.3139,-5.833345E-05
379.4139,-5.834475E-05
379.5139,-5.832498E-05
379.614,-5.830049E-05
379.714,-5.830521E-05
379.814,-5.829202E-05
379.914,-5.827224E-05
380.014,-5.825718E-05
380.114,-5.826753E-05
380.214,-5.826283E-05
380.314,-5.823646E-05
380.414,-5.820067E-05
380.514,-5.816771E-05
380.614,-5.817054E-05
380.714,-5.818937E-05
380.814,-5.815264E-05
380.914,-5.816583E-05
381.014,-5.814605E-05
381.114,-5.810179E-05
381.2141,-5.810556E-05
381.3141,-5.810838E-05
381.4141,-5.806882E-05
381.5141,-5.806412E-05
381.6141,-5.805376E-05
381.7141,-5.805188E-05
381.8141,-5.801421E-05
381.9141,-5.800103E-05
382.0141,-5.799537E-05
382.1141,-5.800197E-05
382.2141,-5.7953E-05
382.3141,-5.795017E-05
382.4141,-5.795205E-05
382.5141,-5.791344E-05
382.6141,-5.793039E-05
382.7141,-5.791721E-05
382.8141,-5.788613E-05
382.9142,-5.786636E-05
383.0142,-5.784847E-05
383.1142,-5.78673E-05
383.2142,-5.78334E-05
383.3142,-5.78268E-05
383.4142,-5.780797E-05
383.5142,-5.777595E-05
383.6142,-5.777595E-05
383.7142,-5.777406E-05
383.8142,-5.775712E-05
383.9142,-5.771474E-05
384.0142,-5.771003E-05
384.1142,-5.768743E-05
384.2142,-5.769685E-05
384.3142,-5.770532E-05
384.4142,-5.7662E-05
384.5143,-5.762621E-05
384.6143,-5.76507E-05
384.7143,-5.763752E-05
384.8143,-5.761679E-05
384.9143,-5.760455E-05
385.0143,-5.755653E-05
385.1143,-5.756877E-05
385.2143,-5.75716E-05
385.3143,-5.75311E-05
385.4143,-5.754899E-05
385.5143,-5.754899E-05
385.6143,-5.749814E-05
385.7143,-5.74793E-05
385.8143,-5.746895E-05
385.9143,-5.746518E-05
386.0143,-5.746047E-05
386.1143,-5.744823E-05
386.2144,-5.740208E-05
386.3144,-5.741338E-05
386.4144,-5.74228E-05
386.5144,-5.738702E-05
386.6144,-5.736629E-05
386.7144,-5.738607E-05
386.8144,-5.731356E-05
386.9144,-5.735876E-05
387.0144,-5.733428E-05
387.1144,-5.728907E-05
387.2144,-5.727872E-05
387.3144,-5.725329E-05
387.4144,-5.72354E-05
387.5144,-5.72401E-05
387.6144,-5.723916E-05
387.7144,-5.720338E-05
387.8145,-5.717325E-05
387.9145,-5.718831E-05
388.0145,-5.716195E-05
388.1145,-5.714593E-05
388.2145,-5.712333E-05
388.3145,-5.710921E-05
388.4145,-5.710073E-05
388.5145,-5.710261E-05
388.6145,-5.705176E-05
388.7145,-5.7064E-05
388.8145,-5.705082E-05
388.9145,-5.702539E-05
389.0145,-5.700185E-05
389.1145,-5.701503E-05
389.2145,-5.701221E-05
389.3145,-5.697171E-05
389.4146,-5.695947E-05
389.5146,-5.695006E-05
389.6146,-5.692839E-05
389.7146,-5.693875E-05
389.8146,-5.690768E-05
389.9146,-5.686624E-05
390.0146,-5.686907E-05
390.1146,-5.685211E-05
390.2146,-5.682951E-05
390.3146,-5.681727E-05
390.4146,-5.68135E-05
390.5146,-5.676265E-05
390.6146,-5.677771E-05
390.7146,-5.676076E-05
390.8146,-5.675135E-05
390.9146,-5.67344E-05
391.0146,-5.669013E-05
391.1147,-5.669202E-05
391.2147,-5.669107E-05
391.3147,-5.66487E-05
391.4147,-5.663551E-05
391.5147,-5.663175E-05
391.6147,-5.663834E-05
391.7147,-5.658466E-05
391.8147,-5.66148E-05
391.9147,-5.659219E-05
392.0147,-5.656582E-05
392.1147,-5.657995E-05
392.2147,-5.654793E-05
392.3147,-5.64839E-05
392.4147,-5.650838E-05
392.5147,-5.649991E-05
392.6147,-5.644529E-05
392.7148,-5.644622E-05
392.8148,-5.641609E-05
392.9148,-5.63869E-05
393.0148,-5.640667E-05
393.1148,-5.638878E-05
393.2148,-5.633793E-05
393.3148,-5.638313E-05
393.4148,-5.634923E-05
393.5148,-5.632568E-05
393.6148,-5.631344E-05
393.7148,-5.629367E-05
393.8148,-5.627389E-05
393.9148,-5.627201E-05
394.0148,-5.624753E-05
394.1148,-5.61929E-05
394.2148,-5.619102E-05
394.3148,-5.620608E-05
394.4149,-5.61816E-05
394.5149,-5.619667E-05
394.6149,-5.614675E-05
394.7149,-5.610061E-05
394.8149,-5.609873E-05
394.9149,-5.609967E-05
395.0149,-5.60733E-05
395.1149,-5.606483E-05
395.2149,-5.607424E-05
395.3149,-5.601114E-05
395.4149,-5.600832E-05
395.5149,-5.601114E-05
395.6149,-5.600361E-05
395.7149,-5.602622E-05
395.8149,-5.59763E-05
395.9149,-5.59311E-05
396.015,-5.59311E-05
396.115,-5.594334E-05
396.215,-5.591038E-05
396.315,-5.588778E-05
396.415,-5.587648E-05
396.515,-5.583786E-05
396.615,-5.583692E-05
396.715,-5.583598E-05
396.815,-5.580867E-05
396.915,-5.578513E-05
397.015,-5.579832E-05
397.115,-5.577007E-05
397.215,-5.575405E-05
397.315,-5.575405E-05
397.415,-5.572015E-05
397.515,-5.570697E-05
397.6151,-5.570697E-05
397.7151,-5.570791E-05
397.8151,-5.568907E-05
397.9151,-5.566647E-05
398.0151,-5.565894E-05
398.1151,-5.56514E-05
398.2151,-5.564199E-05
398.3151,-5.559114E-05
398.4151,-5.559678E-05
398.5151,-5.559773E-05
398.6151,-5.559678E-05
398.7151,-5.559114E-05
398.8151,-5.553934E-05
398.9151,-5.552992E-05
399.0151,-5.554028E-05
399.1151,-5.553651E-05
399.2151,-5.549979E-05
399.3152,-5.549696E-05
399.4152,-5.548942E-05
399.5152,-5.544328E-05
399.6152,-5.546683E-05
399.7152,-5.546965E-05
399.8152,-5.543669E-05
399.9152,-5.544328E-05
400.0152,-5.543857E-05
400.1152,-5.538301E-05
400.2152,-5.538489E-05
400.3152,-5.538584E-05
400.4152,-5.533404E-05
400.5152,-5.535476E-05
400.6152,-5.536983E-05
400.7152,-5.530956E-05
400.8152,-5.532556E-05
400.9153,-5.530579E-05
401.0153,-5.528319E-05
401.1153,-5.528601E-05
401.2153,-5.530108E-05
401.3153,-5.523987E-05
401.4153,-5.522951E-05
401.5153,-5.52361E-05
401.6153,-5.522669E-05
401.7153,-5.523045E-05
401.8153,-5.522198E-05
401.9153,-5.517206E-05
402.0153,-5.519372E-05
402.1153,-5.517112E-05
402.2153,-5.514475E-05
402.3153,-5.515417E-05
402.4153,-5.514758E-05
402.5154,-5.513251E-05
402.6154,-5.51391E-05
402.7154,-5.510143E-05
402.8154,-5.510143E-05
402.9154,-5.511556E-05
403.0154,-5.506564E-05
403.1154,-5.504305E-05
403.2154,-5.505152E-05
403.3154,-5.507224E-05
403.4154,-5.503268E-05
403.5154,-5.497336E-05
403.6154,-5.49743E-05
403.7154,-5.496582E-05
403.8154,-5.497995E-05
403.9154,-5.495641E-05
404.0154,-5.490179E-05
404.1154,-5.491026E-05
404.2155,-5.494793E-05
404.3155,-5.489519E-05
404.4155,-5.484152E-05
404.5155,-5.488578E-05
404.6155,-5.489143E-05
404.7155,-5.486694E-05
404.8155,-5.481138E-05
404.9155,-5.481421E-05
405.0155,-5.476712E-05
405.1155,-5.479631E-05
405.2155,-5.477088E-05
405.3155,-5.475865E-05
405.4155,-5.475676E-05
405.5155,-5.473039E-05
405.6155,-5.471909E-05
405.7155,-5.472003E-05
405.8156,-5.469837E-05
405.9156,-5.466729E-05
406.0156,-5.465599E-05
406.1156,-5.468707E-05
406.2156,-5.466729E-05
406.3156,-5.464093E-05
406.4156,-5.462303E-05
406.5156,-5.459008E-05
406.6156,-5.46155E-05
406.7156,-5.459855E-05
406.8156,-5.458913E-05
406.9156,-5.455899E-05
407.0156,-5.453922E-05
407.1156,-5.454393E-05
407.2156,-5.452321E-05
407.3156,-5.448177E-05
407.4156,-5.45072E-05
407.5157,-5.454111E-05
407.6157,-5.452604E-05
407.7157,-5.445164E-05
407.8157,-5.444976E-05
407.9157,-5.443563E-05
408.0157,-5.442621E-05
408.1157,-5.442056E-05
408.2157,-5.440832E-05
408.3157,-5.437253E-05
408.4157,-5.437347E-05
408.5157,-5.435558E-05
408.6157,-5.436877E-05
408.7157,-5.431415E-05
408.8157,-5.431227E-05
408.9157,-5.430284E-05
409.0157,-5.428966E-05
409.1158,-5.430567E-05
409.2158,-5.4268E-05
409.3158,-5.423692E-05
409.4158,-5.424258E-05
409.5158,-5.420773E-05
409.6158,-5.423504E-05
409.7158,-5.420773E-05
409.8158,-5.418701E-05
409.9158,-5.417289E-05
410.0158,-5.416253E-05
410.1158,-5.416064E-05
410.2158,-5.415782E-05
410.3158,-5.412674E-05
410.4158,-5.410603E-05
410.5158,-5.413993E-05
410.6158,-5.416441E-05
410.7159,-5.40966E-05
410.8159,-5.410226E-05
410.9159,-5.408625E-05
411.0159,-5.406553E-05
411.1159,-5.40693E-05
411.2159,-5.404387E-05
411.3159,-5.400337E-05
411.4159,-5.399961E-05
411.5159,-5.403822E-05
411.6159,-5.398266E-05
411.7159,-5.394781E-05
411.8159,-5.396476E-05
411.9159,-5.395441E-05
412.0159,-5.397324E-05
412.1159,-5.397607E-05
412.2159,-5.389884E-05
412.3159,-5.391485E-05
412.416,-5.392709E-05
412.516,-5.388095E-05
412.616,-5.387436E-05
412.716,-5.386212E-05
412.816,-5.380655E-05
412.916,-5.383575E-05
413.016,-5.385081E-05
413.116,-5.379431E-05
413.216,-5.377171E-05
413.316,-5.379714E-05
413.416,-5.378112E-05
413.516,-5.376606E-05
413.616,-5.373215E-05
413.716,-5.370296E-05
413.816,-5.371709E-05
413.916,-5.372651E-05
414.0161,-5.369543E-05
414.1161,-5.368601E-05
414.2161,-5.368413E-05
414.3161,-5.367377E-05
414.4161,-5.366341E-05
414.5161,-5.369166E-05
414.6161,-5.361821E-05
414.7161,-5.361256E-05
414.8161,-5.363327E-05
414.9161,-5.358525E-05
415.0161,-5.35617E-05
415.1161,-5.356735E-05
415.2161,-5.356358E-05
415.3161,-5.355228E-05
415.4161,-5.353533E-05
415.5161,-5.354475E-05
415.6161,-5.351744E-05
415.7162,-5.352403E-05
415.8162,-5.35278E-05
415.9162,-5.345905E-05
416.0162,-5.348542E-05
416.1162,-5.348165E-05
416.2162,-5.344399E-05
416.3162,-5.346847E-05
416.4162,-5.343551E-05
416.5162,-5.340161E-05
416.6162,-5.341103E-05
416.7162,-5.342892E-05
416.8162,-5.338937E-05
416.9162,-5.3363E-05
417.0162,-5.336582E-05
417.1162,-5.333474E-05
417.2162,-5.338372E-05
417.3163,-5.334416E-05
417.4163,-5.329519E-05
417.5163,-5.331497E-05
417.6163,-5.333192E-05
417.7163,-5.328389E-05
417.8163,-5.326412E-05
417.9163,-5.327259E-05
418.0163,-5.328484E-05
418.1163,-5.323304E-05
418.2163,-5.321043E-05
418.3163,-5.322833E-05
418.4163,-5.322927E-05
418.5163,-5.317842E-05
418.6163,-5.316618E-05
418.7163,-5.318689E-05
418.8163,-5.315958E-05
418.9164,-5.313133E-05
419.0164,-5.31351E-05
419.1164,-5.313227E-05
419.2164,-5.310308E-05
419.3164,-5.309649E-05
419.4164,-5.310308E-05
419.5164,-5.306635E-05
419.6164,-5.310308E-05
419.7164,-5.310497E-05
419.8164,-5.302962E-05
419.9164,-5.304563E-05
420.0164,-5.302868E-05
420.1164,-5.302115E-05
420.2164,-5.301456E-05
420.3164,-5.300137E-05
420.4164,-5.294864E-05
420.5164,-5.296465E-05
420.6165,-5.296653E-05
420.7165,-5.293734E-05
420.8165,-5.296559E-05
420.9165,-5.292321E-05
421.0165,-5.287895E-05
421.1165,-5.289119E-05
421.2165,-5.28893E-05
421.3165,-5.287801E-05
421.4165,-5.287047E-05
421.5165,-5.285352E-05
421.6165,-5.280832E-05
421.7165,-5.282527E-05
421.8165,-5.283845E-05
421.9165,-5.280266E-05
422.0165,-5.277065E-05
422.1165,-5.275935E-05
422.2166,-5.276406E-05
422.3166,-5.275935E-05
422.4166,-5.277912E-05
422.5166,-5.274051E-05
422.6166,-5.270943E-05
422.7166,-5.272073E-05
422.8166,-5.271226E-05
422.9166,-5.269625E-05
423.0166,-5.270002E-05
423.1166,-5.265388E-05
423.2166,-5.265482E-05
423.3166,-5.266612E-05
423.4166,-5.264728E-05
423.5166,-5.266046E-05
423.6166,-5.262656E-05
423.7166,-5.262185E-05
423.8167,-5.261526E-05
423.9167,-5.256629E-05
424.0167,-5.256818E-05
424.1167,-5.252862E-05
424.2167,-5.257383E-05
424.3167,-5.253993E-05
424.4167,-5.25145E-05
424.5167,-5.250508E-05
424.6167,-5.249566E-05
424.7167,-5.246835E-05
424.8167,-5.248531E-05
424.9167,-5.246553E-05
425.0167,-5.243539E-05
425.1167,-5.244198E-05
425.2167,-5.242597E-05
425.3167,-5.243257E-05
425.4167,-5.244952E-05
425.5168,-5.237983E-05
425.6168,-5.239113E-05
425.7168,-5.23836E-05
425.8168,-5.234593E-05
425.9168,-5.233463E-05
426.0168,-5.236194E-05
426.1168,-5.235628E-05
426.2168,-5.231673E-05
426.3168,-5.231391E-05
426.4168,-5.230826E-05
426.5168,-5.228754E-05
426.6168,-5.230732E-05
426.7168,-5.229507E-05
426.8168,-5.225552E-05
426.9168,-5.225646E-05
427.0168,-5.225646E-05
427.1169,-5.222444E-05
427.2169,-5.223481E-05
427.3169,-5.219055E-05
427.4169,-5.217077E-05
427.5169,-5.218395E-05
427.6169,-5.217548E-05
427.7169,-5.21557E-05
427.8169,-5.214345E-05
427.9169,-5.211803E-05
428.0169,-5.21218E-05
428.1169,-5.212933E-05
428.2169,-5.209354E-05
428.3169,-5.208883E-05
428.4169,-5.208036E-05
428.5169,-5.207942E-05
428.6169,-5.205117E-05
428.7169,-5.207659E-05
428.817,-5.204269E-05
428.917,-5.200597E-05
429.017,-5.202197E-05
429.117,-5.201726E-05
429.217,-5.198242E-05
429.317,-5.198901E-05
429.417,-5.198054E-05
429.517,-5.194569E-05
429.617,-5.195981E-05
429.717,-5.196829E-05
429.817,-5.192498E-05
429.917,-5.19165E-05
430.017,-5.19212E-05
430.117,-5.188542E-05
430.217,-5.19212E-05
430.317,-5.189201E-05
430.4171,-5.186188E-05
430.5171,-5.185057E-05
430.6171,-5.185246E-05
430.7171,-5.184775E-05
430.8171,-5.184775E-05
430.9171,-5.181103E-05
431.0171,-5.179313E-05
431.1171,-5.179501E-05
431.2171,-5.179784E-05
431.3171,-5.1779E-05
431.4171,-5.177995E-05
431.5171,-5.174322E-05
431.6171,-5.173097E-05
431.7171,-5.172627E-05
431.8171,-5.173851E-05
431.9171,-5.171309E-05
432.0172,-5.168201E-05
432.1172,-5.167071E-05
432.2172,-5.166883E-05
432.3172,-5.165658E-05
432.4172,-5.16594E-05
432.5172,-5.162456E-05
432.6172,-5.160573E-05
432.7172,-5.161609E-05
432.8172,-5.158689E-05
432.9172,-5.159442E-05
433.0172,-5.156994E-05
433.1172,-5.154828E-05
433.2172,-5.154734E-05
433.3172,-5.15351E-05
433.4172,-5.153416E-05
433.5172,-5.151815E-05
433.6172,-5.149178E-05
433.7173,-5.147765E-05
433.8173,-5.147012E-05
433.9173,-5.146635E-05
434.0173,-5.144281E-05
434.1173,-5.144375E-05
434.2173,-5.145882E-05
434.3173,-5.141455E-05
434.4173,-5.140796E-05
434.5173,-5.13976E-05
434.6173,-5.136747E-05
434.7173,-5.136558E-05
434.8173,-5.138819E-05
434.9173,-5.134298E-05
435.0173,-5.133733E-05
435.1173,-5.132886E-05
435.2173,-5.13072E-05
435.3174,-5.131473E-05
435.4174,-5.13072E-05
435.5174,-5.129401E-05
435.6174,-5.126294E-05
435.7174,-5.128366E-05
435.8174,-5.123185E-05
435.9174,-5.123563E-05
436.0174,-5.124316E-05
436.1174,-5.121302E-05
436.2174,-5.120078E-05
436.3174,-5.122338E-05
436.4174,-5.117253E-05
436.5174,-5.117912E-05
436.6174,-5.11876E-05
436.7174,-5.11471E-05
436.8174,-5.113863E-05
436.9174,-5.114428E-05
437.0175,-5.110661E-05
437.1175,-5.108118E-05
437.2175,-5.109154E-05
437.3175,-5.107835E-05
437.4175,-5.106235E-05
437.5175,-5.106705E-05
437.6175,-5.10501E-05
437.7175,-5.10162E-05
437.8175,-5.104634E-05
437.9175,-5.101809E-05
438.0175,-5.098607E-05
438.1175,-5.099078E-05
438.2175,-5.098042E-05
438.3175,-5.095405E-05
438.4175,-5.095782E-05
438.5175,-5.093993E-05
438.6176,-5.09305E-05
438.7176,-5.092862E-05
438.8176,-5.093145E-05
438.9176,-5.088907E-05
439.0176,-5.090696E-05
439.1176,-5.088719E-05
439.2176,-5.084104E-05
439.3176,-5.086176E-05
439.4176,-5.085799E-05
439.5176,-5.080525E-05
439.6176,-5.082032E-05
439.7176,-5.079207E-05
439.8176,-5.07883E-05
439.9176,-5.078359E-05
440.0176,-5.075817E-05
440.1176,-5.076288E-05
440.2177,-5.073933E-05
440.3177,-5.07318E-05
440.4177,-5.071485E-05
440.5177,-5.072898E-05
440.6177,-5.072332E-05
440.7177,-5.068754E-05
440.8177,-5.067906E-05
440.9177,-5.067435E-05
441.0177,-5.068E-05
441.1177,-5.064893E-05
441.2177,-5.06461E-05
441.3177,-5.063857E-05
441.4177,-5.060373E-05
441.5177,-5.061785E-05
441.6177,-5.062821E-05
441.7177,-5.059431E-05
441.8177,-5.056794E-05
441.9178,-5.058583E-05
442.0178,-5.056041E-05
442.1178,-5.053592E-05
442.2178,-5.054439E-05
442.3178,-5.053404E-05
442.4178,-5.051708E-05
442.5178,-5.050861E-05
442.6178,-5.052085E-05
442.7178,-5.048978E-05
442.8178,-5.047659E-05
442.9178,-5.048883E-05
443.0178,-5.046812E-05
443.1178,-5.044363E-05
443.2178,-5.045399E-05
443.3178,-5.043704E-05
443.4178,-5.042668E-05
443.5179,-5.04248E-05
443.6179,-5.041726E-05
443.7179,-5.038524E-05
443.8179,-5.038336E-05
443.9179,-5.037865E-05
444.0179,-5.034474E-05
444.1179,-5.034004E-05
444.2179,-5.034851E-05
444.3179,-5.031085E-05
444.4179,-5.031273E-05
444.5179,-5.032498E-05
444.6179,-5.029578E-05
444.7179,-5.029672E-05
444.8179,-5.031273E-05
444.9179,-5.027506E-05
445.0179,-5.026376E-05
445.118,-5.0276E-05
445.218,-5.023928E-05
445.318,-5.023362E-05
445.418,-5.023456E-05
445.518,-5.022138E-05
445.618,-5.018183E-05
445.718,-5.02016E-05
445.818,-5.019501E-05
445.918,-5.0179E-05
446.018,-5.016676E-05
446.118,-5.013851E-05
446.218,-5.012533E-05
446.318,-5.013568E-05
446.418,-5.012438E-05
446.518,-5.010178E-05
446.618,-5.010367E-05
446.718,-5.008389E-05
446.8181,-5.008012E-05
446.9181,-5.007353E-05
447.0181,-5.005658E-05
447.1181,-5.004245E-05
447.2181,-5.004998E-05
447.3181,-5.004057E-05
447.4181,-5.000761E-05
447.5181,-5.002645E-05
447.6181,-5.001043E-05
447.7181,-5.001043E-05
447.8181,-4.999913E-05
447.9181,-4.998407E-05
448.0181,-4.996147E-05
448.1181,-4.995958E-05
448.2181,-4.99464E-05
448.3181,-4.996523E-05
448.4182,-4.993792E-05
448.5182,-4.992003E-05
448.6182,-4.990119E-05
448.7182,-4.991532E-05
448.8182,-4.989837E-05
448.9182,-4.988047E-05
449.0182,-4.986729E-05
449.1182,-4.985693E-05
449.2182,-4.983809E-05
449.3182,-4.984469E-05
449.4182,-4.983998E-05
449.5182,-4.981361E-05
449.6182,-4.980137E-05
449.7182,-4.982021E-05
449.8182,-4.979948E-05
449.9182,-4.976747E-05
450.0182,-4.978253E-05
450.1183,-4.975146E-05
450.2183,-4.975899E-05
450.3183,-4.975334E-05
450.4183,-4.973451E-05
450.5183,-4.972132E-05
450.6183,-4.972603E-05
450.7183,-4.969872E-05
450.8183,-4.969778E-05
450.9183,-4.969307E-05
451.0183,-4.967047E-05
451.1183,-4.968083E-05
451.2183,-4.966482E-05
451.3183,-4.963845E-05
451.4183,-4.964221E-05
451.5183,-4.964128E-05
451.6183,-4.959137E-05
451.7184,-4.962056E-05
451.8184,-4.961397E-05
451.9184,-4.957064E-05
452.0184,-4.954239E-05
452.1184,-4.957818E-05
452.2184,-4.956782E-05
452.3184,-4.953674E-05
452.4184,-4.954428E-05
452.5184,-4.955652E-05
452.6184,-4.950472E-05
452.7184,-4.951885E-05
452.8184,-4.95132E-05
452.9184,-4.948024E-05
453.0184,-4.951414E-05
453.1184,-4.94793E-05
453.2184,-4.946329E-05
453.3185,-4.946705E-05
453.4185,-4.943597E-05
453.5185,-4.942468E-05
453.6185,-4.943032E-05
453.7185,-4.938136E-05
453.8185,-4.937853E-05
453.9185,-4.941902E-05
454.0185,-4.940396E-05
454.1185,-4.9371E-05
454.2185,-4.936912E-05
454.3185,-4.939266E-05
454.4185,-4.932486E-05
454.5185,-4.936535E-05
454.6185,-4.935311E-05
454.7185,-4.932109E-05
454.8185,-4.932109E-05
454.9185,-4.932297E-05
455.0186,-4.928154E-05
455.1186,-4.927117E-05
455.2186,-4.927777E-05
455.3186,-4.927306E-05
455.4186,-4.9274E-05
455.5186,-4.923539E-05
455.6186,-4.923445E-05
455.7186,-4.924575E-05
455.8186,-4.922032E-05
455.9186,-4.923162E-05
456.0186,-4.924292E-05
456.1186,-4.919584E-05
456.2186,-4.915629E-05
456.3186,-4.920148E-05
456.4186,-4.917794E-05
456.5186,-4.916194E-05
456.6187,-4.919207E-05
456.7187,-4.914593E-05
456.8187,-4.911296E-05
456.9187,-4.913086E-05
457.0187,-4.91205E-05
457.1187,-4.90913E-05
457.2187,-4.910543E-05
457.3187,-4.908377E-05
457.4187,-4.906776E-05
457.5187,-4.90753E-05
457.6187,-4.906964E-05
457.7187,-4.904987E-05
457.8187,-4.905552E-05
457.9187,-4.903668E-05
458.0187,-4.902915E-05
458.1187,-4.901126E-05
458.2188,-4.900561E-05
458.3188,-4.897547E-05
458.4188,-4.899995E-05
458.5188,-4.897359E-05
458.6188,-4.897547E-05
458.7188,-4.896417E-05
458.8188,-4.894345E-05
458.9188,-4.894722E-05
459.0188,-4.89265E-05
459.1188,-4.891803E-05
459.2188,-4.892838E-05
459.3188,-4.891709E-05
459.4188,-4.888694E-05
459.5188,-4.888884E-05
459.6188,-4.886058E-05
459.7188,-4.887E-05
459.8188,-4.885493E-05
459.9189,-4.884646E-05
460.0189,-4.88295E-05
460.1189,-4.881161E-05
460.2189,-4.882009E-05
460.3189,-4.880878E-05
460.4189,-4.879089E-05
460.5189,-4.877582E-05
460.6189,-4.8773E-05
460.7189,-4.876923E-05
460.8189,-4.876829E-05
460.9189,-4.873439E-05
461.0189,-4.871838E-05
461.1189,-4.872309E-05
461.2189,-4.871367E-05
461.3189,-4.869672E-05
461.4189,-4.868353E-05
461.519,-4.867412E-05
461.619,-4.865434E-05
461.719,-4.864963E-05
461.819,-4.865152E-05
461.919,-4.863456E-05
462.019,-4.861291E-05
462.119,-4.864022E-05
462.219,-4.861008E-05
462.319,-4.860537E-05
462.419,-4.861196E-05
462.519,-4.857712E-05
462.619,-4.856676E-05
462.719,-4.859407E-05
462.819,-4.856205E-05
462.919,-4.852815E-05
463.019,-4.854228E-05
463.119,-4.851496E-05
463.2191,-4.849613E-05
463.3191,-4.852061E-05
463.4191,-4.849707E-05
463.5191,-4.846317E-05
463.6191,-4.84886E-05
463.7191,-4.846976E-05
463.8191,-4.843115E-05
463.9191,-4.846317E-05
464.0191,-4.844998E-05
464.1191,-4.841985E-05
464.2191,-4.842738E-05
464.3191,-4.842173E-05
464.4191,-4.838407E-05
464.5191,-4.83963E-05
464.6191,-4.837841E-05
464.7191,-4.836994E-05
464.8192,-4.838595E-05
464.9192,-4.836052E-05
465.0192,-4.83285E-05
465.1192,-4.834545E-05
465.2192,-4.832568E-05
465.3192,-4.829836E-05
465.4192,-4.831155E-05
465.5192,-4.829554E-05
465.6192,-4.825976E-05
465.7192,-4.826917E-05
465.8192,-4.82654E-05
465.9192,-4.825128E-05
466.0192,-4.825693E-05
466.1192,-4.82428E-05
466.2192,-4.820419E-05
466.3192,-4.822962E-05
466.4193,-4.819007E-05
466.5193,-4.817311E-05
466.6193,-4.818159E-05
466.7193,-4.816558E-05
466.8193,-4.814392E-05
466.9193,-4.816841E-05
467.0193,-4.814486E-05
467.1193,-4.813168E-05
467.2193,-4.812132E-05
467.3193,-4.810814E-05
467.4193,-4.812226E-05
467.5193,-4.809778E-05
467.6193,-4.808742E-05
467.7193,-4.808459E-05
467.8193,-4.806011E-05
467.9193,-4.807329E-05
468.0193,-4.805258E-05
468.1194,-4.805352E-05
468.2194,-4.802244E-05
468.3194,-4.802338E-05
468.4194,-4.800455E-05
468.5194,-4.798759E-05
468.6194,-4.797441E-05
468.7194,-4.797724E-05
468.8194,-4.796594E-05
468.9194,-4.795369E-05
469.0194,-4.794804E-05
469.1194,-4.794616E-05
469.2194,-4.792167E-05
469.3194,-4.791791E-05
469.4194,-4.791508E-05
469.5194,-4.789436E-05
469.6194,-4.788024E-05
469.7195,-4.78727E-05
469.8195,-4.784822E-05
469.9195,-4.784069E-05
470.0195,-4.785104E-05
470.1195,-4.782656E-05
470.2195,-4.784163E-05
470.3195,-4.781526E-05
470.4195,-4.779266E-05
470.5195,-4.780113E-05
470.6195,-4.779737E-05
470.7195,-4.77644E-05
470.8195,-4.776346E-05
470.9195,-4.776346E-05
471.0195,-4.774368E-05
471.1195,-4.773803E-05
471.2195,-4.772862E-05
471.3195,-4.771073E-05
471.4196,-4.77079E-05
471.5196,-4.771073E-05
471.6196,-4.767964E-05
471.7196,-4.768907E-05
471.8196,-4.766929E-05
471.9196,-4.764104E-05
472.0196,-4.765705E-05
472.1196,-4.765799E-05
472.2196,-4.761938E-05
472.3196,-4.763444E-05
472.4196,-4.763444E-05
472.5196,-4.758736E-05
472.6196,-4.760054E-05
472.7196,-4.760148E-05
472.8196,-4.756099E-05
472.9196,-4.756664E-05
473.0197,-4.758265E-05
473.1197,-4.754498E-05
473.2197,-4.753839E-05
473.3197,-4.755534E-05
473.4197,-4.751673E-05
473.5197,-4.750261E-05
473.6197,-4.752144E-05
473.7197,-4.749413E-05
473.8197,-4.747623E-05
473.9197,-4.749884E-05
474.0197,-4.746682E-05
474.1197,-4.74574E-05
474.2197,-4.745834E-05
474.3197,-4.744892E-05
474.4197,-4.741973E-05
474.5197,-4.744987E-05
474.6198,-4.741973E-05
474.7198,-4.739713E-05
474.8198,-4.740937E-05
474.9198,-4.738866E-05
475.0198,-4.736982E-05
475.1198,-4.738018E-05
475.2198,-4.734534E-05
475.3198,-4.733121E-05
475.4198,-4.735852E-05
475.5198,-4.733027E-05
475.6198,-4.731237E-05
475.7198,-4.732462E-05
475.8198,-4.72973E-05
475.9198,-4.729542E-05
476.0198,-4.730107E-05
476.1198,-4.728977E-05
476.2198,-4.725775E-05
476.3199,-4.726058E-05
476.4199,-4.725587E-05
476.5199,-4.721443E-05
476.6199,-4.723703E-05
476.7199,-4.723138E-05
476.8199,-4.720784E-05
476.9199,-4.722103E-05
477.0199,-4.722479E-05
477.1199,-4.720502E-05
477.2199,-4.718053E-05
477.3199,-4.714569E-05
477.4199,-4.713721E-05
477.5199,-4.715605E-05
477.6199,-4.714663E-05
477.7199,-4.711744E-05
477.8199,-4.712779E-05
477.92,-4.710519E-05
478.02,-4.707694E-05
478.12,-4.709013E-05
478.22,-4.707411E-05
478.32,-4.705152E-05
478.42,-4.704022E-05
478.52,-4.704869E-05
478.62,-4.703456E-05
478.72,-4.701667E-05
478.82,-4.702515E-05
478.92,-4.70016E-05
479.02,-4.699595E-05
479.12,-4.699972E-05
479.22,-4.697335E-05
479.32,-4.696488E-05
479.42,-4.695263E-05
479.5201,-4.694415E-05
479.6201,-4.693662E-05
479.7201,-4.692626E-05
479.8201,-4.691496E-05
479.9201,-4.69338E-05
480.0201,-4.691214E-05
480.1201,-4.688106E-05
480.2201,-4.6882E-05
480.3201,-4.687447E-05
480.4201,-4.686129E-05
480.5201,-4.687352E-05
480.6201,-4.68594E-05
480.7201,-4.682833E-05
480.8201,-4.684527E-05
480.9201,-4.683397E-05
481.0201,-4.681608E-05
481.1201,-4.681138E-05
481.2202,-4.680195E-05
481.3202,-4.67737E-05
481.4202,-4.677559E-05
481.5202,-4.678124E-05
481.6202,-4.675675E-05
481.7202,-4.674828E-05
481.8202,-4.675864E-05
481.9202,-4.673415E-05
482.0202,-4.671626E-05
482.1202,-4.671155E-05
482.2202,-4.669837E-05
482.3202,-4.669365E-05
482.4202,-4.669177E-05
482.5202,-4.667765E-05
482.6202,-4.667671E-05
482.7202,-4.666917E-05
482.8203,-4.664751E-05
482.9203,-4.665222E-05
483.0203,-4.666352E-05
483.1203,-4.662962E-05
483.2203,-4.663245E-05
483.3203,-4.660607E-05
483.4203,-4.66089E-05
483.5203,-4.659007E-05
483.6203,-4.659572E-05
483.7203,-4.656464E-05
483.8203,-4.657406E-05
483.9203,-4.659383E-05
484.0203,-4.654863E-05
484.1203,-4.654298E-05
484.2203,-4.655899E-05
484.3203,-4.650719E-05
484.4203,-4.651661E-05
484.5204,-4.652226E-05
484.6204,-4.649589E-05
484.7204,-4.649495E-05
484.8204,-4.649024E-05
484.9204,-4.647235E-05
485.0204,-4.644598E-05
485.1204,-4.646576E-05
485.2204,-4.642809E-05
485.3204,-4.644127E-05
485.4204,-4.642997E-05
485.5204,-4.639983E-05
485.6204,-4.639983E-05
485.7204,-4.640078E-05
485.8204,-4.637441E-05
485.9204,-4.638759E-05
486.0204,-4.638006E-05
486.1205,-4.634992E-05
486.2205,-4.634804E-05
486.3205,-4.636593E-05
486.4205,-4.632073E-05
486.5205,-4.631791E-05
486.6205,-4.632544E-05
486.7205,-4.629059E-05
486.8205,-4.627741E-05
486.9205,-4.629813E-05
487.0205,-4.623597E-05
487.1205,-4.6268E-05
487.2205,-4.625763E-05
487.3205,-4.623221E-05
487.4205,-4.623974E-05
487.5205,-4.623786E-05
487.6205,-4.62049E-05
487.7206,-4.621337E-05
487.8206,-4.623032E-05
487.9206,-4.617476E-05
488.0206,-4.619925E-05
488.1206,-4.6187E-05
488.2206,-4.614933E-05
488.3206,-4.616534E-05
488.4206,-4.615687E-05
488.5206,-4.614557E-05
488.6206,-4.613238E-05
488.7206,-4.615028E-05
488.8206,-4.611167E-05
488.9206,-4.610978E-05
489.0206,-4.612014E-05
489.1206,-4.608907E-05
489.2206,-4.609095E-05
489.3206,-4.609566E-05
489.4207,-4.605704E-05
489.5207,-4.607776E-05
489.6207,-4.606552E-05
489.7207,-4.604198E-05
489.8207,-4.603256E-05
489.9207,-4.604198E-05
490.0207,-4.601184E-05
490.1207,-4.600243E-05
490.2207,-4.601561E-05
490.3207,-4.598736E-05
490.4207,-4.597418E-05
490.5207,-4.597794E-05
490.6207,-4.596475E-05
490.7207,-4.596287E-05
490.8207,-4.596381E-05
490.9207,-4.593933E-05
491.0208,-4.592709E-05
491.1208,-4.593368E-05
491.2208,-4.590072E-05
491.3208,-4.589412E-05
491.4208,-4.590166E-05
491.5208,-4.587906E-05
491.6208,-4.586681E-05
491.7208,-4.588753E-05
491.8208,-4.585175E-05
491.9208,-4.584045E-05
492.0208,-4.585928E-05
492.1208,-4.583668E-05
492.2208,-4.580089E-05
492.3208,-4.582726E-05
492.4208,-4.580278E-05
492.5208,-4.580089E-05
492.6208,-4.582726E-05
492.7209,-4.579619E-05
492.8209,-4.579148E-05
492.9209,-4.579242E-05
493.0209,-4.575663E-05
493.1209,-4.57604E-05
493.2209,-4.577453E-05
493.3209,-4.572461E-05
493.4209,-4.573309E-05
493.5209,-4.57378E-05
493.6209,-4.570201E-05
493.7209,-4.569636E-05
493.8209,-4.571614E-05
493.9209,-4.5686E-05
494.0209,-4.567659E-05
494.1209,-4.569165E-05
494.2209,-4.567377E-05
494.321,-4.565681E-05
494.421,-4.565869E-05
494.521,-4.563421E-05
494.621,-4.563044E-05
494.721,-4.56408E-05
494.821,-4.561631E-05
494.921,-4.559748E-05
495.021,-4.561631E-05
495.121,-4.559465E-05
495.221,-4.558241E-05
495.321,-4.559183E-05
495.421,-4.556735E-05
495.521,-4.55438E-05
495.621,-4.55617E-05
495.721,-4.554192E-05
495.821,-4.552308E-05
495.9211,-4.55438E-05
496.0211,-4.550519E-05
496.1211,-4.550331E-05
496.2211,-4.552403E-05
496.3211,-4.549483E-05
496.4211,-4.547317E-05
496.5211,-4.550237E-05
496.6211,-4.547694E-05
496.7211,-4.544398E-05
496.8211,-4.547694E-05
496.9211,-4.544398E-05
497.0211,-4.542043E-05
497.1211,-4.543927E-05
497.2211,-4.540254E-05
497.3211,-4.540066E-05
497.4211,-4.539877E-05
497.5211,-4.539595E-05
497.6212,-4.537052E-05
497.7212,-4.537994E-05
497.8212,-4.53498E-05
497.9212,-4.534886E-05
498.0212,-4.536487E-05
498.1212,-4.532908E-05
498.2212,-4.531779E-05
498.3212,-4.533191E-05
498.4212,-4.528765E-05
498.5212,-4.529142E-05
498.6212,-4.532815E-05
498.7212,-4.528483E-05
498.8212,-4.527541E-05
498.9212,-4.528388E-05
499.0212,-4.526411E-05
499.1212,-4.524904E-05
499.2213,-4.522738E-05
499.3213,-4.525563E-05
499.4213,-4.525846E-05
499.5213,-4.524433E-05
499.6213,-4.520666E-05
499.7213,-4.517653E-05
499.8213,-4.519913E-05
499.9213,-4.518406E-05
500.0213,-4.515015E-05
500.1213,-4.517182E-05
500.2213,-4.518877E-05
500.3213,-4.512284E-05
500.4213,-4.512284E-05
500.5213,-4.514168E-05
500.6213,-4.513227E-05
500.7213,-4.51285E-05
500.8214,-4.511437E-05
500.9214,-4.507388E-05
501.0214,-4.508612E-05
501.1214,-4.511531E-05
501.2214,-4.507105E-05
501.3214,-4.507293E-05
501.4214,-4.507953E-05
501.5214,-4.504845E-05
501.6214,-4.506069E-05
501.7214,-4.503621E-05
501.8214,-4.499383E-05
501.9214,-4.502962E-05
502.0214,-4.504657E-05
502.1214,-4.500607E-05
502.2214,-4.501455E-05
502.3214,-4.502585E-05
502.4214,-4.4975E-05
502.5215,-4.4991E-05
502.6215,-4.499289E-05
502.7215,-4.497782E-05
502.8215,-4.497217E-05
502.9215,-4.4975E-05
503.0215,-4.492226E-05
503.1215,-4.493733E-05
503.2215,-4.49345E-05
503.3215,-4.492226E-05
503.4215,-4.492508E-05
503.5215,-4.489777E-05
503.6215,-4.488459E-05
503.7215,-4.490908E-05
503.8215,-4.49006E-05
503.9215,-4.487234E-05
504.0215,-4.487234E-05
504.1216,-4.486199E-05
504.2216,-4.483939E-05
504.3216,-4.485445E-05
504.4216,-4.484598E-05
504.5216,-4.480925E-05
504.6216,-4.483091E-05
504.7216,-4.482338E-05
504.8216,-4.480831E-05
504.9216,-4.480737E-05
505.0216,-4.479795E-05
505.1216,-4.477064E-05
505.2216,-4.478759E-05
505.3216,-4.476499E-05
505.4216,-4.47471E-05
505.5216,-4.476217E-05
505.6216,-4.474333E-05
505.7216,-4.471885E-05
505.8217,-4.473957E-05
505.9217,-4.47292E-05
506.0217,-4.470001E-05
506.1217,-4.470566E-05
506.2217,-4.470001E-05
506.3217,-4.46614E-05
506.4217,-4.467553E-05
506.5217,-4.466799E-05
506.6217,-4.465198E-05
506.7217,-4.465669E-05
506.8217,-4.463315E-05
506.9217,-4.460489E-05
507.0217,-4.46275E-05
507.1217,-4.461149E-05
507.2217,-4.458983E-05
507.3217,-4.459548E-05
507.4218,-4.458324E-05
507.5218,-4.455404E-05
507.6218,-4.455498E-05
507.7218,-4.455028E-05
507.8218,-4.452767E-05
507.9218,-4.452579E-05
508.0218,-4.449848E-05
508.1218,-4.449942E-05
508.2218,-4.449377E-05
508.3218,-4.448624E-05
508.4218,-4.444951E-05
508.5218,-4.446175E-05
508.6218,-4.445893E-05
508.7218,-4.443068E-05
508.8218,-4.443915E-05
508.9218,-4.443444E-05
509.0219,-4.43883E-05
509.1219,-4.439772E-05
509.2219,-4.441373E-05
509.3219,-4.437229E-05
509.4219,-4.437605E-05
509.5219,-4.436946E-05
509.6219,-4.433462E-05
509.7219,-4.435063E-05
509.8219,-4.43365E-05
509.9219,-4.431578E-05
510.0219,-4.434121E-05
510.1219,-4.430919E-05
510.2219,-4.427906E-05
510.3219,-4.430448E-05
510.4219,-4.430072E-05
510.5219,-4.426211E-05
510.6219,-4.427717E-05
510.722,-4.426776E-05
510.822,-4.424516E-05
510.922,-4.426305E-05
511.022,-4.424986E-05
511.122,-4.423291E-05
511.222,-4.422915E-05
511.322,-4.423291E-05
511.422,-4.420278E-05
511.522,-4.421502E-05
511.622,-4.419524E-05
511.722,-4.416887E-05
511.822,-4.418582E-05
511.922,-4.418017E-05
512.022,-4.415946E-05
512.122,-4.417264E-05
512.222,-4.415851E-05
512.322,-4.414062E-05
512.4219,-4.414627E-05
512.5219,-4.415757E-05
512.6219,-4.412838E-05
512.7219,-4.413027E-05
512.8218,-4.412555E-05
512.9218,-4.41265E-05
513.0218,-4.411049E-05
513.1218,-4.411896E-05
513.2217,-4.408694E-05
513.3217,-4.408223E-05
513.4217,-4.409071E-05
513.5217,-4.407847E-05
513.6216,-4.407282E-05
513.7216,-4.408506E-05
513.8216,-4.405681E-05
513.9216,-4.403986E-05
514.0215,-4.40521E-05
514.1215,-4.402855E-05
514.2215,-4.402761E-05
514.3215,-4.403609E-05
514.4214,-4.401349E-05
514.5214,-4.399748E-05
514.6214,-4.400124E-05
514.7214,-4.397676E-05
514.8214,-4.399183E-05
514.9213,-4.399183E-05
515.0213,-4.396452E-05
515.1213,-4.395322E-05
515.2213,-4.395604E-05
515.3212,-4.394003E-05
515.4212,-4.393815E-05
515.5212,-4.393815E-05
515.6212,-4.392214E-05
515.7211,-4.391838E-05
515.8211,-4.391084E-05
515.9211,-4.389389E-05
516.0211,-4.389766E-05
516.121,-4.389106E-05
516.221,-4.388071E-05
516.321,-4.388824E-05
516.421,-4.386846E-05
516.5209,-4.386093E-05
516.6209,-4.38694E-05
516.7209,-4.385622E-05
516.8209,-4.385339E-05
516.9208,-4.384209E-05
517.0208,-4.382985E-05
517.1208,-4.38129E-05
517.2208,-4.382326E-05
517.3207,-4.38242E-05
517.4207,-4.380065E-05
517.5207,-4.380065E-05
517.6207,-4.379407E-05
517.7206,-4.378935E-05
517.8206,-4.37724E-05
517.9206,-4.377146E-05
518.0206,-4.374792E-05
518.1205,-4.375357E-05
518.2205,-4.375074E-05
518.3205,-4.374227E-05
518.4205,-4.372814E-05
518.5204,-4.372155E-05
518.6204,-4.370272E-05
518.7204,-4.371308E-05
518.8204,-4.370837E-05
518.9203,-4.3682E-05
519.0203,-4.368482E-05
519.1203,-4.368482E-05
519.2203,-4.366034E-05
519.3203,-4.365751E-05
519.4202,-4.366222E-05
519.5202,-4.364433E-05
519.6202,-4.363962E-05
519.7202,-4.365187E-05
519.8201,-4.362362E-05
519.9201,-4.362644E-05
520.0201,-4.360101E-05
520.1201,-4.357841E-05
520.22,-4.360478E-05
520.32,-4.358971E-05
520.42,-4.358312E-05
520.52,-4.356805E-05
520.6199,-4.355863E-05
520.7199,-4.353509E-05
520.8199,-4.355675E-05
520.9199,-4.354356E-05
521.0198,-4.353603E-05
521.1198,-4.353132E-05
521.2198,-4.350119E-05
521.3198,-4.350872E-05
521.4197,-4.350966E-05
521.5197,-4.34993E-05
521.6197,-4.348424E-05
521.7197,-4.349177E-05
521.8196,-4.348235E-05
521.9196,-4.345504E-05
522.0196,-4.34654E-05
522.1196,-4.345881E-05
522.2195,-4.342114E-05
522.3195,-4.344563E-05
522.4195,-4.34315E-05
522.5195,-4.34089E-05
522.6194,-4.340419E-05
522.7194,-4.34089E-05
522.8194,-4.339289E-05
522.9194,-4.340042E-05
523.0193,-4.338818E-05
523.1193,-4.336557E-05
523.2193,-4.337123E-05
523.3193,-4.335993E-05
523.4193,-4.335616E-05
523.5192,-4.334957E-05
523.6192,-4.334392E-05
523.7192,-4.332037E-05
523.8192,-4.333921E-05
523.9191,-4.331849E-05
524.0191,-4.330908E-05
524.1191,-4.33232E-05
524.2191,-4.329024E-05
524.319,-4.328836E-05
524.419,-4.330343E-05
524.519,-4.328741E-05
524.619,-4.325539E-05
524.7189,-4.327329E-05
524.8189,-4.325539E-05
524.9189,-4.323939E-05
525.0189,-4.32488E-05
525.1188,-4.325257E-05
525.2188,-4.320172E-05
525.3188,-4.324598E-05
525.4188,-4.321584E-05
525.5187,-4.320642E-05
525.6187,-4.32262E-05
525.7187,-4.319983E-05
525.8187,-4.317629E-05
525.9186,-4.319513E-05
526.0186,-4.31923E-05
526.1186,-4.314616E-05
526.2186,-4.317064E-05
526.3185,-4.316122E-05
526.4185,-4.313956E-05
526.5185,-4.316499E-05
526.6185,-4.31245E-05
526.7184,-4.31179E-05
526.8184,-4.311979E-05
526.9184,-4.310849E-05
527.0184,-4.309154E-05
527.1183,-4.311885E-05
527.2183,-4.309718E-05
527.3183,-4.307741E-05
527.4183,-4.310566E-05
527.5182,-4.305575E-05
527.6182,-4.306705E-05
527.7182,-4.306799E-05
527.8182,-4.303597E-05
527.9182,-4.303691E-05
528.0181,-4.306328E-05
528.1181,-4.304068E-05
528.2181,-4.30209E-05
528.3181,-4.303974E-05
528.418,-4.30096E-05
528.518,-4.30096E-05
528.618,-4.301055E-05
528.718,-4.298889E-05
528.8179,-4.296817E-05
528.9179,-4.300018E-05
529.0179,-4.298794E-05
529.1179,-4.295404E-05
529.2178,-4.298417E-05
529.3178,-4.295969E-05
529.4178,-4.293709E-05
529.5178,-4.296817E-05
529.6177,-4.294651E-05
529.7177,-4.292108E-05
529.8177,-4.293992E-05
529.9177,-4.292108E-05
530.0176,-4.288812E-05
530.1176,-4.292108E-05
530.2176,-4.291637E-05
530.3176,-4.288623E-05
530.4175,-4.289E-05
530.5175,-4.288906E-05
530.6175,-4.285233E-05
530.7175,-4.288247E-05
530.8174,-4.286175E-05
530.9174,-4.283632E-05
531.0174,-4.285328E-05
531.1174,-4.284103E-05
531.2173,-4.282785E-05
531.3173,-4.283915E-05
531.4173,-4.282597E-05
531.5173,-4.28109E-05
531.6172,-4.282314E-05
531.7172,-4.279959E-05
531.8172,-4.277981E-05
531.9172,-4.280619E-05
532.0172,-4.278641E-05
532.1171,-4.276287E-05
532.2171,-4.279112E-05
532.3171,-4.276758E-05
532.4171,-4.274968E-05
532.517,-4.276193E-05
532.617,-4.274686E-05
532.717,-4.272426E-05
532.817,-4.274686E-05
532.9169,-4.272426E-05
533.0169,-4.268377E-05
533.1169,-4.272897E-05
533.2169,-4.271202E-05
533.3168,-4.268E-05
533.4168,-4.272049E-05
533.5168,-4.270166E-05
533.6168,-4.266116E-05
533.7167,-4.266775E-05
533.8167,-4.267529E-05
533.9167,-4.265739E-05
534.0167,-4.266587E-05
534.1166,-4.267717E-05
534.2166,-4.26508E-05
534.3166,-4.26282E-05
534.4166,-4.264044E-05
534.5165,-4.262632E-05
534.6165,-4.262914E-05
534.7165,-4.259524E-05
534.8165,-4.259995E-05
534.9164,-4.259335E-05
535.0164,-4.260278E-05
535.1164,-4.2583E-05
535.2164,-4.258959E-05
535.3163,-4.257547E-05
535.4163,-4.255663E-05
535.5163,-4.256887E-05
535.6163,-4.255663E-05
535.7162,-4.253497E-05
535.8162,-4.255852E-05
535.9162,-4.253591E-05
536.0162,-4.252273E-05
536.1161,-4.253685E-05
536.2161,-4.251896E-05
536.3161,-4.250766E-05
536.4161,-4.251614E-05
536.5161,-4.250672E-05
536.616,-4.248317E-05
536.716,-4.248977E-05
536.816,-4.248789E-05
536.916,-4.245869E-05
537.0159,-4.24747E-05
537.1159,-4.247282E-05
537.2159,-4.245963E-05
537.3159,-4.246811E-05
537.4158,-4.246622E-05
537.5158,-4.242573E-05
537.6158,-4.243232E-05
537.7158,-4.244174E-05
537.8157,-4.242102E-05
537.9157,-4.243515E-05
538.0157,-4.242479E-05
538.1157,-4.239559E-05
538.2156,-4.240501E-05
538.3156,-4.24003E-05
538.4156,-4.239936E-05
538.5156,-4.238806E-05
538.6155,-4.237111E-05
538.7155,-4.235133E-05
538.8155,-4.236451E-05
538.9155,-4.235039E-05
539.0154,-4.235039E-05
539.1154,-4.235416E-05
539.2154,-4.232214E-05
539.3154,-4.231649E-05
539.4153,-4.231649E-05
539.5153,-4.232308E-05
539.6153,-4.230519E-05
539.7153,-4.230707E-05
539.8152,-4.228729E-05
539.9152,-4.227599E-05
540.0152,-4.227694E-05
540.1152,-4.227694E-05
540.2151,-4.226093E-05
540.3151,-4.224868E-05
540.4151,-4.224115E-05
540.5151,-4.222043E-05
540.6151,-4.224963E-05
540.715,-4.224963E-05
540.815,-4.222514E-05
540.915,-4.222326E-05
541.015,-4.219407E-05
541.1149,-4.220537E-05
541.2149,-4.22289E-05
541.3149,-4.219312E-05
541.4149,-4.214509E-05
541.5148,-4.221761E-05
541.6148,-4.220065E-05
541.7148,-4.21677E-05
541.8148,-4.217052E-05
541.9147,-4.219312E-05
542.0147,-4.215639E-05
542.1147,-4.22016E-05
542.2147,-4.218465E-05
542.3146,-4.215263E-05
542.4146,-4.219783E-05
542.5146,-4.218465E-05
542.6146,-4.213285E-05
542.7145,-4.21611E-05
542.8145,-4.214604E-05
542.9145,-4.209424E-05
543.0145,-4.210648E-05
543.1144,-4.211778E-05
543.2144,-4.20641E-05
543.3144,-4.208294E-05
543.4144,-4.2082E-05
543.5143,-4.203209E-05
543.6143,-4.204527E-05
543.7143,-4.202644E-05
543.8143,-4.199442E-05
543.9142,-4.199912E-05
544.0142,-4.200383E-05
544.1142,-4.196899E-05
544.2142,-4.198971E-05
544.3141,-4.197558E-05
544.4141,-4.196805E-05
544.5141,-4.197652E-05
544.6141,-4.197464E-05
544.7141,-4.195298E-05
544.814,-4.195298E-05
544.914,-4.195863E-05
545.014,-4.19285E-05
545.114,-4.19511E-05
545.2139,-4.192567E-05
545.3139,-4.191625E-05
545.4139,-4.194451E-05
545.5139,-4.195204E-05
545.6138,-4.188706E-05
545.7138,-4.191625E-05
545.8138,-4.19106E-05
545.9138,-4.187764E-05
546.0137,-4.188517E-05
546.1137,-4.187952E-05
546.2137,-4.186351E-05
546.3137,-4.185598E-05
546.4136,-4.185221E-05
546.5136,-4.183715E-05
546.6136,-4.18362E-05
546.7136,-4.184656E-05
546.8135,-4.181172E-05
546.9135,-4.18023E-05
547.0135,-4.18202E-05
547.1135,-4.179382E-05
547.2134,-4.18023E-05
547.3134,-4.179194E-05
547.4134,-4.177217E-05
547.5134,-4.178818E-05
547.6133,-4.17797E-05
547.7133,-4.176275E-05
547.8133,-4.177029E-05
547.9133,-4.175521E-05
548.0132,-4.173827E-05
548.1132,-4.175145E-05
548.2132,-4.175051E-05
548.3132,-4.173827E-05
548.4131,-4.173262E-05
548.5131,-4.173356E-05
548.6131,-4.171943E-05
548.7131,-4.172979E-05
548.813,-4.172979E-05
548.913,-4.169871E-05
549.013,-4.169212E-05
549.113,-4.170436E-05
549.213,-4.168458E-05
549.3129,-4.169024E-05
549.4129,-4.169683E-05
549.5129,-4.167235E-05
549.6129,-4.166387E-05
549.7128,-4.165068E-05
549.8128,-4.164127E-05
549.9128,-4.164692E-05
550.0128,-4.165633E-05
550.1127,-4.163185E-05
550.2127,-4.163091E-05
550.3127,-4.163938E-05
550.4127,-4.161867E-05
550.5126,-4.163562E-05
550.6126,-4.161961E-05
550.7126,-4.160548E-05
550.8126,-4.160548E-05
550.9125,-4.161019E-05
551.0125,-4.160172E-05
551.1125,-4.160077E-05
551.2125,-4.159794E-05
551.3124,-4.157817E-05
551.4124,-4.157346E-05
551.5124,-4.15923E-05
551.6124,-4.156028E-05
551.7123,-4.157817E-05
551.8123,-4.15471E-05
551.9123,-4.154238E-05
552.0123,-4.155463E-05
552.1122,-4.15405E-05
552.2122,-4.15292E-05
552.3122,-4.15292E-05
552.4122,-4.152732E-05
552.5121,-4.150472E-05
552.6121,-4.152355E-05
552.7121,-4.152355E-05
552.8121,-4.148117E-05
552.912,-4.149906E-05
553.012,-4.147741E-05
553.112,-4.147081E-05
553.212,-4.148494E-05
553.312,-4.147364E-05
553.4119,-4.143691E-05
553.5119,-4.146045E-05
553.6119,-4.146705E-05
553.7119,-4.143409E-05
553.8118,-4.144162E-05
553.9118,-4.144821E-05
554.0118,-4.142467E-05
554.1118,-4.142184E-05
554.2117,-4.142938E-05
554.3117,-4.139265E-05
554.4117,-4.141337E-05
554.5117,-4.140678E-05
554.6116,-4.13757E-05
554.7116,-4.138512E-05
554.8116,-4.137475E-05
554.9116,-4.134368E-05
555.0115,-4.137758E-05
555.1115,-4.135592E-05
555.2115,-4.133238E-05
555.3115,-4.136252E-05
555.4114,-4.133709E-05
555.5114,-4.132767E-05
555.6114,-4.132767E-05
555.7114,-4.131731E-05
555.8113,-4.129471E-05
555.9113,-4.131637E-05
556.0113,-4.128153E-05
556.1113,-4.127776E-05
556.2112,-4.129754E-05
556.3112,-4.129377E-05
556.4112,-4.124386E-05
556.5112,-4.127964E-05
556.6111,-4.12674E-05
556.7111,-4.124103E-05
556.8111,-4.127682E-05
556.9111,-4.126457E-05
557.011,-4.124103E-05
557.111,-4.125422E-05
557.211,-4.123915E-05
557.311,-4.121372E-05
557.4109,-4.123727E-05
557.5109,-4.120336E-05
557.6109,-4.119112E-05
557.7109,-4.120902E-05
557.8109,-4.118453E-05
557.9108,-4.117793E-05
558.0108,-4.119865E-05
558.1108,-4.117134E-05
558.2108,-4.115156E-05
558.3107,-4.116381E-05
558.4107,-4.116004E-05
558.5107,-4.111767E-05
558.6107,-4.116193E-05
558.7106,-4.113838E-05
558.8106,-4.111013E-05
558.9106,-4.114121E-05
559.0106,-4.112708E-05
559.1105,-4.109412E-05
559.2105,-4.11186E-05
559.3105,-4.109977E-05
559.4105,-4.109789E-05
559.5104,-4.110825E-05
559.6104,-4.109789E-05
559.7104,-4.10621E-05
559.8104,-4.109224E-05
559.9103,-4.106304E-05
560.0103,-4.104233E-05
560.1103,-4.10734E-05
560.2103,-4.104327E-05
560.3102,-4.103291E-05
560.4102,-4.103291E-05
560.5102,-4.103197E-05
560.6102,-4.101501E-05
560.7101,-4.102349E-05
560.8101,-4.100654E-05
560.9101,-4.10056E-05
561.0101,-4.101407E-05
561.11,-4.100466E-05
561.21,-4.098771E-05
561.31,-4.099901E-05
561.41,-4.096228E-05
561.5099,-4.096982E-05
561.6099,-4.095945E-05
561.7099,-4.095945E-05
561.8099,-4.093779E-05
561.9099,-4.094533E-05
562.0098,-4.093309E-05
562.1098,-4.092649E-05
562.2098,-4.093874E-05
562.3098,-4.091708E-05
562.4097,-4.090389E-05
562.5097,-4.089824E-05
562.6097,-4.089071E-05
562.7097,-4.086905E-05
562.8096,-4.089541E-05
562.9096,-4.087846E-05
563.0096,-4.084645E-05
563.1096,-4.086622E-05
563.2095,-4.08568E-05
563.3095,-4.082479E-05
563.4095,-4.084551E-05
563.5095,-4.082384E-05
563.6094,-4.080219E-05
563.7094,-4.081066E-05
563.8094,-4.079371E-05
563.9094,-4.076828E-05
564.0093,-4.079277E-05
564.1093,-4.078429E-05
564.2093,-4.075792E-05
564.3093,-4.075321E-05
564.4092,-4.073626E-05
564.5092,-4.071366E-05
564.6092,-4.073438E-05
564.7092,-4.073156E-05
564.8091,-4.070895E-05
564.9091,-4.071743E-05
565.0091,-4.070519E-05
565.1091,-4.069106E-05
565.209,-4.071178E-05
565.309,-4.068541E-05
565.409,-4.067222E-05
565.509,-4.06694E-05
565.6089,-4.066846E-05
565.7089,-4.064868E-05
565.8089,-4.067128E-05
565.9089,-4.066469E-05
566.0089,-4.063079E-05
566.1088,-4.065904E-05
566.2088,-4.063832E-05
566.3088,-4.060913E-05
566.4088,-4.06176E-05
566.5087,-4.06176E-05
566.6087,-4.060536E-05
566.7087,-4.061384E-05
566.8087,-4.06063E-05
566.9086,-4.056863E-05
567.0086,-4.05903E-05
567.1086,-4.057899E-05
567.2086,-4.055263E-05
567.3085,-4.056958E-05
567.4085,-4.055639E-05
567.5085,-4.053567E-05
567.6085,-4.056016E-05
567.7084,-4.054886E-05
567.8084,-4.051966E-05
567.9084,-4.053191E-05
568.0084,-4.052814E-05
568.1083,-4.051872E-05
568.2083,-4.053097E-05
568.3083,-4.051684E-05
568.4083,-4.049047E-05
568.5082,-4.050742E-05
568.6082,-4.051213E-05
568.7082,-4.0482E-05
568.8082,-4.048765E-05
568.9081,-4.048482E-05
569.0081,-4.046693E-05
569.1081,-4.047823E-05
569.2081,-4.047258E-05
569.308,-4.04528E-05
569.408,-4.04594E-05
569.508,-4.045751E-05
569.608,-4.044244E-05
569.7079,-4.044244E-05
569.8079,-4.044338E-05
569.9079,-4.04302E-05
570.0079,-4.04415E-05
570.1078,-4.042643E-05
570.2078,-4.042267E-05
570.3078,-4.044527E-05
570.4078,-4.04415E-05
570.5078,-4.041514E-05
570.6077,-4.040383E-05
570.7077,-4.041514E-05
570.8077,-4.040195E-05
570.9077,-4.040949E-05
571.0076,-4.039912E-05
571.1076,-4.038029E-05
571.2076,-4.036145E-05
571.3076,-4.036899E-05
571.4075,-4.037652E-05
571.5075,-4.036333E-05
571.6075,-4.035298E-05
571.7075,-4.033697E-05
571.8074,-4.032849E-05
571.9074,-4.032567E-05
572.0074,-4.030966E-05
572.1074,-4.030118E-05
572.2073,-4.031531E-05
572.3073,-4.029553E-05
572.4073,-4.029742E-05
572.5073,-4.029553E-05
572.6072,-4.027387E-05
572.7072,-4.029082E-05
572.8072,-4.028706E-05
572.9072,-4.02654E-05
573.0071,-4.025221E-05
573.1071,-4.025316E-05
573.2071,-4.025975E-05
573.3071,-4.023903E-05
573.407,-4.023244E-05
573.507,-4.022396E-05
573.607,-4.023526E-05
573.707,-4.022679E-05
573.8069,-4.021925E-05
573.9069,-4.020607E-05
574.0069,-4.020418E-05
574.1069,-4.018441E-05
574.2068,-4.019288E-05
574.3068,-4.019383E-05
574.4068,-4.017405E-05
574.5068,-4.017782E-05
574.6068,-4.016746E-05
574.7067,-4.016746E-05
574.8067,-4.016557E-05
574.9067,-4.015522E-05
575.0067,-4.014014E-05
575.1066,-4.013073E-05
575.2066,-4.012508E-05
575.3066,-4.013073E-05
575.4066,-4.012696E-05
575.5065,-4.012414E-05
575.6065,-4.0094E-05
575.7065,-4.009777E-05
575.8065,-4.0094E-05
575.9064,-4.008741E-05
576.0064,-4.007705E-05
576.1064,-4.006951E-05
576.2064,-4.00714E-05
576.3063,-4.005728E-05
576.4063,-4.00601E-05
576.5063,-4.003844E-05
576.6063,-4.005633E-05
576.7062,-4.003844E-05
576.8062,-4.002997E-05
576.9062,-4.003091E-05
577.0062,-4.002432E-05
577.1061,-4.001301E-05
577.2061,-4.002055E-05
577.3061,-4.000454E-05
577.4061,-3.999041E-05
577.506,-3.9997E-05
577.606,-3.999889E-05
577.706,-3.998665E-05
577.806,-3.997723E-05
577.9059,-3.998853E-05
578.0059,-3.994803E-05
578.1059,-3.995839E-05
578.2059,-3.995651E-05
578.3058,-3.994332E-05
578.4058,-3.993579E-05
578.5058,-3.996028E-05
578.6058,-3.992543E-05
578.7057,-3.991978E-05
578.8057,-3.992167E-05
578.9057,-3.992167E-05
579.0057,-3.990848E-05
579.1057,-3.990377E-05
579.2056,-3.988211E-05
579.3056,-3.989624E-05
579.4056,-3.988588E-05
579.5056,-3.987834E-05
579.6055,-3.988211E-05
579.7055,-3.987552E-05
579.8055,-3.984727E-05
579.9055,-3.986045E-05
580.0054,-3.986045E-05
580.1054,-3.984538E-05
580.2054,-3.984538E-05
580.3054,-3.984915E-05
580.4053,-3.982373E-05
580.5053,-3.983032E-05
580.6053,-3.98209E-05
580.7053,-3.981902E-05
580.8052,-3.979548E-05
580.9052,-3.9787E-05
581.0052,-3.978135E-05
581.1052,-3.977381E-05
581.2051,-3.977475E-05
581.3051,-3.976534E-05
581.4051,-3.97578E-05
581.5051,-3.976345E-05
581.605,-3.974085E-05
581.705,-3.975592E-05
581.805,-3.975122E-05
581.905,-3.973614E-05
582.0049,-3.972014E-05
582.1049,-3.974462E-05
582.2049,-3.970413E-05
582.3049,-3.971354E-05
582.4048,-3.971448E-05
582.5048,-3.971354E-05
582.6048,-3.968341E-05
582.7048,-3.969283E-05
582.8047,-3.969659E-05
582.9047,-3.969E-05
583.0047,-3.968718E-05
583.1047,-3.964574E-05
583.2047,-3.965139E-05
583.3046,-3.966646E-05
583.4046,-3.963444E-05
583.5046,-3.96448E-05
583.6046,-3.965892E-05
583.7045,-3.962784E-05
583.8045,-3.965704E-05
583.9045,-3.962879E-05
584.0045,-3.959771E-05
584.1044,-3.963067E-05
584.2044,-3.96109E-05
584.3044,-3.958076E-05
584.4044,-3.960618E-05
584.5043,-3.961466E-05
584.6043,-3.957417E-05
584.7043,-3.955439E-05
584.8043,-3.956757E-05
584.9042,-3.954121E-05
585.0042,-3.955345E-05
585.1042,-3.955439E-05
585.2042,-3.95252E-05
585.3041,-3.952143E-05
585.4041,-3.953933E-05
585.5041,-3.950918E-05
585.6041,-3.949977E-05
585.704,-3.953273E-05
585.804,-3.951013E-05
585.904,-3.950071E-05
586.004,-3.949695E-05
586.1039,-3.946964E-05
586.2039,-3.947529E-05
586.3039,-3.949507E-05
586.4039,-3.947246E-05
586.5038,-3.946493E-05
586.6038,-3.948659E-05
586.7038,-3.946493E-05
586.8038,-3.944891E-05
586.9037,-3.944797E-05
587.0037,-3.944986E-05
587.1037,-3.943385E-05
587.2037,-3.942349E-05
587.3036,-3.942726E-05
587.4036,-3.944891E-05
587.5036,-3.944609E-05
587.6036,-3.943479E-05
587.7036,-3.940748E-05
587.8035,-3.94395E-05
587.9035,-3.942914E-05
588.0035,-3.939053E-05
588.1035,-3.93943E-05
588.2034,-3.938017E-05
588.3034,-3.937828E-05
588.4034,-3.940277E-05
588.5034,-3.937734E-05
588.6033,-3.933026E-05
588.7033,-3.939053E-05
588.8033,-3.939241E-05
588.9033,-3.935663E-05
589.0032,-3.935003E-05
589.1032,-3.93538E-05
589.2032,-3.932555E-05
589.3032,-3.93425E-05
589.4031,-3.934533E-05
589.5031,-3.932084E-05
589.6031,-3.932743E-05
589.7031,-3.931425E-05
589.803,-3.930295E-05
589.903,-3.930483E-05
590.003,-3.929541E-05
590.103,-3.930012E-05
590.2029,-3.928694E-05
590.3029,-3.927752E-05
590.4029,-3.926998E-05
590.5029,-3.928129E-05
590.6028,-3.926998E-05
590.7028,-3.924456E-05
590.8028,-3.928976E-05
590.9028,-3.925115E-05
591.0027,-3.925021E-05
591.1027,-3.92521E-05
591.2027,-3.924456E-05
591.3027,-3.922761E-05
591.4026,-3.925303E-05
591.5026,-3.920877E-05
591.6026,-3.922102E-05
591.7026,-3.923514E-05
591.8026,-3.921348E-05
591.9025,-3.919653E-05
592.0025,-3.920029E-05
592.1025,-3.918335E-05
592.2025,-3.917958E-05
592.3024,-3.918712E-05
592.4024,-3.915792E-05
592.5024,-3.916075E-05
592.6024,-3.919465E-05
592.7023,-3.915698E-05
592.8023,-3.914191E-05
592.9023,-3.91711E-05
593.0023,-3.911931E-05
593.1022,-3.913626E-05
593.2022,-3.916075E-05
593.3022,-3.915133E-05
593.4022,-3.911366E-05
593.5021,-3.913344E-05
593.6021,-3.911178E-05
593.7021,-3.909483E-05
593.8021,-3.91146E-05
593.902,-3.910048E-05
594.002,-3.908447E-05
594.102,-3.910048E-05
594.202,-3.909483E-05
594.3019,-3.907505E-05
594.4019,-3.908258E-05
594.5019,-3.90694E-05
594.6019,-3.904586E-05
594.7018,-3.907693E-05
594.8018,-3.905245E-05
594.9018,-3.904021E-05
595.0018,-3.905151E-05
595.1017,-3.905999E-05
595.2017,-3.901289E-05
595.3017,-3.904021E-05
595.4017,-3.903173E-05
595.5016,-3.901855E-05
595.6016,-3.903079E-05
595.7016,-3.900442E-05
595.8016,-3.898464E-05
595.9016,-3.900065E-05
596.0015,-3.900442E-05
596.1015,-3.898276E-05
596.2015,-3.8995E-05
596.3015,-3.896957E-05
596.4014,-3.897711E-05
596.5014,-3.897711E-05
596.6014,-3.897428E-05
596.7014,-3.894603E-05
596.8013,-3.896581E-05
596.9013,-3.895357E-05
597.0013,-3.892249E-05
597.1013,-3.895357E-05
597.2012,-3.894697E-05
597.3012,-3.891307E-05
597.4012,-3.895451E-05
597.5012,-3.893096E-05
597.6011,-3.890648E-05
597.7011,-3.891307E-05
597.8011,-3.891213E-05
597.9011,-3.888859E-05
598.001,-3.88933E-05
598.101,-3.890271E-05
598.201,-3.887446E-05
598.301,-3.88933E-05
598.4009,-3.887728E-05
598.5009,-3.886599E-05
598.6009,-3.88754E-05
598.7009,-3.887258E-05
598.8008,-3.886033E-05
598.9008,-3.886787E-05
599.0008,-3.885656E-05
599.1008,-3.885656E-05
599.2007,-3.884715E-05
599.3007,-3.884433E-05
599.4007,-3.884809E-05
599.5007,-3.88349E-05
599.6006,-3.882643E-05
599.7006,-3.882172E-05
599.8006,-3.882361E-05
599.9006,-3.881137E-05
600.0005,-3.882361E-05
