EXPID. 1231
[电化学]: i-t : @ 0(V) X 600(sec)
起始电位 (V),0
静置时间 (秒),0
运行时间 (秒),600
记录间隔,0.1
电解液 信息:
HNO3,0.4
0.1,-0.01005814
0.2,-0.01005814
0.3,-0.01005814
0.4,-0.01005814
0.5,-0.01005814
0.6,-0.01005814
0.7,-0.01005814
0.8000001,-0.008727273
0.9000001,-0.007081324
1,-0.00553837
1.1,-0.005678259
1.2,-0.006140337
1.3,-0.00622956
1.4,-0.006111159
1.5,-0.005942405
1.6,-0.005772968
1.7,-0.005610158
1.8,-0.00546558
1.9,-0.005333638
2,-0.005206982
2.1,-0.005097615
2.2,-0.004991887
2.3,-0.004886669
2.4,-0.004794008
2.5,-0.004703008
2.6,-0.004608758
2.7,-0.004525742
2.799999,-0.004441936
2.899999,-0.004363825
2.999999,-0.004286179
3.099999,-0.004219506
3.199999,-0.004147951
3.299999,-0.004083446
3.399999,-0.004022135
3.499999,-0.003960934
3.599999,-0.003904594
3.699999,-0.003848696
3.799999,-0.003794367
3.899998,-0.003743614
3.999998,-0.003692555
4.099998,-0.003645757
4.199998,-0.003600225
4.299998,-0.003554506
4.399998,-0.003511543
4.499998,-0.003470937
4.599998,-0.003428877
4.699998,-0.00339075
4.799998,-0.003354118
4.899998,-0.003316496
4.999998,-0.003281272
5.099998,-0.003247959
5.199997,-0.003214466
5.299997,-0.003183357
5.399997,-0.003152827
5.499997,-0.003121134
5.599997,-0.003092063
5.699997,-0.003063882
5.799997,-0.003035673
5.899997,-0.00300851
5.999997,-0.002982274
6.099997,-0.002956033
6.199996,-0.002930625
6.299996,-0.002905897
6.399996,-0.002881977
6.499996,-0.00285833
6.599996,-0.002835641
6.699996,-0.002812115
6.799996,-0.002790773
6.899996,-0.002768722
6.999996,-0.002747107
7.099996,-0.002726502
7.199996,-0.002705857
7.299995,-0.002684983
7.399995,-0.002665258
7.499995,-0.002645648
7.599995,-0.002626266
7.699995,-0.002607279
7.799995,-0.002588646
7.899995,-0.002569608
7.999995,-0.002552275
8.099995,-0.002533983
8.199995,-0.00251604
8.299995,-0.002499129
8.399996,-0.002481787
8.499996,-0.002464779
8.599997,-0.002448468
8.699997,-0.002431966
8.799997,-0.002415526
8.899998,-0.002399703
8.999998,-0.002384057
9.099998,-0.002367694
9.199999,-0.002353116
9.299999,-0.002337451
9.4,-0.002322494
9.5,-0.002307792
9.6,-0.002293186
9.700001,-0.00227877
9.800001,-0.002264275
9.900002,-0.002250545
10,-0.002236417
10.1,-0.002222385
10.2,-0.002209052
10.3,-0.00219552
10.4,-0.002181933
10.5,-0.002168895
10.6,-0.002155893
10.7,-0.002142868
10.8,-0.002129924
10.90001,-0.002117357
11.00001,-0.00210479
11.10001,-0.002092267
11.20001,-0.002080307
11.30001,-0.002067911
11.40001,-0.002055974
11.50001,-0.002044062
11.60001,-0.002032222
11.70001,-0.002020561
11.80001,-0.002009031
11.90001,-0.001997632
12.00001,-0.00198645
12.10001,-0.001975661
12.20001,-0.001964028
12.30001,-0.001953581
12.40001,-0.001942765
12.50001,-0.001931518
12.60001,-0.001921048
12.70001,-0.001910567
12.80001,-0.001899987
12.90001,-0.001889344
13.00001,-0.001879155
13.10001,-0.001868748
13.20001,-0.001858771
13.30001,-0.001848789
13.40001,-0.001838696
13.50002,-0.00182891
13.60002,-0.001819102
13.70002,-0.001809259
13.80002,-0.001799874
13.90002,-0.001790277
14.00002,-0.001780831
14.10002,-0.001771497
14.20002,-0.001762373
14.30002,-0.00175294
14.40002,-0.001743952
14.50002,-0.001734932
14.60002,-0.001725712
14.70002,-0.001717053
14.80002,-0.001708359
14.90002,-0.001699244
15.00002,-0.001690789
15.10002,-0.001682251
15.20002,-0.001673589
15.30002,-0.00166527
15.40002,-0.001656716
15.50002,-0.001648184
15.60002,-0.001640146
15.70002,-0.001632235
15.80002,-0.001623981
15.90002,-0.001615917
16.00002,-0.00160778
16.10003,-0.001600065
16.20003,-0.001592421
16.30003,-0.001584476
16.40003,-0.00157658
16.50003,-0.001569042
16.60003,-0.001561414
16.70003,-0.001553813
16.80003,-0.001546473
16.90003,-0.001539014
17.00003,-0.001531427
17.10003,-0.001524225
17.20003,-0.001517114
17.30003,-0.001509698
17.40003,-0.0015025
17.50003,-0.001495481
17.60003,-0.001488255
17.70003,-0.001481367
17.80003,-0.001474455
17.90003,-0.001467388
18.00003,-0.00146064
18.10003,-0.001453957
18.20003,-0.001447033
18.30003,-0.001440531
18.40003,-0.001434052
18.50003,-0.001427061
18.60003,-0.001420723
18.70004,-0.001414301
18.80004,-0.001407665
18.90004,-0.001401502
19.00004,-0.001394939
19.10004,-0.001388493
19.20004,-0.001382537
19.30004,-0.001376297
19.40004,-0.001370072
19.50004,-0.001363996
19.60004,-0.001357918
19.70004,-0.001351709
19.80004,-0.00134579
19.90004,-0.001339829
20.00004,-0.001333826
20.10004,-0.001328088
20.20004,-0.001322241
20.30004,-0.001316345
20.40004,-0.001310683
20.50004,-0.001304895
20.60004,-0.001299252
20.70004,-0.001293771
20.80004,-0.001288102
20.90004,-0.001282571
21.00004,-0.001277197
21.10004,-0.001271621
21.20004,-0.001266096
21.30005,-0.001260777
21.40005,-0.001255366
21.50005,-0.001250083
21.60005,-0.001244835
21.70005,-0.001239639
21.80005,-0.001234454
21.90005,-0.001229398
22.00005,-0.001224378
22.10005,-0.001219153
22.20005,-0.001214184
22.30005,-0.00120912
22.40005,-0.001204178
22.50005,-0.001199215
22.60005,-0.00119435
22.70005,-0.001189456
22.80005,-0.001184493
22.90005,-0.001179693
23.00005,-0.001174955
23.10005,-0.001170039
23.20005,-0.001165401
23.30005,-0.001160734
23.40005,-0.001155979
23.50005,-0.001151291
23.60005,-0.001146715
23.70005,-0.001142135
23.80005,-0.001137496
23.90005,-0.001133028
24.00006,-0.001128518
24.10006,-0.001124001
24.20006,-0.001119687
24.30006,-0.001115201
24.40006,-0.001110826
24.50006,-0.001106435
24.60006,-0.001102099
24.70006,-0.001097721
24.80006,-0.001093484
24.90006,-0.001089263
25.00006,-0.001085031
25.10006,-0.001080986
25.20006,-0.001076659
25.30006,-0.00107267
25.40006,-0.001068724
25.50006,-0.001064484
25.60006,-0.001060539
25.70006,-0.001056583
25.80006,-0.001052494
25.90006,-0.001048617
26.00006,-0.001044814
26.10006,-0.001040751
26.20006,-0.001036845
26.30006,-0.001033091
26.40006,-0.00102902
26.50006,-0.001025223
26.60007,-0.001021474
26.70007,-0.001017647
26.80007,-0.001013889
26.90007,-0.001010276
27.00007,-0.001006547
27.10007,-0.001002864
27.20007,-0.0009992766
27.30007,-0.0009955539
27.40007,-0.0009919961
27.50007,-0.0009884081
27.60007,-0.0009847683
27.70007,-0.0009812923
27.80007,-0.0009778051
27.90007,-0.0009742585
28.00007,-0.0009707807
28.10007,-0.0009674291
28.20007,-0.0009639174
28.30007,-0.000960482
28.40007,-0.0009571954
28.50007,-0.0009536704
28.60007,-0.0009503518
28.70007,-0.0009470557
28.80007,-0.0009435722
28.90007,-0.0009403676
29.00007,-0.0009370865
29.10007,-0.0009337132
29.20008,-0.0009306018
29.30008,-0.0009274564
29.40008,-0.000924084
29.50008,-0.0009209415
29.60008,-0.0009179289
29.70008,-0.0009146441
29.80008,-0.0009115392
29.90008,-0.0009086396
30.00008,-0.0009053511
30.10008,-0.0009023847
30.20008,-0.0008994729
30.30008,-0.0008962521
30.40008,-0.0008933779
30.50008,-0.0008903738
30.60008,-0.0008873622
30.70008,-0.0008845285
30.80008,-0.0008814999
30.90008,-0.0008785288
31.00008,-0.0008756875
31.10008,-0.000872706
31.20008,-0.0008698149
31.30008,-0.0008670114
31.40008,-0.0008641184
31.50008,-0.0008612555
31.60008,-0.0008586121
31.70008,-0.0008557576
31.80009,-0.0008530408
31.90009,-0.0008501798
32.00008,-0.000847688
32.10008,-0.0008449325
32.20008,-0.0008421751
32.30008,-0.0008394883
32.40008,-0.0008369202
32.50008,-0.0008341619
32.60007,-0.000831622
32.70007,-0.0008289701
32.80007,-0.000826257
32.90007,-0.0008236927
33.00007,-0.0008211575
33.10007,-0.0008185282
33.20007,-0.0008158923
33.30006,-0.0008134362
33.40006,-0.0008107711
33.50006,-0.0008082699
33.60006,-0.0008057979
33.70006,-0.0008032194
33.80006,-0.0008007135
33.90005,-0.0007982725
34.00005,-0.0007957364
34.10005,-0.0007933605
34.20005,-0.0007910655
34.30005,-0.0007883523
34.40005,-0.0007861063
34.50005,-0.0007837981
34.60004,-0.0007813147
34.70004,-0.0007789849
34.80004,-0.0007767596
34.90004,-0.0007742847
35.00004,-0.0007719794
35.10004,-0.0007697626
35.20004,-0.0007673659
35.30003,-0.0007650444
35.40003,-0.0007628361
35.50003,-0.0007604432
35.60003,-0.0007582405
35.70003,-0.0007560556
35.80003,-0.0007538802
35.90002,-0.0007516446
36.00002,-0.0007495332
36.10002,-0.0007472071
36.20002,-0.0007449197
36.30002,-0.0007429496
36.40002,-0.0007405792
36.50002,-0.0007385036
36.60001,-0.0007364667
36.70001,-0.000734263
36.80001,-0.0007321319
36.90001,-0.0007300657
37.00001,-0.000727865
37.10001,-0.0007257865
37.2,-0.000723758
37.3,-0.0007216127
37.4,-0.000719525
37.5,-0.0007175888
37.6,-0.0007154011
37.7,-0.0007134762
37.8,-0.0007114694
37.89999,-0.0007093354
37.99999,-0.0007073973
38.09999,-0.0007054018
38.19999,-0.0007034731
38.29999,-0.0007015209
38.39999,-0.0006995263
38.49998,-0.0006975082
38.59998,-0.0006956859
38.69998,-0.0006937337
38.79998,-0.0006917589
38.89998,-0.000689947
38.99998,-0.0006879421
39.09998,-0.0006859984
39.19997,-0.000684226
39.29997,-0.0006822409
39.39997,-0.0006803489
39.49997,-0.0006785662
39.59997,-0.0006766309
39.69997,-0.0006748068
39.79996,-0.0006730185
39.89996,-0.000671168
39.99996,-0.0006692581
40.09996,-0.000667548
40.19996,-0.0006657455
40.29996,-0.0006639335
40.39996,-0.0006621876
40.49995,-0.0006603955
40.59995,-0.000658608
40.69995,-0.0006568301
40.79995,-0.0006551322
40.89995,-0.0006533052
40.99995,-0.0006516826
41.09995,-0.0006499281
41.19994,-0.0006481558
41.29994,-0.0006464494
41.39994,-0.0006447769
41.49994,-0.0006430356
41.59994,-0.0006413923
41.69994,-0.0006397047
41.79993,-0.0006379089
41.89993,-0.0006363051
41.99993,-0.0006346721
42.09993,-0.0006329638
42.19993,-0.0006314061
42.29993,-0.0006296913
42.39993,-0.0006280725
42.49992,-0.0006265082
42.59992,-0.000624911
42.69992,-0.0006232395
42.79992,-0.0006216799
42.89992,-0.0006201139
42.99992,-0.0006184913
43.09991,-0.0006170146
43.19991,-0.0006154476
43.29991,-0.0006138466
43.39991,-0.0006123249
43.49991,-0.0006108246
43.59991,-0.0006092585
43.69991,-0.000607684
43.7999,-0.0006062233
43.8999,-0.000604725
43.9999,-0.0006032221
44.0999,-0.000601752
44.1999,-0.0006001285
44.2999,-0.0005987178
44.39989,-0.0005972863
44.49989,-0.0005958643
44.59989,-0.0005943773
44.69989,-0.0005928753
44.79989,-0.0005914241
44.89989,-0.0005899851
44.99989,-0.0005885725
45.09988,-0.0005871119
45.19988,-0.0005857454
45.29988,-0.0005843272
45.39988,-0.0005828486
45.49988,-0.0005815199
45.59988,-0.000580062
45.69987,-0.0005786984
45.79987,-0.0005773263
45.89987,-0.0005759561
45.99987,-0.0005745944
46.09987,-0.0005732166
46.19987,-0.0005718502
46.29987,-0.0005704574
46.39986,-0.0005691238
46.49986,-0.0005677819
46.59986,-0.0005664324
46.69986,-0.0005651008
46.79986,-0.0005637485
46.89986,-0.0005624375
46.99986,-0.000561105
47.09985,-0.0005597442
47.19985,-0.0005584229
47.29985,-0.0005570951
47.39985,-0.0005558058
47.49985,-0.0005545317
47.59985,-0.0005532265
47.69984,-0.00055199
47.79984,-0.0005506725
47.89984,-0.000549404
47.99984,-0.0005480997
48.09984,-0.0005469046
48.19984,-0.0005456503
48.29984,-0.0005443488
48.39983,-0.0005431509
48.49983,-0.0005418955
48.59983,-0.0005406826
48.69983,-0.0005394754
48.79983,-0.0005382887
48.89983,-0.0005370343
48.99982,-0.0005357903
49.09982,-0.0005346169
49.19982,-0.0005334538
49.29982,-0.0005322645
49.39982,-0.0005310393
49.49982,-0.0005298178
49.59982,-0.0005286671
49.69981,-0.0005275257
49.79981,-0.0005263259
49.89981,-0.0005251741
49.99981,-0.000524046
50.09981,-0.000522818
50.19981,-0.0005216794
50.2998,-0.0005205521
50.3998,-0.0005194033
50.4998,-0.0005182515
50.5998,-0.0005171083
50.6998,-0.000515949
50.7998,-0.000514915
50.8998,-0.0005137472
50.99979,-0.000512652
51.09979,-0.0005115445
51.19979,-0.0005105387
51.29979,-0.0005093295
51.39979,-0.0005082654
51.49979,-0.000507173
51.59978,-0.0005060495
51.69978,-0.0005050108
51.79978,-0.0005039608
51.89978,-0.0005028259
51.99978,-0.00050179
52.09978,-0.000500805
52.19978,-0.0004997088
52.29977,-0.0004987021
52.39977,-0.000497654
52.49977,-0.0004965597
52.59977,-0.0004955417
52.69977,-0.0004944728
52.79977,-0.0004934755
52.89977,-0.0004924509
52.99976,-0.0004913434
53.09976,-0.0004903593
53.19976,-0.0004893809
53.29976,-0.0004882988
53.39976,-0.0004872789
53.49976,-0.0004863136
53.59975,-0.0004853286
53.69975,-0.0004843379
53.79975,-0.0004833048
53.89975,-0.0004822821
53.99975,-0.0004813065
54.09975,-0.0004802574
54.19975,-0.0004792808
54.29974,-0.0004782995
54.39974,-0.0004773192
54.49974,-0.0004763981
54.59974,-0.0004754715
54.69974,-0.0004745326
54.79974,-0.0004734854
54.89973,-0.0004726077
54.99973,-0.0004716575
55.09973,-0.0004707148
55.19973,-0.0004698183
55.29973,-0.00046882
55.39973,-0.0004678275
55.49973,-0.0004669733
55.59972,-0.0004660457
55.69972,-0.0004650569
55.79972,-0.0004641189
55.89972,-0.0004632242
55.99972,-0.0004623673
56.09972,-0.0004615084
56.19971,-0.0004605846
56.29971,-0.0004596344
56.39971,-0.0004587181
56.49971,-0.0004578008
56.59971,-0.000456893
56.69971,-0.0004559786
56.79971,-0.0004550416
56.8997,-0.0004541497
56.9997,-0.0004532494
57.0997,-0.0004524518
57.1997,-0.000451479
57.2997,-0.0004506851
57.3997,-0.0004498027
57.49969,-0.0004488591
57.59969,-0.0004480002
57.69969,-0.0004470962
57.79969,-0.0004462289
57.89969,-0.00044537
57.99969,-0.0004444754
58.09969,-0.0004436165
58.19968,-0.0004427454
58.29968,-0.0004419911
58.39968,-0.0004411906
58.49968,-0.0004403496
58.59968,-0.0004394879
58.69968,-0.0004386715
58.79967,-0.0004377956
58.89967,-0.0004369679
58.99967,-0.0004361655
59.09967,-0.0004352982
59.19967,-0.0004344628
59.29967,-0.0004336558
59.39967,-0.000432812
59.49966,-0.0004320134
59.59966,-0.0004312026
59.69966,-0.0004303927
59.79966,-0.0004295385
59.89966,-0.00042874
59.99966,-0.0004279555
60.09966,-0.0004270769
60.19965,-0.0004263216
60.29965,-0.0004255701
60.39965,-0.0004246679
60.49965,-0.0004239155
60.59965,-0.0004230726
60.69965,-0.0004223174
60.79964,-0.0004215564
60.89964,-0.0004207917
60.99964,-0.0004200073
61.09964,-0.0004192247
61.19964,-0.0004184299
61.29964,-0.0004176633
61.39964,-0.0004169438
61.49963,-0.0004161207
61.59963,-0.0004153203
61.69963,-0.000414581
61.79963,-0.0004137749
61.89963,-0.0004130884
61.99963,-0.00041227
62.09962,-0.0004115308
62.19962,-0.0004107755
62.29962,-0.0004100504
62.39962,-0.0004092659
62.49962,-0.0004086171
62.59962,-0.0004078288
62.69962,-0.0004070538
62.79961,-0.0004063682
62.89961,-0.0004055941
62.99961,-0.0004048125
63.09961,-0.0004041428
63.19961,-0.0004034243
63.29961,-0.0004026248
63.3996,-0.0004018827
63.4996,-0.0004012461
63.5996,-0.0004004786
63.6996,-0.0003997638
63.7996,-0.0003991197
63.8996,-0.0003983898
63.9996,-0.0003976854
64.09959,-0.0003969885
64.19959,-0.0003962163
64.29959,-0.000395559
64.39959,-0.0003949214
64.49959,-0.0003941737
64.59959,-0.0003934966
64.69958,-0.0003928374
64.79958,-0.0003921236
64.89958,-0.0003914634
64.99958,-0.0003907731
65.09958,-0.0003900018
65.19958,-0.0003893482
65.29958,-0.0003887069
65.39957,-0.0003880082
65.49957,-0.0003873094
65.59957,-0.0003866116
65.69957,-0.0003859618
65.79957,-0.0003853469
65.89957,-0.0003846763
65.99957,-0.0003839795
66.09956,-0.0003834078
66.19956,-0.0003826968
66.29956,-0.0003820159
66.39956,-0.0003814179
66.49956,-0.0003806759
66.59956,-0.0003800346
66.69955,-0.0003794714
66.79955,-0.0003787952
66.89955,-0.0003780635
66.99955,-0.0003774947
67.09955,-0.0003768138
67.19955,-0.0003762459
67.29955,-0.0003756442
67.39954,-0.000374985
67.49954,-0.0003743898
67.59954,-0.0003737532
67.69954,-0.0003730478
67.79954,-0.0003724752
67.89954,-0.0003719196
67.99953,-0.0003712812
68.09953,-0.0003706285
68.19953,-0.0003701256
68.29953,-0.0003695371
68.39953,-0.0003688722
68.49953,-0.0003683947
68.59953,-0.0003677459
68.69952,-0.0003670942
68.79952,-0.0003664745
68.89952,-0.0003658888
68.99952,-0.0003652145
69.09952,-0.0003646655
69.19952,-0.0003640515
69.29951,-0.0003634685
69.39951,-0.0003628602
69.49951,-0.0003623696
69.59951,-0.0003617452
69.69951,-0.0003611265
69.79951,-0.0003605219
69.89951,-0.0003599756
69.9995,-0.0003593908
70.0995,-0.0003588512
70.1995,-0.0003582193
70.2995,-0.0003577334
70.3995,-0.000357141
70.4995,-0.0003565346
70.59949,-0.0003559375
70.69949,-0.0003553715
70.79949,-0.000354798
70.89949,-0.0003542104
70.99949,-0.0003535945
71.09949,-0.0003530473
71.19949,-0.0003524672
71.29948,-0.0003518721
71.39948,-0.000351291
71.49948,-0.0003507316
71.59948,-0.000350159
71.69948,-0.0003496044
71.79948,-0.0003490083
71.89948,-0.0003484922
71.99947,-0.0003480063
72.09947,-0.000347365
72.19947,-0.0003467745
72.29947,-0.0003462707
72.39947,-0.0003456821
72.49947,-0.0003451415
72.59946,-0.0003445774
72.69946,-0.0003440039
72.79946,-0.0003436347
72.89946,-0.0003430801
72.99946,-0.0003424133
73.09946,-0.0003419038
73.19946,-0.000341433
73.29945,-0.0003408369
73.39945,-0.0003403255
73.49945,-0.0003397708
73.59945,-0.0003392124
73.69945,-0.0003387246
73.79945,-0.0003382574
73.89944,-0.0003376529
73.99944,-0.0003371217
74.09944,-0.0003366254
74.19944,-0.0003360501
74.29944,-0.0003355933
74.39944,-0.0003350612
74.49944,-0.0003345113
74.59943,-0.0003340282
74.69943,-0.0003335309
74.79943,-0.000333012
74.89943,-0.0003324592
74.99943,-0.000331995
75.09943,-0.0003314308
75.19942,-0.0003309675
75.29942,-0.0003305513
75.39942,-0.0003299712
75.49942,-0.0003294937
75.59942,-0.0003289362
75.69942,-0.0003284117
75.79942,-0.0003279417
75.89941,-0.0003274285
75.99941,-0.000326854
76.09941,-0.0003264067
76.19941,-0.0003259246
76.29941,-0.000325351
76.39941,-0.000324915
76.4994,-0.0003243763
76.5994,-0.0003237934
76.6994,-0.0003233329
76.7994,-0.0003228507
76.8994,-0.0003223394
76.9994,-0.0003218798
77.0994,-0.0003213731
77.19939,-0.000320826
77.29939,-0.0003203938
77.39939,-0.000319904
77.49939,-0.0003194294
77.59939,-0.0003190339
77.69939,-0.0003185094
77.79939,-0.0003180121
77.89938,-0.0003175262
77.99938,-0.000316996
78.09938,-0.0003165421
78.19938,-0.0003161127
78.29938,-0.0003155721
78.39938,-0.0003151012
78.49937,-0.0003146774
78.59937,-0.0003142038
78.69937,-0.0003136773
78.79937,-0.0003132686
78.89937,-0.0003128006
78.99937,-0.0003123466
79.09937,-0.0003119549
79.19936,-0.0003115255
79.29936,-0.0003110772
79.39936,-0.0003106563
79.49936,-0.0003102042
79.59936,-0.0003097663
79.69936,-0.0003093651
79.79935,-0.0003089225
79.89935,-0.0003084959
79.99935,-0.000308107
80.09935,-0.0003076342
80.19935,-0.0003071549
80.29935,-0.0003067593
80.39935,-0.0003063224
80.49934,-0.0003058506
80.59934,-0.0003054136
80.69934,-0.0003049861
80.79934,-0.0003045538
80.89934,-0.0003041103
80.99934,-0.0003037119
81.09933,-0.00030321
81.19933,-0.0003028568
81.29933,-0.0003024152
81.39933,-0.0003019433
81.49933,-0.0003015102
81.59933,-0.0003010543
81.69933,-0.0003006739
81.79932,-0.0003002218
81.89932,-0.0002998254
81.99932,-0.0002993828
82.09932,-0.0002989261
82.19932,-0.0002985211
82.29932,-0.0002980681
82.39931,-0.0002976434
82.49931,-0.0002972507
82.59931,-0.0002968081
82.69931,-0.0002963372
82.79931,-0.0002961169
82.89931,-0.0002957298
82.99931,-0.0002952072
83.0993,-0.0002947796
83.1993,-0.0002943897
83.2993,-0.000293981
83.3993,-0.0002935817
83.4993,-0.0002931927
83.5993,-0.0002927483
83.6993,-0.0002923264
83.79929,-0.0002920278
83.89929,-0.000291574
83.99929,-0.0002910974
84.09929,-0.000290781
84.19929,-0.0002903733
84.29929,-0.0002899118
84.39928,-0.00028952
84.49928,-0.0002891066
84.59928,-0.0002887064
84.69928,-0.0002883259
84.79928,-0.0002879031
84.89928,-0.0002874755
84.99928,-0.0002870546
85.09927,-0.0002866534
85.19927,-0.0002863228
85.29927,-0.0002859669
85.39927,-0.0002854941
85.49927,-0.0002850939
85.59927,-0.0002847803
85.69926,-0.0002843593
85.79926,-0.00028401
85.89926,-0.0002836116
85.99926,-0.0002832085
86.09926,-0.0002828347
86.19926,-0.0002824599
86.29926,-0.000282038
86.39925,-0.0002816142
86.49925,-0.0002812582
86.59925,-0.0002807968
86.69925,-0.0002805096
86.79925,-0.0002800726
86.89925,-0.000279694
86.99924,-0.000279338
87.09924,-0.0002789435
87.19924,-0.0002785253
87.29924,-0.0002781581
87.39924,-0.0002777776
87.49924,-0.0002774084
87.59924,-0.0002770383
87.69923,-0.0002766682
87.79923,-0.000276269
87.89923,-0.0002759092
87.99923,-0.0002755429
88.09923,-0.0002751031
88.19923,-0.0002747829
88.29922,-0.0002744203
88.39922,-0.0002740078
88.49922,-0.0002736697
88.59922,-0.0002733166
88.69922,-0.0002728975
88.79922,-0.0002725971
88.89922,-0.0002722581
88.99921,-0.0002718531
89.09921,-0.0002715292
89.19921,-0.0002711054
89.29921,-0.0002706929
89.39921,-0.0002704113
89.49921,-0.0002700271
89.59921,-0.0002696165
89.6992,-0.0002693124
89.7992,-0.0002689913
89.8992,-0.0002685901
89.9992,-0.0002682331
90.0992,-0.0002678838
90.1992,-0.0002674863
90.29919,-0.0002672019
90.39919,-0.0002668479
90.49919,-0.0002664815
90.59919,-0.0002661434
90.69919,-0.0002658534
90.79919,-0.0002654805
90.89919,-0.0002651396
90.99918,-0.0002648419
91.09918,-0.0002644728
91.19918,-0.0002641357
91.29918,-0.0002638127
91.39918,-0.000263483
91.49918,-0.0002631412
91.59917,-0.0002628135
91.69917,-0.0002624142
91.79917,-0.0002621025
91.89917,-0.0002617681
91.99917,-0.0002614715
92.09917,-0.0002611447
92.19917,-0.0002607671
92.29916,-0.000260445
92.39916,-0.0002601427
92.49916,-0.0002598065
92.59916,-0.0002594439
92.69916,-0.0002591718
92.79916,-0.0002587961
92.89915,-0.0002585116
92.99915,-0.0002582103
93.09915,-0.0002578571
93.19915,-0.0002575247
93.29915,-0.0002572695
93.39915,-0.0002569164
93.49915,-0.0002565613
93.59914,-0.000256259
93.69914,-0.0002559464
93.79914,-0.0002556262
93.89914,-0.0002552966
93.99914,-0.0002549933
94.09914,-0.0002546524
94.19913,-0.000254385
94.29913,-0.0002540704
94.39913,-0.0002537013
94.49913,-0.0002534442
94.59913,-0.0002531598
94.69913,-0.0002528283
94.79913,-0.000252543
94.89912,-0.0002522482
94.99912,-0.0002519666
95.09912,-0.0002516587
95.19912,-0.0002513234
95.29912,-0.0002510126
95.39912,-0.0002507094
95.49911,-0.0002504325
95.59911,-0.000250102
95.69911,-0.000249827
95.79911,-0.0002495077
95.89911,-0.0002492111
95.99911,-0.0002489597
96.09911,-0.0002485641
96.1991,-0.0002482854
96.2991,-0.0002479859
96.3991,-0.0002476893
96.4991,-0.0002474275
96.5991,-0.0002470734
96.6991,-0.0002467748
96.7991,-0.0002464754
96.89909,-0.0002461712
96.99909,-0.000245899
97.09909,-0.0002455751
97.19909,-0.0002452247
97.29909,-0.0002449554
97.39909,-0.0002446738
97.49908,-0.000244349
97.59908,-0.0002440419
97.69908,-0.0002437783
97.79908,-0.0002434599
97.89908,-0.0002431407
97.99908,-0.0002428817
98.09908,-0.0002425248
98.19907,-0.0002422979
98.29907,-0.0002420219
98.39907,-0.0002416867
98.49907,-0.000241438
98.59907,-0.000241148
98.69907,-0.0002408071
98.79906,-0.000240583
98.89906,-0.0002402939
98.99906,-0.0002399313
99.09906,-0.000239677
99.19906,-0.0002394614
99.29906,-0.0002391242
99.39906,-0.0002388615
99.49905,-0.0002385225
99.59905,-0.0002382917
99.69905,-0.0002380214
99.79905,-0.0002377691
99.89905,-0.0002374508
99.99905,-0.0002372116
100.099,-0.0002369413
100.199,-0.0002366381
100.299,-0.0002363489
100.399,-0.0002360702
100.499,-0.0002357792
100.599,-0.0002355089
100.699,-0.0002352302
100.799,-0.0002349307
100.899,-0.0002346689
100.999,-0.0002344278
101.099,-0.000234117
101.199,-0.0002338223
101.299,-0.0002336528
101.399,-0.0002333363
101.499,-0.0002330595
101.599,-0.0002327826
101.699,-0.0002324935
101.799,-0.0002322129
101.899,-0.0002319426
101.999,-0.0002316459
102.099,-0.0002314105
102.199,-0.0002311807
102.299,-0.0002308728
102.399,-0.0002306034
102.499,-0.0002303341
102.599,-0.0002300817
102.699,-0.0002297917
102.799,-0.0002295336
102.899,-0.0002292097
102.999,-0.0002290063
103.099,-0.0002287482
103.199,-0.00022846
103.299,-0.0002282425
103.399,-0.0002279365
103.499,-0.00022767
103.599,-0.0002274627
103.699,-0.0002271699
103.799,-0.0002269043
103.899,-0.0002266632
103.999,-0.0002263751
104.099,-0.0002261104
104.199,-0.0002258806
104.299,-0.0002256396
104.399,-0.0002253768
104.499,-0.0002251687
104.599,-0.0002249239
104.699,-0.0002246658
104.799,-0.0002244097
104.899,-0.0002241545
104.999,-0.0002238842
105.099,-0.0002236101
105.199,-0.0002233587
105.299,-0.0002231204
105.399,-0.0002229293
105.499,-0.0002226684
105.599,-0.0002223887
105.699,-0.0002221533
105.799,-0.0002219207
105.899,-0.0002216721
105.999,-0.00022143
106.099,-0.0002211456
106.199,-0.0002208829
106.299,-0.0002206418
106.3989,-0.0002204346
106.4989,-0.0002201502
106.5989,-0.0002199459
106.6989,-0.0002196765
106.7989,-0.0002193799
106.8989,-0.0002191812
106.9989,-0.000218925
107.0989,-0.0002186274
107.1989,-0.0002184306
107.2989,-0.0002182187
107.3989,-0.0002179277
107.4989,-0.0002177158
107.5989,-0.0002174813
107.6989,-0.0002172478
107.7989,-0.0002170199
107.8989,-0.0002167609
107.9989,-0.0002164869
108.0989,-0.0002162684
108.1989,-0.0002160612
108.2989,-0.0002158192
108.3989,-0.0002155527
108.4989,-0.0002153107
108.5989,-0.0002151054
108.6989,-0.0002148765
108.7989,-0.0002146656
108.8989,-0.0002144151
108.9989,-0.0002141693
109.0989,-0.0002139583
109.1989,-0.0002136692
109.2989,-0.0002134733
109.3989,-0.0002132511
109.4989,-0.0002130138
109.5989,-0.0002127378
109.6989,-0.0002125194
109.7989,-0.0002123207
109.8989,-0.0002121116
109.9989,-0.0002118705
110.0989,-0.0002115965
110.1989,-0.0002113968
110.2989,-0.0002111764
110.3989,-0.0002109731
110.4989,-0.0002107065
110.5989,-0.0002105361
110.6989,-0.0002103223
110.7989,-0.0002100483
110.8989,-0.0002097949
110.9989,-0.0002095718
111.0989,-0.0002093137
111.1989,-0.0002091094
111.2989,-0.0002089022
111.3989,-0.0002086884
111.4989,-0.0002084831
111.5989,-0.0002082552
111.6989,-0.0002080904
111.7989,-0.0002078164
111.8989,-0.000207596
111.9989,-0.0002074208
112.0989,-0.0002071788
112.1989,-0.0002070074
112.2989,-0.0002067804
112.3989,-0.0002065874
112.4989,-0.0002063567
112.5989,-0.0002061872
112.6989,-0.0002060082
112.7989,-0.0002057295
112.8988,-0.0002055703
112.9988,-0.0002053452
113.0988,-0.0002051287
113.1988,-0.0002049356
113.2988,-0.0002047265
113.3988,-0.0002045212
113.4988,-0.0002043009
113.5988,-0.0002040909
113.6988,-0.000203894
113.7988,-0.0002037274
113.8988,-0.0002035362
113.9988,-0.0002033149
114.0988,-0.0002030568
114.1988,-0.0002029344
114.2988,-0.0002027828
114.3988,-0.0002025295
114.4988,-0.0002023157
114.5988,-0.0002021537
114.6988,-0.000201906
114.7988,-0.0002017422
114.8988,-0.000201567
114.9988,-0.0002013193
115.0988,-0.000201147
115.1988,-0.000200969
115.2988,-0.0002007515
115.3988,-0.000200516
115.4988,-0.0002003428
115.5988,-0.0002000989
115.6988,-0.0001999284
115.7988,-0.0001997372
115.8988,-0.0001994717
115.9988,-0.0001992739
116.0988,-0.0001990912
116.1988,-0.0001989001
116.2988,-0.0001987221
116.3988,-0.0001985045
116.4988,-0.0001982841
116.5988,-0.0001981542
116.6988,-0.0001979621
116.7988,-0.0001976871
116.8988,-0.0001976927
116.9988,-0.0001974686
117.0988,-0.0001971852
117.1988,-0.0001970279
117.2988,-0.000196848
117.3988,-0.00019659
117.4988,-0.0001965062
117.5988,-0.0001962952
117.6988,-0.0001960748
117.7988,-0.0001959402
117.8988,-0.0001958187
117.9988,-0.0001955588
118.0988,-0.0001953836
118.1988,-0.0001952442
118.2988,-0.0001949796
118.3988,-0.0001948506
118.4988,-0.0001946952
118.5988,-0.0001944221
118.6988,-0.0001942771
118.7988,-0.0001941226
118.8988,-0.000193907
118.9988,-0.0001937205
119.0988,-0.0001935736
119.1988,-0.0001933259
119.2988,-0.0001931442
119.3988,-0.0001929558
119.4987,-0.0001927581
119.5987,-0.0001926319
119.6987,-0.0001924869
119.7987,-0.0001922345
119.8987,-0.0001920697
119.9987,-0.0001918813
120.0987,-0.0001916346
120.1987,-0.0001915008
120.2987,-0.0001913238
120.3987,-0.0001910799
120.4987,-0.0001909226
120.5987,-0.0001907465
120.6987,-0.0001905064
120.7987,-0.0001903256
120.8987,-0.0001901824
120.9987,-0.0001899357
121.0987,-0.0001898048
121.1987,-0.0001896278
121.2987,-0.0001893575
121.3987,-0.0001891804
121.4987,-0.0001890128
121.5987,-0.0001887972
121.6987,-0.0001886568
121.7987,-0.0001885222
121.8987,-0.0001882754
121.9987,-0.0001880927
122.0987,-0.0001879392
122.1987,-0.0001876982
122.2987,-0.0001875701
122.3987,-0.0001874138
122.4987,-0.0001871595
122.5987,-0.0001870239
122.6987,-0.0001868704
122.7987,-0.0001866509
122.8987,-0.0001865003
122.9987,-0.0001863195
123.0987,-0.0001860972
123.1987,-0.0001859315
123.2987,-0.0001857714
123.3987,-0.0001855256
123.4987,-0.0001853683
123.5987,-0.0001851988
123.6987,-0.0001849765
123.7987,-0.000184856
123.8987,-0.0001846554
123.9987,-0.0001844341
124.0987,-0.0001842881
124.1987,-0.0001841516
124.2987,-0.000183902
124.3987,-0.0001837372
124.4987,-0.0001835781
124.5987,-0.0001833831
124.6987,-0.0001832456
124.7987,-0.0001830695
124.8987,-0.0001828388
124.9987,-0.0001826891
125.0987,-0.000182545
125.1987,-0.0001823275
125.2987,-0.0001821664
125.3987,-0.0001820016
125.4987,-0.0001817681
125.5987,-0.0001816729
125.6987,-0.0001814771
125.7987,-0.0001812529
125.8987,-0.0001811211
125.9986,-0.0001809506
126.0986,-0.0001807293
126.1986,-0.0001806182
126.2986,-0.0001804336
126.3986,-0.0001802001
126.4986,-0.0001800513
126.5986,-0.0001799025
126.6986,-0.0001797198
126.7986,-0.0001795701
126.8986,-0.0001793544
126.9986,-0.0001792085
127.0986,-0.0001791039
127.1986,-0.0001789109
127.2986,-0.0001786783
127.3986,-0.0001785634
127.4986,-0.0001784146
127.5986,-0.0001782196
127.6986,-0.000178052
127.7986,-0.00017789
127.8986,-0.000177696
127.9986,-0.000177518
128.0986,-0.0001773542
128.1986,-0.000177195
128.2986,-0.0001770453
128.3986,-0.000176856
128.4986,-0.0001766856
128.5986,-0.0001765716
128.6987,-0.0001764228
128.7987,-0.0001762335
128.8987,-0.0001760951
128.9987,-0.0001759303
129.0987,-0.0001757966
129.1987,-0.0001756214
129.2987,-0.0001754886
129.3987,-0.0001753031
129.4987,-0.0001751439
129.5987,-0.0001750045
129.6987,-0.0001748153
129.7987,-0.0001746354
129.8987,-0.0001745506
129.9987,-0.0001743821
130.0987,-0.0001742267
130.1987,-0.0001740468
130.2988,-0.0001738679
130.3988,-0.0001737558
130.4988,-0.000173608
130.5988,-0.0001734008
130.6988,-0.0001732605
130.7988,-0.0001731192
130.8988,-0.0001729582
130.9988,-0.000172815
131.0988,-0.0001726286
131.1988,-0.0001724854
131.2988,-0.0001723818
131.3988,-0.0001722632
131.4988,-0.000172056
131.5988,-0.0001718855
131.6988,-0.0001717801
131.7988,-0.0001716143
131.8988,-0.0001714674
131.9989,-0.000171313
132.0989,-0.0001711548
132.1989,-0.0001710088
132.2989,-0.0001708647
132.3989,-0.000170698
132.4989,-0.0001705822
132.5989,-0.0001704579
132.6989,-0.0001702309
132.7989,-0.0001701207
132.8989,-0.0001700143
132.9989,-0.0001698316
133.0989,-0.0001697299
133.1989,-0.0001695566
133.2989,-0.0001693843
133.3989,-0.0001692911
133.4989,-0.0001691611
133.599,-0.0001690067
133.699,-0.0001688946
133.799,-0.0001687646
133.899,-0.0001685612
133.999,-0.0001684906
134.099,-0.0001683814
134.199,-0.0001682118
134.299,-0.0001681205
134.399,-0.0001679265
134.499,-0.0001677561
134.599,-0.0001676882
134.699,-0.000167514
134.799,-0.0001672937
134.899,-0.0001672447
134.999,-0.0001671176
135.099,-0.0001669273
135.1991,-0.0001667842
135.2991,-0.0001666627
135.3991,-0.0001664678
135.4991,-0.0001663943
135.5991,-0.000166205
135.6991,-0.0001660958
135.7991,-0.0001659865
135.8991,-0.0001658293
135.9991,-0.0001656541
136.0991,-0.0001655693
136.1991,-0.0001654413
136.2991,-0.0001652878
136.3991,-0.0001651484
136.4991,-0.0001649874
136.5991,-0.0001648715
136.6991,-0.0001647755
136.7991,-0.0001646248
136.8992,-0.0001644741
136.9992,-0.0001643583
137.0992,-0.000164217
137.1992,-0.0001641012
137.2992,-0.0001639703
137.3992,-0.0001637914
137.4992,-0.0001636793
137.5992,-0.0001635748
137.6992,-0.000163393
137.7992,-0.000163247
137.8992,-0.0001631726
137.9992,-0.0001630172
138.0992,-0.0001628355
138.1992,-0.0001627225
138.2992,-0.0001625831
138.3992,-0.0001624616
138.4993,-0.0001623317
138.5993,-0.0001621895
138.6993,-0.0001620171
138.7993,-0.000161907
138.8993,-0.0001617986
138.9993,-0.000161664
139.0993,-0.0001614907
139.1993,-0.0001614276
139.2993,-0.0001612958
139.3993,-0.000161114
139.4993,-0.0001609869
139.5993,-0.0001609087
139.6993,-0.0001607194
139.7993,-0.0001605848
139.8993,-0.0001604652
139.9993,-0.0001603352
140.0993,-0.0001602128
140.1994,-0.0001600612
140.2994,-0.0001600216
140.3994,-0.0001598879
140.4994,-0.0001597212
140.5994,-0.0001595771
140.6994,-0.0001594537
140.7994,-0.0001593078
140.8994,-0.0001591637
140.9994,-0.0001590554
141.0994,-0.0001589188
141.1994,-0.0001587795
141.2994,-0.0001586919
141.3994,-0.0001585177
141.4994,-0.0001584141
141.5994,-0.0001582709
141.6994,-0.000158173
141.7995,-0.000158059
141.8995,-0.0001579376
141.9995,-0.0001577897
142.0995,-0.0001576673
142.1995,-0.0001575722
142.2995,-0.0001574582
142.3995,-0.0001573066
142.4995,-0.0001571917
142.5995,-0.0001570844
142.6995,-0.0001569751
142.7995,-0.0001568687
142.8995,-0.0001567312
142.9995,-0.0001565485
143.0995,-0.0001564412
143.1995,-0.0001563404
143.2995,-0.0001561709
143.3996,-0.0001560635
143.4996,-0.0001558978
143.5996,-0.0001558243
143.6996,-0.0001557584
143.7996,-0.0001556379
143.8996,-0.0001554721
143.9996,-0.0001553685
144.0996,-0.0001552357
144.1996,-0.000155086
144.2996,-0.0001550059
144.3996,-0.0001548995
144.4996,-0.000154763
144.5996,-0.0001546302
144.6996,-0.0001545426
144.7996,-0.0001544098
144.8996,-0.0001543147
144.9996,-0.0001541763
145.0997,-0.0001540218
145.1997,-0.0001539314
145.2997,-0.0001538392
145.3997,-0.0001537007
145.4997,-0.0001536
145.5997,-0.0001534606
145.6997,-0.0001533843
145.7997,-0.0001533052
145.8997,-0.0001531828
145.9997,-0.0001529944
146.0997,-0.0001528974
146.1997,-0.0001528004
146.2997,-0.0001526836
146.3997,-0.0001525838
146.4997,-0.0001524802
146.5997,-0.0001523446
146.6998,-0.0001522646
146.7998,-0.0001522071
146.8998,-0.0001520056
146.9998,-0.0001519067
147.0998,-0.0001518126
147.1998,-0.0001516619
147.2998,-0.0001515441
147.3998,-0.0001514556
147.4998,-0.0001512871
147.5998,-0.0001512032
147.6998,-0.0001510949
147.7998,-0.0001509254
147.8998,-0.0001508369
147.9998,-0.0001507512
148.0998,-0.0001506118
148.1998,-0.0001504866
148.2999,-0.0001504047
148.3999,-0.0001502709
148.4999,-0.0001501815
148.5999,-0.0001500816
148.6999,-0.0001499121
148.7999,-0.0001498622
148.8999,-0.0001497756
148.9999,-0.0001496287
149.0999,-0.0001495241
149.1999,-0.0001494281
149.2999,-0.0001492717
149.3999,-0.0001492096
149.4999,-0.0001490956
149.5999,-0.0001489591
149.6999,-0.0001488517
149.7999,-0.0001487773
149.8999,-0.0001486521
150,-0.0001485777
150.1,-0.0001484487
150.2,-0.0001482923
150.3,-0.0001482245
150.4,-0.0001481228
150.5,-0.0001480061
150.6,-0.0001478855
150.7,-0.0001478017
150.8,-0.0001476275
150.9,-0.0001475644
151,-0.0001474777
151.1,-0.0001473158
151.2,-0.0001472442
151.3,-0.0001471387
151.4,-0.0001469937
151.5,-0.0001469297
151.6001,-0.0001468091
151.7001,-0.000146682
151.8001,-0.0001465954
151.9001,-0.0001464842
152.0001,-0.0001463448
152.1001,-0.0001462874
152.2001,-0.0001461913
152.3001,-0.0001460143
152.4001,-0.0001459465
152.5001,-0.0001458391
152.6001,-0.0001457195
152.7001,-0.0001456442
152.8001,-0.0001455189
152.9001,-0.000145388
153.0001,-0.0001453052
153.1001,-0.0001452101
153.2001,-0.0001450754
153.3002,-0.0001450179
153.4002,-0.0001449181
153.5002,-0.0001447787
153.6002,-0.0001447062
153.7002,-0.000144565
153.8002,-0.0001444774
153.9002,-0.0001443682
154.0002,-0.0001442693
154.1002,-0.0001441798
154.2002,-0.0001440696
154.3002,-0.0001439519
154.4002,-0.0001438323
154.5002,-0.0001437494
154.6002,-0.0001436722
154.7002,-0.0001435489
154.8002,-0.000143401
154.9003,-0.0001434038
155.0003,-0.0001432776
155.1003,-0.0001431053
155.2003,-0.0001430667
155.3003,-0.0001429847
155.4003,-0.000142836
155.5003,-0.0001427851
155.6003,-0.0001426938
155.7003,-0.0001425431
155.8003,-0.0001424932
155.9003,-0.0001423736
156.0003,-0.0001422634
156.1003,-0.0001421899
156.2003,-0.0001420628
156.3003,-0.0001419093
156.4003,-0.0001418754
156.5004,-0.0001418613
156.6004,-0.000141704
156.7004,-0.0001415712
156.8004,-0.000141527
156.9004,-0.0001413631
157.0004,-0.0001413151
157.1004,-0.0001412294
157.2004,-0.0001410919
157.3004,-0.0001409779
157.4004,-0.0001408988
157.5004,-0.0001408122
157.6004,-0.0001407227
157.7004,-0.0001406248
157.8004,-0.0001405108
157.9004,-0.0001404298
158.0004,-0.0001403601
158.1004,-0.0001402415
158.2005,-0.0001401511
158.3005,-0.0001400635
158.4005,-0.0001399608
158.5005,-0.0001398827
158.6005,-0.000139797
158.7005,-0.0001396727
158.8005,-0.0001395936
158.9005,-0.0001395229
159.0005,-0.0001394306
159.1005,-0.0001393534
159.2005,-0.0001392357
159.3005,-0.0001391359
159.4005,-0.0001390596
159.5005,-0.0001389767
159.6005,-0.0001388703
159.7005,-0.0001387677
159.8006,-0.0001387394
159.9006,-0.0001386179
160.0006,-0.0001385078
160.1006,-0.0001384315
160.2006,-0.0001383288
160.3006,-0.0001383062
160.4006,-0.0001381452
160.5006,-0.0001380567
160.6006,-0.0001380576
160.7006,-0.0001379606
160.8006,-0.0001377779
160.9006,-0.0001378561
161.0006,-0.0001378212
161.1006,-0.0001376169
161.2006,-0.0001375905
161.3006,-0.0001375274
161.4007,-0.0001373683
161.5007,-0.0001373202
161.6007,-0.0001372609
161.7007,-0.000137098
161.8007,-0.0001370264
161.9007,-0.0001369633
162.0007,-0.0001368616
162.1007,-0.0001368428
162.2007,-0.0001367411
162.3007,-0.0001366384
162.4007,-0.0001365998
162.5007,-0.0001364906
162.6007,-0.000136387
162.7007,-0.0001363663
162.8007,-0.0001362485
162.9007,-0.0001361261
163.0007,-0.0001360941
163.1008,-0.0001360178
163.2008,-0.0001358963
163.3008,-0.0001358182
163.4008,-0.0001357127
163.5008,-0.0001355997
163.6008,-0.0001355743
163.7008,-0.000135497
163.8008,-0.0001353633
163.9008,-0.0001353172
164.0008,-0.0001352098
164.1008,-0.0001351279
164.2008,-0.0001351081
164.3008,-0.0001349556
164.4008,-0.0001348614
164.5008,-0.0001347926
164.6008,-0.0001347267
164.7009,-0.0001345732
164.8009,-0.0001345525
164.9009,-0.0001344282
165.0009,-0.0001343735
165.1009,-0.0001342775
165.2009,-0.0001341702
165.3009,-0.0001341099
165.4009,-0.0001340421
165.5009,-0.00013393
165.6009,-0.0001338123
165.7009,-0.0001337737
165.8009,-0.0001336654
165.9009,-0.0001335561
166.0009,-0.0001335015
166.1009,-0.0001334507
166.2009,-0.0001333047
166.3009,-0.000133235
166.401,-0.000133139
166.501,-0.0001330401
166.601,-0.0001329713
166.701,-0.0001328724
166.801,-0.0001327528
166.901,-0.0001326681
167.001,-0.0001326116
167.101,-0.0001324958
167.201,-0.0001324176
167.301,-0.0001323611
167.401,-0.0001322057
167.501,-0.0001321793
167.601,-0.000132103
167.701,-0.0001319477
167.801,-0.0001318959
167.901,-0.0001318139
168.0011,-0.0001317169
168.1011,-0.0001316275
168.2011,-0.0001315427
168.3011,-0.0001314419
168.4011,-0.0001313346
168.5011,-0.0001313101
168.6011,-0.0001312169
168.7011,-0.0001311142
168.8011,-0.0001310314
168.9011,-0.0001309485
169.0011,-0.0001308308
169.1011,-0.0001308034
169.2011,-0.0001307083
169.3011,-0.0001306095
169.4011,-0.0001305153
169.5011,-0.000130456
169.6012,-0.0001303571
169.7012,-0.0001302921
169.8012,-0.0001302083
169.9012,-0.0001300764
170.0012,-0.0001300331
170.1012,-0.0001299484
170.2012,-0.0001298702
170.3012,-0.0001298175
170.4012,-0.0001296734
170.5012,-0.0001296253
170.6012,-0.000129533
170.7012,-0.0001294361
170.8012,-0.0001293419
170.9012,-0.0001292778
171.0012,-0.0001292326
171.1012,-0.0001290801
171.2012,-0.0001290471
171.3013,-0.0001289709
171.4013,-0.0001288541
171.5013,-0.0001288202
171.6013,-0.0001287232
171.7013,-0.0001286205
171.8013,-0.0001285621
171.9013,-0.0001285151
172.0013,-0.0001283728
172.1013,-0.000128305
172.2013,-0.0001282259
172.3013,-0.0001281468
172.4013,-0.0001281148
172.5013,-0.0001280376
172.6013,-0.0001279086
172.7013,-0.0001278794
172.8013,-0.0001278031
172.9014,-0.0001277268
173.0014,-0.0001276995
173.1014,-0.0001275987
173.2014,-0.0001275102
173.3014,-0.0001274999
173.4014,-0.0001274283
173.5014,-0.0001273228
173.6014,-0.0001272673
173.7014,-0.0001272437
173.8014,-0.0001271307
173.9014,-0.0001270789
174.0014,-0.0001270045
174.1014,-0.0001269292
174.2014,-0.0001268614
174.3014,-0.0001267813
174.4014,-0.0001266937
174.5014,-0.0001266222
174.6015,-0.0001265393
174.7015,-0.0001264734
174.8015,-0.0001263886
174.9015,-0.0001263528
175.0015,-0.000126221
175.1015,-0.0001262172
175.2015,-0.0001261598
175.3015,-0.0001260289
175.4015,-0.0001259865
175.5015,-0.0001258942
175.6015,-0.0001258179
175.7015,-0.0001257831
175.8015,-0.0001257209
175.9015,-0.0001256258
176.0015,-0.0001255251
176.1015,-0.0001254808
176.2016,-0.0001253876
176.3016,-0.0001253386
176.4016,-0.0001252924
176.5016,-0.0001251879
176.6016,-0.0001251135
176.7016,-0.0001251031
176.8016,-0.0001250061
176.9016,-0.0001249402
177.0016,-0.0001248762
177.1016,-0.0001248178
177.2016,-0.0001247557
177.3016,-0.0001246991
177.4016,-0.0001246097
177.5016,-0.000124573
177.6016,-0.0001245136
177.7016,-0.0001244016
177.8017,-0.0001242942
177.9017,-0.0001242791
178.0017,-0.0001242132
178.1017,-0.0001241756
178.2017,-0.0001240993
178.3017,-0.000124055
178.4017,-0.000123958
178.5017,-0.0001239458
178.6017,-0.0001238742
178.7017,-0.0001238007
178.8017,-0.0001237763
178.9017,-0.0001236548
179.0017,-0.000123619
179.1017,-0.0001235323
179.2017,-0.0001234843
179.3017,-0.0001234137
179.4017,-0.0001233139
179.5018,-0.0001233092
179.6018,-0.0001231811
179.7018,-0.0001231811
179.8018,-0.0001231001
179.9018,-0.0001229852
180.0018,-0.0001229315
180.1018,-0.0001228948
180.2018,-0.00012281
180.3018,-0.0001227903
180.4018,-0.0001227064
180.5018,-0.0001226113
180.6018,-0.0001225652
180.7018,-0.0001225332
180.8018,-0.0001224192
180.9018,-0.0001223665
181.0018,-0.0001223976
181.1019,-0.0001223071
181.2019,-0.0001222855
181.3019,-0.0001221979
181.4019,-0.0001221207
181.5019,-0.0001221018
181.6019,-0.0001220218
181.7019,-0.0001218994
181.8019,-0.0001218674
181.9019,-0.0001217864
182.0019,-0.0001216903
182.1019,-0.0001216734
182.2019,-0.0001216027
182.3019,-0.000121501
182.4019,-0.0001214163
182.5019,-0.0001213871
182.6019,-0.0001212656
182.702,-0.0001212712
182.802,-0.000121194
182.902,-0.0001211093
183.002,-0.0001210462
183.102,-0.0001209963
183.202,-0.00012092
183.302,-0.0001208889
183.402,-0.0001208333
183.502,-0.0001207345
183.602,-0.0001206855
183.702,-0.0001206648
183.802,-0.0001205753
183.902,-0.000120516
184.002,-0.0001204736
184.102,-0.0001203785
184.202,-0.0001203361
184.302,-0.0001202768
184.4021,-0.0001201751
184.5021,-0.0001201572
184.6021,-0.0001201318
184.7021,-0.0001199952
184.8021,-0.0001199895
184.9021,-0.0001199227
185.0021,-0.0001198492
185.1021,-0.0001198473
185.2021,-0.0001197598
185.3021,-0.0001196967
185.4021,-0.000119642
185.5021,-0.0001195667
185.6021,-0.0001195017
185.7021,-0.0001194575
185.8021,-0.0001193652
185.9021,-0.0001192842
186.0022,-0.0001192644
186.1022,-0.0001192126
186.2022,-0.0001191166
186.3022,-0.0001191156
186.4022,-0.000118981
186.5022,-0.0001188934
186.6022,-0.0001188755
186.7022,-0.0001188011
186.8022,-0.0001187182
186.9022,-0.0001186871
187.0022,-0.0001186071
187.1022,-0.0001185242
187.2022,-0.0001184705
187.3022,-0.0001184574
187.4022,-0.0001183283
187.5022,-0.0001183434
187.6022,-0.0001182775
187.7023,-0.000118156
187.8023,-0.0001181362
187.9023,-0.0001180562
188.0023,-0.0001179884
188.1023,-0.0001179705
188.2023,-0.0001178867
188.3023,-0.0001178113
188.4023,-0.0001177397
188.5023,-0.0001177661
188.6023,-0.0001176814
188.7023,-0.0001175702
188.8023,-0.0001175655
188.9023,-0.0001174958
189.0023,-0.0001174214
189.1023,-0.0001173725
189.2023,-0.0001172745
189.3024,-0.0001172849
189.4024,-0.0001172529
189.5024,-0.0001171926
189.6024,-0.0001171182
189.7024,-0.0001171097
189.8024,-0.0001170617
189.9024,-0.000116912
190.0024,-0.0001168818
190.1024,-0.000116798
190.2024,-0.0001167199
190.3024,-0.0001166568
190.4024,-0.0001166116
190.5024,-0.0001164816
190.6024,-0.0001164468
190.7024,-0.0001164251
190.8024,-0.0001163337
190.9025,-0.0001162518
191.0025,-0.0001162302
191.1025,-0.0001161313
191.2025,-0.0001161388
191.3025,-0.0001160465
191.4025,-0.0001159684
191.5025,-0.0001159382
191.6025,-0.0001159053
191.7025,-0.0001158045
191.8025,-0.0001157273
191.9025,-0.0001157047
192.0025,-0.0001156275
192.1025,-0.0001156105
192.2025,-0.00011557
192.3025,-0.0001154937
192.4025,-0.0001154598
192.5025,-0.0001153807
192.6026,-0.0001152913
192.7026,-0.0001152828
192.8026,-0.0001152225
192.9026,-0.0001151359
193.0026,-0.0001151086
193.1026,-0.0001150511
193.2026,-0.0001150059
193.3026,-0.0001150087
193.4026,-0.0001148872
193.5026,-0.0001148091
193.6026,-0.0001147921
193.7026,-0.0001147375
193.8026,-0.0001146697
193.9026,-0.0001146142
194.0026,-0.0001145332
194.1026,-0.0001144475
194.2027,-0.0001144428
194.3027,-0.0001143938
194.4027,-0.0001143053
194.5027,-0.0001142987
194.6027,-0.000114212
194.7027,-0.0001141254
194.8027,-0.0001141292
194.9027,-0.0001140727
195.0027,-0.0001139813
195.1027,-0.0001139568
195.2027,-0.0001138947
195.3027,-0.00011389
195.4027,-0.0001138749
195.5027,-0.0001137506
195.6027,-0.0001137101
195.7027,-0.0001136573
195.8027,-0.0001136084
195.9028,-0.0001135189
196.0028,-0.0001134831
196.1028,-0.000113421
196.2028,-0.0001134012
196.3028,-0.0001133381
196.4028,-0.000113339
196.5028,-0.0001132929
196.6028,-0.000113243
196.7028,-0.0001131432
196.8028,-0.0001130546
196.9028,-0.0001130358
197.0028,-0.0001129934
197.1028,-0.0001129237
197.2028,-0.000112904
197.3028,-0.0001128409
197.4028,-0.0001127655
197.5029,-0.0001127778
197.6029,-0.0001126892
197.7029,-0.0001126214
197.8029,-0.0001126252
197.9029,-0.0001125593
198.0029,-0.0001125273
198.1029,-0.0001124369
198.2029,-0.0001124039
198.3029,-0.0001123568
198.4029,-0.0001123107
198.5029,-0.0001122466
198.6029,-0.0001122061
198.7029,-0.0001122014
198.8029,-0.0001121063
198.9029,-0.000112063
199.0029,-0.0001120743
199.103,-0.0001119801
199.203,-0.0001118963
199.303,-0.0001118436
199.403,-0.0001118219
199.503,-0.0001117616
199.603,-0.0001117089
199.703,-0.000111627
199.803,-0.0001115742
199.903,-0.0001115563
200.003,-0.0001114706
200.103,-0.0001114151
200.203,-0.0001113501
200.303,-0.000111287
200.403,-0.0001113266
200.503,-0.0001112154
200.603,-0.0001111825
200.703,-0.0001111222
200.8031,-0.0001110459
200.9031,-0.0001110299
201.0031,-0.0001109791
201.1031,-0.0001108924
201.2031,-0.0001108548
201.3031,-0.0001108067
201.4031,-0.0001107549
201.5031,-0.0001106947
201.6031,-0.0001106768
201.7031,-0.0001105647
201.8031,-0.000110592
201.9031,-0.0001105242
202.0031,-0.0001104404
202.1031,-0.0001104055
202.2031,-0.0001103651
202.3031,-0.0001103123
202.4032,-0.0001102436
202.5032,-0.0001102125
202.6032,-0.0001101842
202.7032,-0.0001101663
202.8032,-0.0001100901
202.9032,-0.0001100053
203.0032,-0.0001099855
203.1032,-0.0001099648
203.2032,-0.0001098932
203.3032,-0.0001098367
203.4032,-0.0001097633
203.5032,-0.0001097878
203.6032,-0.0001097878
203.7032,-0.0001097228
203.8032,-0.0001096578
203.9032,-0.0001095806
204.0033,-0.0001095665
204.1033,-0.0001094968
204.2033,-0.0001094657
204.3033,-0.0001094158
204.4033,-0.0001093423
204.5033,-0.0001092802
204.6033,-0.0001092736
204.7033,-0.000109186
204.8033,-0.0001091257
204.9033,-0.0001091502
205.0033,-0.0001090513
205.1033,-0.0001090457
205.2033,-0.0001089873
205.3033,-0.0001089186
205.4033,-0.0001088988
205.5033,-0.0001088498
205.6033,-0.0001087792
205.7034,-0.0001087359
205.8034,-0.0001086935
205.9034,-0.0001086652
206.0034,-0.0001086266
206.1034,-0.0001085362
206.2034,-0.0001084825
206.3034,-0.0001084788
206.4034,-0.0001084128
206.5034,-0.000108346
206.6034,-0.000108346
206.7034,-0.0001082989
206.8034,-0.0001082782
206.9034,-0.0001082556
207.0034,-0.0001081699
207.1034,-0.0001080832
207.2034,-0.0001080766
207.3035,-0.0001080588
207.4035,-0.0001079834
207.5035,-0.0001079787
207.6035,-0.0001079288
207.7035,-0.0001078525
207.8035,-0.0001078516
207.9035,-0.0001078064
208.0035,-0.000107764
208.1035,-0.0001076896
208.2035,-0.0001076482
208.3035,-0.0001075935
208.4035,-0.0001075295
208.5035,-0.0001074909
208.6035,-0.0001074382
208.7035,-0.0001073732
208.8035,-0.0001073619
208.9035,-0.0001073007
209.0036,-0.0001072762
209.1036,-0.0001072103
209.2036,-0.0001071688
209.3036,-0.0001071246
209.4036,-0.0001070812
209.5036,-0.000107085
209.6036,-0.0001069937
209.7036,-0.0001069758
209.8036,-0.0001069475
209.9036,-0.0001068599
210.0036,-0.0001068684
210.1036,-0.0001068355
210.2036,-0.0001068044
210.3036,-0.000106778
210.4036,-0.0001066801
210.5036,-0.0001066104
210.6037,-0.0001066405
210.7037,-0.0001066367
210.8037,-0.000106536
210.9037,-0.0001064757
211.0037,-0.0001064625
211.1037,-0.0001064183
211.2037,-0.0001063928
211.3037,-0.0001063307
211.4037,-0.00010626
211.5037,-0.0001062346
211.6037,-0.0001061979
211.7037,-0.0001061282
211.8037,-0.0001060679
211.9037,-0.0001060359
212.0037,-0.0001059973
212.1037,-0.0001059898
212.2038,-0.0001059295
212.3038,-0.0001058504
212.4038,-0.0001058231
212.5038,-0.0001058127
212.6038,-0.0001057816
212.7038,-0.0001057346
212.8038,-0.0001056828
212.9038,-0.0001056131
213.0038,-0.0001055735
213.1038,-0.0001055726
213.2038,-0.0001055133
213.3038,-0.0001054417
213.4038,-0.0001054276
213.5038,-0.000105355
213.6038,-0.000105339
213.7038,-0.0001053117
213.8038,-0.0001052618
213.9039,-0.0001052185
214.0039,-0.0001051761
214.1039,-0.0001051686
214.2039,-0.0001050537
214.3039,-0.0001050462
214.4039,-0.000105016
214.5039,-0.0001050028
214.6039,-0.0001049831
214.7039,-0.0001048879
214.8039,-0.0001048484
214.9039,-0.0001048201
215.0039,-0.0001047778
215.1039,-0.000104757
215.2039,-0.0001046808
215.3039,-0.0001046469
215.4039,-0.00010471
215.504,-0.0001047523
215.604,-0.0001046299
215.704,-0.0001045687
215.804,-0.0001045932
215.904,-0.0001045131
216.004,-0.0001044934
216.104,-0.0001044227
216.204,-0.000104353
216.304,-0.0001043408
216.404,-0.0001043408
216.504,-0.0001042542
216.604,-0.0001042052
216.704,-0.0001041939
216.804,-0.0001041581
216.904,-0.000104144
217.004,-0.0001040894
217.104,-0.0001040536
217.2041,-0.0001039924
217.3041,-0.0001039359
217.4041,-0.0001039095
217.5041,-0.0001039123
217.6041,-0.0001038483
217.7041,-0.0001037607
217.8041,-0.0001037767
217.9041,-0.0001037315
218.0041,-0.0001036609
218.1041,-0.0001036524
218.2041,-0.0001036223
218.3041,-0.0001035422
218.4041,-0.0001035337
218.5041,-0.0001034951
218.6041,-0.0001034386
218.7041,-0.0001034292
218.8042,-0.0001033868
218.9042,-0.0001033407
219.0042,-0.0001033247
219.1042,-0.0001032766
219.2042,-0.0001032314
219.3042,-0.0001032183
219.4042,-0.0001032079
219.5042,-0.00010311
219.6042,-0.0001030742
219.7042,-0.0001030403
219.8042,-0.0001029819
219.9042,-0.0001029348
220.0042,-0.0001029329
220.1042,-0.0001028566
220.2042,-0.0001028547
220.3042,-0.0001028585
220.4043,-0.0001027756
220.5043,-0.000102753
220.6043,-0.000102706
220.7043,-0.0001026372
220.8043,-0.00010264
220.9043,-0.0001025939
221.0043,-0.0001025506
221.1043,-0.0001025242
221.2043,-0.0001024743
221.3043,-0.0001024555
221.4043,-0.0001024234
221.5043,-0.0001023914
221.6043,-0.0001023669
221.7043,-0.0001023302
221.8043,-0.0001022436
221.9043,-0.0001022746
222.0043,-0.0001021936
222.1044,-0.000102155
222.2044,-0.0001021513
222.3044,-0.0001020967
222.4044,-0.0001020477
222.5044,-0.0001020806
222.6044,-0.0001020072
222.7044,-0.0001019902
222.8044,-0.0001019516
222.9044,-0.0001019676
223.0044,-0.000101914
223.1044,-0.0001018763
223.2044,-0.0001018047
223.3044,-0.0001017925
223.4044,-0.0001017991
223.5044,-0.0001017322
223.6044,-0.000101671
223.7045,-0.0001016493
223.8045,-0.0001016183
223.9045,-0.0001015589
224.0045,-0.0001015401
224.1045,-0.0001015071
224.2045,-0.0001014271
224.3045,-0.0001014167
224.4045,-0.0001013932
224.5045,-0.0001013075
224.6045,-0.0001013263
224.7045,-0.0001012905
224.8045,-0.0001012434
224.9045,-0.0001012369
225.0045,-0.0001011691
225.1045,-0.0001011728
225.2045,-0.0001011474
225.3046,-0.0001010909
225.4046,-0.00010104
225.5046,-0.0001010024
225.6046,-0.0001009694
225.7046,-0.0001009336
225.8046,-0.000100911
225.9046,-0.0001008234
226.0046,-0.0001009007
226.1046,-0.0001008555
226.2046,-0.0001007509
226.3046,-0.0001007773
226.4046,-0.0001007349
226.5046,-0.0001006671
226.6046,-0.0001006558
226.7046,-0.0001006473
226.8046,-0.0001006002
226.9046,-0.0001005249
227.0047,-0.0001005174
227.1047,-0.0001004637
227.2047,-0.0001004882
227.3047,-0.0001004675
227.4047,-0.0001003874
227.5047,-0.0001003639
227.6047,-0.0001003827
227.7047,-0.0001002951
227.8047,-0.0001003055
227.9047,-0.0001002716
228.0047,-0.0001002377
228.1047,-0.0001002829
228.2047,-0.0001002753
228.3047,-0.0001001802
228.4047,-0.0001001247
228.5047,-0.0001000719
228.6048,-0.0001000682
228.7048,-0.0001000729
228.8048,-0.000100038
228.9048,-9.993726E-05
229.0048,-9.994009E-05
229.1048,-9.988076E-05
229.2048,-9.982332E-05
229.3048,-9.985533E-05
229.4048,-9.976775E-05
229.5048,-9.973197E-05
229.6048,-9.970936E-05
229.7048,-9.968018E-05
229.8048,-9.964722E-05
229.9048,-9.962461E-05
230.0048,-9.958883E-05
230.1048,-9.951725E-05
230.2048,-9.952101E-05
230.3049,-9.949088E-05
230.4049,-9.946263E-05
230.5049,-9.93873E-05
230.6049,-9.94146E-05
230.7049,-9.937317E-05
230.8049,-9.937694E-05
230.9049,-9.933927E-05
231.0049,-9.930348E-05
231.1049,-9.924696E-05
231.2049,-9.926675E-05
231.3049,-9.918953E-05
231.4049,-9.918764E-05
231.5049,-9.913398E-05
231.6049,-9.909629E-05
231.7049,-9.913302E-05
231.8049,-9.910477E-05
231.905,-9.90332E-05
232.005,-9.90059E-05
232.105,-9.897482E-05
232.205,-9.893432E-05
232.305,-9.890324E-05
232.405,-9.889383E-05
232.505,-9.880059E-05
232.605,-9.879118E-05
232.705,-9.87601E-05
232.805,-9.874127E-05
232.905,-9.87149E-05
233.005,-9.866121E-05
233.105,-9.863108E-05
233.205,-9.859435E-05
233.305,-9.857553E-05
233.405,-9.852373E-05
233.5051,-9.851807E-05
233.6051,-9.849547E-05
233.7051,-9.841542E-05
233.8051,-9.840318E-05
233.9051,-9.839753E-05
234.0051,-9.834103E-05
234.1051,-9.835327E-05
234.2051,-9.830901E-05
234.3051,-9.822331E-05
234.4051,-9.823932E-05
234.5051,-9.822049E-05
234.6051,-9.81395E-05
234.7051,-9.813574E-05
234.8051,-9.809713E-05
234.9051,-9.802649E-05
235.0051,-9.806604E-05
235.1051,-9.802837E-05
235.2052,-9.796057E-05
235.3052,-9.793138E-05
235.4052,-9.792102E-05
235.5052,-9.786169E-05
235.6052,-9.784474E-05
235.7052,-9.786263E-05
235.8052,-9.774679E-05
235.9052,-9.781083E-05
236.0052,-9.776845E-05
236.1052,-9.774115E-05
236.2052,-9.772231E-05
236.3052,-9.766392E-05
236.4052,-9.762437E-05
236.5052,-9.76093E-05
236.6052,-9.762626E-05
236.7052,-9.753773E-05
236.8053,-9.749818E-05
236.9053,-9.749912E-05
237.0053,-9.74445E-05
237.1053,-9.743885E-05
237.2053,-9.739365E-05
237.3053,-9.731266E-05
237.4053,-9.730324E-05
237.5053,-9.73023E-05
237.6053,-9.726745E-05
237.7053,-9.721849E-05
237.8053,-9.721095E-05
237.9053,-9.71149E-05
238.0053,-9.71714E-05
238.1053,-9.715727E-05
238.2053,-9.708665E-05
238.3053,-9.703579E-05
238.4053,-9.704615E-05
238.5054,-9.700378E-05
238.6054,-9.698117E-05
238.7054,-9.696987E-05
238.8054,-9.693408E-05
238.9054,-9.690395E-05
239.0054,-9.689359E-05
239.1054,-9.683615E-05
239.2054,-9.68418E-05
239.3054,-9.681637E-05
239.4054,-9.679471E-05
239.5054,-9.681825E-05
239.6054,-9.673255E-05
239.7054,-9.671654E-05
239.8054,-9.667793E-05
239.9054,-9.663273E-05
240.0054,-9.656492E-05
240.1055,-9.659411E-05
240.2055,-9.654985E-05
240.3055,-9.650183E-05
240.4055,-9.64538E-05
240.5055,-9.646227E-05
240.6055,-9.642649E-05
240.7055,-9.641613E-05
240.8055,-9.637846E-05
240.9055,-9.633608E-05
241.0055,-9.62937E-05
241.1055,-9.629842E-05
241.2055,-9.627957E-05
241.3055,-9.623344E-05
241.4055,-9.620519E-05
241.5055,-9.616657E-05
241.6055,-9.61355E-05
241.7056,-9.612137E-05
241.8056,-9.611572E-05
241.9056,-9.609029E-05
242.0056,-9.602249E-05
242.1056,-9.600459E-05
242.2056,-9.601119E-05
242.3056,-9.599612E-05
242.4056,-9.592643E-05
242.5056,-9.586616E-05
242.6056,-9.59236E-05
242.7056,-9.589629E-05
242.8056,-9.583791E-05
242.9056,-9.584732E-05
243.0056,-9.580495E-05
243.1056,-9.573149E-05
243.2056,-9.574656E-05
243.3056,-9.569759E-05
243.4057,-9.56392E-05
243.5057,-9.562696E-05
243.6057,-9.561754E-05
243.7057,-9.555162E-05
243.8057,-9.557893E-05
243.9057,-9.55309E-05
244.0057,-9.546686E-05
244.1057,-9.548476E-05
244.2057,-9.543956E-05
244.3057,-9.537269E-05
244.4057,-9.536704E-05
244.5057,-9.534915E-05
244.6057,-9.528699E-05
244.7057,-9.527287E-05
244.8057,-9.528511E-05
244.9057,-9.520977E-05
245.0058,-9.519282E-05
245.1058,-9.519E-05
245.2058,-9.51156E-05
245.3058,-9.512408E-05
245.4058,-9.511371E-05
245.5058,-9.504591E-05
245.6058,-9.501483E-05
245.7058,-9.501202E-05
245.8058,-9.495833E-05
245.9058,-9.49574E-05
246.0058,-9.494797E-05
246.1058,-9.487264E-05
246.2058,-9.484815E-05
246.3058,-9.484721E-05
246.4058,-9.479259E-05
246.5058,-9.477752E-05
246.6059,-9.479259E-05
246.7059,-9.46937E-05
246.8059,-9.47003E-05
246.9059,-9.466451E-05
247.0059,-9.461083E-05
247.1059,-9.461554E-05
247.2059,-9.461649E-05
247.3059,-9.453549E-05
247.4059,-9.451383E-05
247.5059,-9.450912E-05
247.6059,-9.44498E-05
247.7059,-9.445262E-05
247.8059,-9.441967E-05
247.9059,-9.436975E-05
248.0059,-9.434621E-05
248.1059,-9.434621E-05
248.2059,-9.429064E-05
248.306,-9.426333E-05
248.406,-9.430759E-05
248.506,-9.421342E-05
248.606,-9.418988E-05
248.706,-9.417481E-05
248.806,-9.412678E-05
248.906,-9.411642E-05
249.006,-9.40844E-05
249.106,-9.404484E-05
249.206,-9.404861E-05
249.306,-9.401942E-05
249.406,-9.393655E-05
249.506,-9.395256E-05
249.606,-9.394597E-05
249.706,-9.390265E-05
249.806,-9.387251E-05
249.9061,-9.386686E-05
250.0061,-9.383391E-05
250.1061,-9.381978E-05
250.2061,-9.379435E-05
250.3061,-9.371902E-05
250.4061,-9.371242E-05
250.5061,-9.371147E-05
250.6061,-9.367851E-05
250.7061,-9.362389E-05
250.8061,-9.364555E-05
250.9061,-9.358623E-05
251.0061,-9.357681E-05
251.1061,-9.354384E-05
251.2061,-9.35382E-05
251.3061,-9.345909E-05
251.4061,-9.344779E-05
251.5061,-9.345249E-05
251.6062,-9.343083E-05
251.7062,-9.337527E-05
251.8062,-9.335551E-05
251.9062,-9.334514E-05
252.0062,-9.332631E-05
252.1062,-9.329712E-05
252.2062,-9.32246E-05
252.3062,-9.327546E-05
252.4062,-9.327169E-05
252.5062,-9.32359E-05
252.6062,-9.32133E-05
252.7062,-9.318411E-05
252.8062,-9.314267E-05
252.9062,-9.319164E-05
253.0062,-9.312572E-05
253.1062,-9.310782E-05
253.2063,-9.304567E-05
253.3063,-9.2992E-05
253.4063,-9.297786E-05
253.5063,-9.297975E-05
253.6063,-9.292607E-05
253.7063,-9.287899E-05
253.8063,-9.28658E-05
253.9063,-9.282342E-05
254.0063,-9.282625E-05
254.1063,-9.281212E-05
254.2063,-9.275656E-05
254.3063,-9.2701E-05
254.4063,-9.278199E-05
254.5063,-9.27575E-05
254.6063,-9.266615E-05
254.7063,-9.264827E-05
254.8064,-9.265392E-05
254.9064,-9.258423E-05
255.0064,-9.260871E-05
255.1064,-9.260023E-05
255.2064,-9.252301E-05
255.3064,-9.253431E-05
255.4064,-9.254373E-05
255.5064,-9.247498E-05
255.6064,-9.242508E-05
255.7064,-9.242508E-05
255.8064,-9.237328E-05
255.9064,-9.236104E-05
256.0064,-9.237045E-05
256.1064,-9.229888E-05
256.2064,-9.222071E-05
256.3064,-9.222449E-05
256.4064,-9.216327E-05
256.5064,-9.219152E-05
256.6064,-9.224615E-05
256.7065,-9.215856E-05
256.8065,-9.211618E-05
256.9065,-9.213973E-05
257.0065,-9.205497E-05
257.1065,-9.204273E-05
257.2065,-9.206533E-05
257.3065,-9.200695E-05
257.4065,-9.197587E-05
257.5065,-9.193349E-05
257.6065,-9.191183E-05
257.7065,-9.193349E-05
257.8065,-9.191749E-05
257.9065,-9.182613E-05
258.0065,-9.18186E-05
258.1065,-9.182048E-05
258.2065,-9.175173E-05
258.3065,-9.176115E-05
258.4066,-9.172066E-05
258.5066,-9.167075E-05
258.6066,-9.167263E-05
258.7066,-9.167828E-05
258.8066,-9.159823E-05
258.9066,-9.160199E-05
259.0066,-9.164438E-05
259.1066,-9.154926E-05
259.2066,-9.152949E-05
259.3066,-9.152573E-05
259.4066,-9.145791E-05
259.5066,-9.146828E-05
259.6066,-9.146074E-05
259.7066,-9.137975E-05
259.8066,-9.136469E-05
259.9066,-9.13788E-05
260.0067,-9.132607E-05
260.1067,-9.129499E-05
260.2067,-9.126862E-05
260.3067,-9.125921E-05
260.4067,-9.12771E-05
260.5067,-9.125356E-05
260.6067,-9.120365E-05
260.7067,-9.120082E-05
260.8067,-9.119235E-05
260.9067,-9.116692E-05
261.0067,-9.114244E-05
261.1067,-9.112454E-05
261.2067,-9.105956E-05
261.3067,-9.107745E-05
261.4067,-9.10492E-05
261.5067,-9.098893E-05
261.6068,-9.100306E-05
261.7068,-9.096822E-05
261.8068,-9.091925E-05
261.9068,-9.09249E-05
262.0068,-9.092395E-05
262.1068,-9.085426E-05
262.2068,-9.087969E-05
262.3068,-9.084202E-05
262.4068,-9.077704E-05
262.5068,-9.079211E-05
262.6068,-9.081094E-05
262.7068,-9.072902E-05
262.8068,-9.070923E-05
262.9068,-9.072431E-05
263.0068,-9.071866E-05
263.1068,-9.072242E-05
263.2068,-9.064614E-05
263.3069,-9.061506E-05
263.4069,-9.058775E-05
263.5069,-9.058116E-05
263.6069,-9.054349E-05
263.7069,-9.054632E-05
263.8069,-9.047945E-05
263.9069,-9.048793E-05
264.0069,-9.054255E-05
264.1069,-9.052654E-05
264.2069,-9.047757E-05
264.3069,-9.043708E-05
264.4069,-9.040129E-05
264.5069,-9.037021E-05
264.6069,-9.037492E-05
264.7069,-9.035233E-05
264.8069,-9.028734E-05
264.907,-9.028169E-05
265.007,-9.02977E-05
265.107,-9.022048E-05
265.207,-9.018469E-05
265.307,-9.020448E-05
265.407,-9.013949E-05
265.507,-9.017433E-05
265.607,-9.014891E-05
265.707,-9.004626E-05
265.807,-9.006698E-05
265.907,-9.00585E-05
266.007,-9.001236E-05
266.107,-9.001519E-05
266.207,-8.999823E-05
266.307,-8.991818E-05
266.407,-8.994173E-05
266.507,-8.99389E-05
266.6071,-8.986732E-05
266.7071,-8.989558E-05
266.8071,-8.986732E-05
266.9071,-8.978917E-05
267.0071,-8.981082E-05
267.1071,-8.979952E-05
267.2071,-8.974773E-05
267.3071,-8.973173E-05
267.4071,-8.977974E-05
267.5071,-8.971383E-05
267.6071,-8.96771E-05
267.7071,-8.968558E-05
267.8071,-8.958858E-05
267.9071,-8.962531E-05
268.0071,-8.962437E-05
268.1071,-8.957257E-05
268.2072,-8.95641E-05
268.3072,-8.953302E-05
268.4072,-8.946992E-05
268.5072,-8.948969E-05
268.6072,-8.950665E-05
268.7072,-8.942566E-05
268.8072,-8.941529E-05
268.9072,-8.941248E-05
269.0072,-8.935126E-05
269.1072,-8.939364E-05
269.2072,-8.933713E-05
269.3072,-8.925991E-05
269.4072,-8.929664E-05
269.5072,-8.926462E-05
269.6072,-8.919494E-05
269.7072,-8.923166E-05
269.8073,-8.924579E-05
269.9073,-8.914785E-05
270.0073,-8.914503E-05
270.1073,-8.91309E-05
270.2073,-8.911018E-05
270.3073,-8.911865E-05
270.4073,-8.907627E-05
270.5073,-8.90113E-05
270.6073,-8.903578E-05
270.7073,-8.901789E-05
270.8073,-8.893878E-05
270.9073,-8.892748E-05
271.0073,-8.89821E-05
271.1073,-8.899057E-05
271.2073,-8.895291E-05
271.3073,-8.889358E-05
271.4073,-8.886062E-05
271.5074,-8.887004E-05
271.6074,-8.882012E-05
271.7074,-8.875327E-05
271.8074,-8.877869E-05
271.9074,-8.877869E-05
272.0074,-8.873537E-05
272.1074,-8.870052E-05
272.2074,-8.865814E-05
272.3074,-8.862613E-05
272.4074,-8.867133E-05
272.5074,-8.863179E-05
272.6074,-8.854231E-05
272.7074,-8.85894E-05
272.8074,-8.857433E-05
272.9074,-8.854325E-05
273.0074,-8.851406E-05
273.1075,-8.849805E-05
273.2075,-8.84359E-05
273.3075,-8.847639E-05
273.4075,-8.8402E-05
273.5075,-8.838128E-05
273.6075,-8.8402E-05
273.7075,-8.837374E-05
273.8075,-8.834643E-05
273.9075,-8.834925E-05
274.0075,-8.834267E-05
274.1075,-8.826922E-05
274.2075,-8.829653E-05
274.3075,-8.825886E-05
274.4075,-8.821553E-05
274.5075,-8.824567E-05
274.6075,-8.820235E-05
274.7076,-8.813172E-05
274.8076,-8.816656E-05
274.9076,-8.818822E-05
275.0076,-8.812984E-05
275.1076,-8.811665E-05
275.2076,-8.810347E-05
275.3076,-8.809876E-05
275.4076,-8.806579E-05
275.5076,-8.805827E-05
275.6076,-8.799422E-05
275.7076,-8.800458E-05
275.8076,-8.800552E-05
275.9076,-8.795656E-05
276.0076,-8.796127E-05
276.1076,-8.793773E-05
276.2076,-8.792924E-05
276.3076,-8.793678E-05
276.4077,-8.790947E-05
276.5077,-8.785674E-05
276.6077,-8.785768E-05
276.7077,-8.783978E-05
276.8077,-8.783036E-05
276.9077,-8.778799E-05
277.0077,-8.781342E-05
277.1077,-8.774373E-05
277.2077,-8.778893E-05
277.3077,-8.773526E-05
277.4077,-8.768346E-05
277.5077,-8.775314E-05
277.6077,-8.775503E-05
277.7077,-8.76957E-05
277.8077,-8.76731E-05
277.9077,-8.763825E-05
278.0078,-8.761094E-05
278.1078,-8.759494E-05
278.2078,-8.759494E-05
278.3078,-8.752054E-05
278.4078,-8.752054E-05
278.5078,-8.750076E-05
278.6078,-8.749888E-05
278.7078,-8.746874E-05
278.8078,-8.743013E-05
278.9078,-8.750547E-05
279.0078,-8.742165E-05
279.1078,-8.740941E-05
279.2078,-8.739622E-05
279.3078,-8.733971E-05
279.4078,-8.735102E-05
279.5078,-8.730488E-05
279.6078,-8.727662E-05
279.7079,-8.727569E-05
279.8079,-8.730205E-05
279.9079,-8.72286E-05
280.0079,-8.719657E-05
280.1079,-8.720694E-05
280.2079,-8.717775E-05
280.3079,-8.718622E-05
280.4079,-8.715702E-05
280.5079,-8.708451E-05
280.6079,-8.710335E-05
280.7079,-8.708545E-05
280.8079,-8.707039E-05
280.9079,-8.707321E-05
281.0079,-8.70233E-05
281.1079,-8.697151E-05
281.2079,-8.700729E-05
281.308,-8.700635E-05
281.408,-8.693196E-05
281.508,-8.693383E-05
281.608,-8.697622E-05
281.708,-8.687357E-05
281.808,-8.69037E-05
281.908,-8.68924E-05
282.008,-8.681895E-05
282.108,-8.687545E-05
282.208,-8.688298E-05
282.308,-8.677845E-05
282.408,-8.675868E-05
282.508,-8.676998E-05
282.608,-8.672478E-05
282.708,-8.674643E-05
282.808,-8.673137E-05
282.9081,-8.664567E-05
283.0081,-8.664849E-05
283.1081,-8.666544E-05
283.2081,-8.661553E-05
283.3081,-8.664284E-05
283.4081,-8.658916E-05
283.5081,-8.654584E-05
283.6081,-8.657221E-05
283.7081,-8.657033E-05
283.8081,-8.651194E-05
283.9081,-8.652324E-05
284.0081,-8.65402E-05
284.1081,-8.645544E-05
284.2081,-8.646108E-05
284.3081,-8.644414E-05
284.4081,-8.639706E-05
284.5081,-8.643283E-05
284.6082,-8.642436E-05
284.7082,-8.63575E-05
284.8082,-8.634807E-05
284.9082,-8.637821E-05
285.0082,-8.633396E-05
285.1082,-8.636503E-05
285.2082,-8.633961E-05
285.3082,-8.630665E-05
285.4082,-8.630571E-05
285.5082,-8.628781E-05
285.6082,-8.623319E-05
285.7082,-8.623601E-05
285.8082,-8.62266E-05
285.9082,-8.617197E-05
286.0082,-8.618327E-05
286.1082,-8.619364E-05
286.2083,-8.610229E-05
286.3083,-8.613619E-05
286.4083,-8.615597E-05
286.5083,-8.607121E-05
286.6083,-8.608346E-05
286.7083,-8.607215E-05
286.8083,-8.605332E-05
286.9083,-8.605803E-05
287.0083,-8.603072E-05
287.1083,-8.600435E-05
287.2083,-8.596008E-05
287.3083,-8.596951E-05
287.4083,-8.595349E-05
287.5083,-8.589228E-05
287.6083,-8.590264E-05
287.7083,-8.590734E-05
287.8083,-8.589699E-05
287.9084,-8.585273E-05
288.0084,-8.582542E-05
288.1084,-8.579057E-05
288.2084,-8.578775E-05
288.3084,-8.579717E-05
288.4084,-8.575291E-05
288.5084,-8.573501E-05
288.6084,-8.573501E-05
288.7084,-8.568793E-05
288.8084,-8.573878E-05
288.9084,-8.568699E-05
289.0084,-8.567474E-05
289.1084,-8.564461E-05
289.2084,-8.5622E-05
289.3084,-8.563048E-05
289.4084,-8.557963E-05
289.5085,-8.555986E-05
289.6085,-8.553819E-05
289.7085,-8.549581E-05
289.8085,-8.555608E-05
289.9085,-8.548262E-05
290.0085,-8.549957E-05
290.1085,-8.547227E-05
290.2085,-8.542141E-05
290.3085,-8.548828E-05
290.4085,-8.543178E-05
290.5085,-8.536491E-05
290.6085,-8.538563E-05
290.7085,-8.539787E-05
290.8085,-8.534419E-05
290.9085,-8.530088E-05
291.0085,-8.534419E-05
291.1086,-8.526038E-05
291.2086,-8.527638E-05
291.3086,-8.526886E-05
291.4086,-8.519351E-05
291.5086,-8.521612E-05
291.6086,-8.522082E-05
291.7086,-8.516715E-05
291.8086,-8.515585E-05
291.9086,-8.512289E-05
292.0086,-8.51276E-05
292.1086,-8.518316E-05
292.2086,-8.511629E-05
292.3086,-8.501459E-05
292.4086,-8.506449E-05
292.5086,-8.508052E-05
292.6086,-8.500517E-05
292.7086,-8.502495E-05
292.8087,-8.497974E-05
292.9087,-8.492889E-05
293.0087,-8.495903E-05
293.1087,-8.498634E-05
293.2087,-8.487521E-05
293.3087,-8.491476E-05
293.4087,-8.496091E-05
293.5087,-8.487239E-05
293.6087,-8.486014E-05
293.7087,-8.48545E-05
293.8087,-8.478952E-05
293.9087,-8.480834E-05
294.0087,-8.479328E-05
294.1087,-8.475467E-05
294.2087,-8.4717E-05
294.3087,-8.4717E-05
294.4088,-8.468499E-05
294.5088,-8.465861E-05
294.6088,-8.468781E-05
294.7088,-8.46379E-05
294.8088,-8.460588E-05
294.9088,-8.460023E-05
295.0088,-8.459646E-05
295.1088,-8.458045E-05
295.2088,-8.454561E-05
295.3088,-8.451076E-05
295.4088,-8.44778E-05
295.5088,-8.449287E-05
295.6088,-8.449757E-05
295.7088,-8.440058E-05
295.8088,-8.452112E-05
295.9088,-8.449098E-05
296.0089,-8.440435E-05
296.1089,-8.442318E-05
296.2089,-8.449757E-05
296.3089,-8.435161E-05
296.4089,-8.438551E-05
296.5089,-8.435914E-05
296.6089,-8.432147E-05
296.7089,-8.433371E-05
296.8089,-8.43064E-05
296.9089,-8.419811E-05
297.0089,-8.430735E-05
297.1089,-8.434408E-05
297.2089,-8.425084E-05
297.3089,-8.424519E-05
297.4089,-8.424801E-05
297.5089,-8.414914E-05
297.6089,-8.420941E-05
297.709,-8.418586E-05
297.809,-8.412747E-05
297.909,-8.411994E-05
298.009,-8.41077E-05
298.109,-8.406721E-05
298.209,-8.401353E-05
298.309,-8.404837E-05
298.409,-8.39721E-05
298.509,-8.397868E-05
298.609,-8.398716E-05
298.709,-8.391276E-05
298.809,-8.395702E-05
298.909,-8.391276E-05
299.009,-8.389111E-05
299.109,-8.389675E-05
299.209,-8.387604E-05
299.3091,-8.385719E-05
299.4091,-8.386756E-05
299.5091,-8.383178E-05
299.6091,-8.377998E-05
299.7091,-8.378563E-05
299.8091,-8.374231E-05
299.9091,-8.372348E-05
300.0091,-8.379128E-05
300.1091,-8.374702E-05
300.2091,-8.362741E-05
300.3091,-8.369239E-05
300.4091,-8.365096E-05
300.5091,-8.359634E-05
300.6091,-8.3618E-05
300.7091,-8.361047E-05
300.8091,-8.354078E-05
300.9091,-8.356338E-05
301.0092,-8.357656E-05
301.1092,-8.351535E-05
301.2092,-8.346261E-05
301.3092,-8.349369E-05
301.4092,-8.345979E-05
301.5092,-8.346639E-05
301.6092,-8.347392E-05
301.7092,-8.339292E-05
301.8092,-8.347298E-05
301.9092,-8.354078E-05
302.0092,-8.343154E-05
302.1092,-8.340705E-05
302.2092,-8.34532E-05
302.3092,-8.338634E-05
302.4092,-8.337032E-05
302.5092,-8.337975E-05
302.6093,-8.329876E-05
302.7093,-8.330064E-05
302.8093,-8.330817E-05
302.9093,-8.326862E-05
303.0093,-8.322435E-05
303.1093,-8.322248E-05
303.2093,-8.317068E-05
303.3093,-8.318481E-05
303.4093,-8.318858E-05
303.5093,-8.30991E-05
303.6093,-8.310476E-05
303.7093,-8.3101E-05
303.8093,-8.307651E-05
303.9093,-8.306991E-05
304.0093,-8.308121E-05
304.1093,-8.298327E-05
304.2094,-8.301152E-05
304.3094,-8.302283E-05
304.4094,-8.295784E-05
304.5094,-8.295973E-05
304.6094,-8.293619E-05
304.7094,-8.292959E-05
304.8094,-8.292488E-05
304.9094,-8.289663E-05
305.0094,-8.288911E-05
305.1094,-8.288722E-05
305.2094,-8.285332E-05
305.3094,-8.280529E-05
305.4094,-8.282036E-05
305.5094,-8.280529E-05
305.6094,-8.27761E-05
305.7094,-8.277044E-05
305.8094,-8.274219E-05
305.9095,-8.271205E-05
306.0095,-8.274125E-05
306.1095,-8.272994E-05
306.2095,-8.263954E-05
306.3095,-8.265649E-05
306.4095,-8.270264E-05
306.5095,-8.264519E-05
306.6095,-8.264519E-05
306.7095,-8.261129E-05
306.8095,-8.256609E-05
306.9095,-8.25934E-05
307.0095,-8.255008E-05
307.1095,-8.248886E-05
307.2095,-8.251147E-05
307.3095,-8.249263E-05
307.4095,-8.241917E-05
307.5096,-8.248981E-05
307.6096,-8.24446E-05
307.7096,-8.236267E-05
307.8096,-8.238716E-05
307.9096,-8.237021E-05
308.0096,-8.231465E-05
308.1096,-8.233442E-05
308.2096,-8.233631E-05
308.3096,-8.22459E-05
308.4096,-8.225155E-05
308.5096,-8.228546E-05
308.6096,-8.227226E-05
308.7096,-8.228546E-05
308.8096,-8.22233E-05
308.9096,-8.219693E-05
309.0096,-8.221294E-05
309.1096,-8.216773E-05
309.2097,-8.213007E-05
309.3097,-8.212253E-05
309.4097,-8.210558E-05
309.5097,-8.205096E-05
309.6097,-8.207357E-05
309.7097,-8.207168E-05
309.8097,-8.202365E-05
309.9097,-8.20858E-05
310.0097,-8.204531E-05
310.1097,-8.201895E-05
310.2097,-8.199634E-05
310.3097,-8.197468E-05
310.4097,-8.19502E-05
310.5097,-8.198315E-05
310.6097,-8.190499E-05
310.7097,-8.186261E-05
310.8098,-8.191911E-05
310.9098,-8.188427E-05
311.0098,-8.184943E-05
311.1098,-8.183813E-05
311.2098,-8.18353E-05
311.3098,-8.178163E-05
311.4098,-8.182212E-05
311.5098,-8.177691E-05
311.6098,-8.178163E-05
311.7098,-8.179669E-05
311.8098,-8.173454E-05
311.9098,-8.173266E-05
312.0098,-8.1711E-05
312.1098,-8.168745E-05
312.2098,-8.167521E-05
312.3098,-8.167521E-05
312.4099,-8.163471E-05
312.5099,-8.159704E-05
312.6099,-8.163095E-05
312.7099,-8.157162E-05
312.8099,-8.156785E-05
312.9099,-8.156879E-05
313.0099,-8.151982E-05
313.1099,-8.150664E-05
313.2099,-8.150758E-05
313.3099,-8.149533E-05
313.4099,-8.146049E-05
313.5099,-8.151135E-05
313.6099,-8.149062E-05
313.7099,-8.14652E-05
313.8099,-8.148027E-05
313.9099,-8.144731E-05
314.0099,-8.142659E-05
314.11,-8.138704E-05
314.21,-8.136726E-05
314.31,-8.138233E-05
314.41,-8.132959E-05
314.51,-8.133995E-05
314.61,-8.134748E-05
314.71,-8.131642E-05
314.81,-8.129475E-05
314.91,-8.126838E-05
315.01,-8.125803E-05
315.11,-8.130417E-05
315.21,-8.124955E-05
315.31,-8.119116E-05
315.41,-8.124107E-05
315.51,-8.122695E-05
315.61,-8.116197E-05
315.7101,-8.118174E-05
315.8101,-8.119493E-05
315.9101,-8.108757E-05
316.0101,-8.115631E-05
316.1101,-8.109699E-05
316.2101,-8.105179E-05
316.3101,-8.105273E-05
316.4101,-8.106214E-05
316.5101,-8.104424E-05
316.6101,-8.103483E-05
316.7101,-8.105084E-05
316.8101,-8.095008E-05
316.9101,-8.104801E-05
317.0101,-8.102259E-05
317.1101,-8.0935E-05
317.2101,-8.095572E-05
317.3102,-8.094442E-05
317.4102,-8.090675E-05
317.5102,-8.088227E-05
317.6102,-8.088604E-05
317.7102,-8.091429E-05
317.8102,-8.094725E-05
317.9102,-8.087097E-05
318.0102,-8.081447E-05
318.1102,-8.086344E-05
318.2102,-8.084084E-05
318.3102,-8.080975E-05
318.4102,-8.080411E-05
318.5102,-8.080035E-05
318.6102,-8.074666E-05
318.7102,-8.074006E-05
318.8102,-8.074949E-05
318.9102,-8.071181E-05
319.0103,-8.071653E-05
319.1103,-8.068262E-05
319.2103,-8.064778E-05
319.3103,-8.066379E-05
319.4103,-8.065814E-05
319.5103,-8.062517E-05
319.6103,-8.060164E-05
319.7103,-8.063083E-05
319.8103,-8.05828E-05
319.9103,-8.052913E-05
320.0103,-8.054608E-05
320.1103,-8.053289E-05
320.2103,-8.052818E-05
320.3103,-8.050934E-05
320.4103,-8.047073E-05
320.5103,-8.049428E-05
320.6104,-8.04858E-05
320.7104,-8.043495E-05
320.8104,-8.041612E-05
320.9104,-8.043683E-05
321.0104,-8.039634E-05
321.1104,-8.04001E-05
321.2104,-8.040482E-05
321.3104,-8.035114E-05
321.4104,-8.043023E-05
321.5104,-8.040482E-05
321.6104,-8.032665E-05
321.7104,-8.036244E-05
321.8104,-8.039634E-05
321.9104,-8.034642E-05
322.0104,-8.035302E-05
322.1104,-8.029181E-05
322.2104,-8.025602E-05
322.3105,-8.030216E-05
322.4105,-8.032571E-05
322.5105,-8.022776E-05
322.6105,-8.021176E-05
322.7105,-8.023907E-05
322.8105,-8.017408E-05
322.9105,-8.019481E-05
323.0105,-8.018916E-05
323.1105,-8.01496E-05
323.2105,-8.013077E-05
323.3105,-8.014301E-05
323.4105,-8.007333E-05
323.5105,-8.011005E-05
323.6105,-8.008556E-05
323.7105,-8.002812E-05
323.8105,-8.004036E-05
323.9106,-8.004601E-05
324.0106,-7.998857E-05
324.1106,-7.999328E-05
324.2106,-8.002906E-05
324.3106,-7.997162E-05
324.4106,-7.997915E-05
324.5106,-7.998386E-05
324.6106,-7.992547E-05
324.7106,-7.990758E-05
324.8106,-7.993301E-05
324.9106,-7.98718E-05
325.0106,-7.988497E-05
325.1106,-7.98718E-05
325.2106,-7.985296E-05
325.3106,-7.987273E-05
325.4106,-7.984543E-05
325.5107,-7.982189E-05
325.6107,-7.980775E-05
325.7107,-7.980587E-05
325.8107,-7.977385E-05
325.9107,-7.979175E-05
326.0107,-7.975785E-05
326.1107,-7.971547E-05
326.2107,-7.969757E-05
326.3107,-7.972488E-05
326.4107,-7.968439E-05
326.5107,-7.967497E-05
326.6107,-7.964389E-05
326.7107,-7.963824E-05
326.8107,-7.961753E-05
326.9107,-7.962977E-05
327.0107,-7.95695E-05
327.1107,-7.955536E-05
327.2108,-7.961753E-05
327.3108,-7.956667E-05
327.4108,-7.956291E-05
327.5108,-7.955819E-05
327.6108,-7.948757E-05
327.7108,-7.94951E-05
327.8108,-7.950923E-05
327.9108,-7.948663E-05
328.0108,-7.945838E-05
328.1108,-7.941222E-05
328.2108,-7.939811E-05
328.3108,-7.945178E-05
328.4108,-7.947061E-05
328.5108,-7.936137E-05
328.6108,-7.933877E-05
328.7108,-7.936137E-05
328.8109,-7.935761E-05
328.9109,-7.931711E-05
329.0109,-7.9319E-05
329.1109,-7.926532E-05
329.2109,-7.920505E-05
329.3109,-7.925025E-05
329.4109,-7.920505E-05
329.5109,-7.920316E-05
329.6109,-7.923142E-05
329.7109,-7.914007E-05
329.8109,-7.913064E-05
329.9109,-7.917868E-05
330.0109,-7.912501E-05
330.1109,-7.91024E-05
330.2109,-7.908828E-05
330.3109,-7.902046E-05
330.4109,-7.903459E-05
330.511,-7.91024E-05
330.611,-7.902989E-05
330.711,-7.899976E-05
330.811,-7.903177E-05
330.911,-7.893383E-05
331.011,-7.896679E-05
331.111,-7.896491E-05
331.211,-7.8931E-05
331.311,-7.892535E-05
331.411,-7.892724E-05
331.511,-7.888392E-05
331.611,-7.888297E-05
331.711,-7.89084E-05
331.811,-7.883023E-05
331.911,-7.88227E-05
332.011,-7.885002E-05
332.1111,-7.88227E-05
332.2111,-7.880764E-05
332.3111,-7.879257E-05
332.4111,-7.873606E-05
332.5111,-7.87502E-05
332.6111,-7.874737E-05
332.7111,-7.865037E-05
332.8111,-7.873795E-05
332.9111,-7.876055E-05
333.0111,-7.865507E-05
333.1111,-7.869651E-05
333.2111,-7.867956E-05
333.3111,-7.860328E-05
333.4111,-7.86805E-05
333.5111,-7.862494E-05
333.6111,-7.855525E-05
333.7112,-7.856467E-05
333.8112,-7.858916E-05
333.9112,-7.853077E-05
334.0112,-7.851382E-05
334.1112,-7.854677E-05
334.2112,-7.849216E-05
334.3112,-7.855996E-05
334.4112,-7.85788E-05
334.5112,-7.845731E-05
334.6112,-7.845825E-05
334.7112,-7.84705E-05
334.8112,-7.842247E-05
334.9112,-7.842811E-05
335.0112,-7.84074E-05
335.1112,-7.833677E-05
335.2112,-7.834336E-05
335.3112,-7.837632E-05
335.4113,-7.831417E-05
335.5113,-7.827651E-05
335.6113,-7.830852E-05
335.7113,-7.822471E-05
335.8113,-7.829062E-05
335.9113,-7.828027E-05
336.0113,-7.819363E-05
336.1113,-7.818892E-05
336.2113,-7.821057E-05
336.3113,-7.818044E-05
336.4113,-7.814089E-05
336.5113,-7.81635E-05
336.6113,-7.812677E-05
336.7113,-7.817761E-05
336.8113,-7.817573E-05
336.9113,-7.8139E-05
337.0114,-7.812017E-05
337.1114,-7.808062E-05
337.2114,-7.806272E-05
337.3114,-7.808533E-05
337.4114,-7.805519E-05
337.5114,-7.797327E-05
337.6114,-7.803071E-05
337.7114,-7.798833E-05
337.8114,-7.79469E-05
337.9114,-7.797986E-05
338.0114,-7.797891E-05
338.1114,-7.787626E-05
338.2114,-7.792335E-05
338.3114,-7.789698E-05
338.4114,-7.787438E-05
338.5114,-7.7848E-05
338.6115,-7.78499E-05
338.7115,-7.778962E-05
338.8115,-7.781882E-05
338.9115,-7.784424E-05
339.0115,-7.783672E-05
339.1115,-7.786685E-05
339.2115,-7.785743E-05
339.3115,-7.781411E-05
339.4115,-7.780752E-05
339.5115,-7.775667E-05
339.6115,-7.773312E-05
339.7115,-7.777738E-05
339.8115,-7.772371E-05
339.9115,-7.765685E-05
340.0115,-7.767567E-05
340.1115,-7.768227E-05
340.2115,-7.765025E-05
340.3116,-7.76107E-05
340.4116,-7.765307E-05
340.5116,-7.764271E-05
340.6116,-7.762765E-05
340.7116,-7.761446E-05
340.8116,-7.757962E-05
340.9116,-7.754572E-05
341.0116,-7.756738E-05
341.1116,-7.753913E-05
341.2116,-7.754102E-05
341.3116,-7.750239E-05
341.4116,-7.746002E-05
341.5116,-7.745342E-05
341.6116,-7.74459E-05
341.7116,-7.745342E-05
341.8116,-7.742141E-05
341.9117,-7.740822E-05
342.0117,-7.737904E-05
342.1117,-7.738845E-05
342.2117,-7.73988E-05
342.3117,-7.736773E-05
342.4117,-7.729522E-05
342.5117,-7.73649E-05
342.6117,-7.73715E-05
342.7117,-7.734984E-05
342.8117,-7.729616E-05
342.9117,-7.726884E-05
343.0117,-7.725189E-05
343.1117,-7.726697E-05
343.2117,-7.725096E-05
343.3117,-7.724718E-05
343.4117,-7.723118E-05
343.5117,-7.721517E-05
343.6118,-7.722552E-05
343.7118,-7.717656E-05
343.8118,-7.716149E-05
343.9118,-7.717656E-05
344.0118,-7.713512E-05
344.1118,-7.710028E-05
344.2118,-7.713417E-05
344.3118,-7.711817E-05
344.4118,-7.711817E-05
344.5118,-7.710028E-05
344.6118,-7.712665E-05
344.7118,-7.708804E-05
344.8118,-7.709464E-05
344.9118,-7.706731E-05
345.0118,-7.701459E-05
345.1118,-7.699952E-05
345.2119,-7.702965E-05
345.3119,-7.700988E-05
345.4119,-7.694771E-05
345.5119,-7.701364E-05
345.6119,-7.701459E-05
345.7119,-7.699198E-05
345.8119,-7.69609E-05
345.9119,-7.695149E-05
346.0119,-7.694301E-05
346.1119,-7.695431E-05
346.2119,-7.691664E-05
346.3119,-7.692417E-05
346.4119,-7.694018E-05
346.5119,-7.690346E-05
346.6119,-7.691193E-05
346.7119,-7.687991E-05
346.812,-7.686767E-05
346.912,-7.687145E-05
347.012,-7.682718E-05
347.112,-7.681023E-05
347.212,-7.679328E-05
347.312,-7.681211E-05
347.412,-7.679986E-05
347.512,-7.67622E-05
347.612,-7.67782E-05
347.712,-7.676125E-05
347.812,-7.672735E-05
347.912,-7.672358E-05
348.012,-7.668121E-05
348.112,-7.667744E-05
348.212,-7.665296E-05
348.312,-7.664448E-05
348.412,-7.661811E-05
348.5121,-7.661246E-05
348.6121,-7.665861E-05
348.7121,-7.658797E-05
348.8121,-7.662376E-05
348.9121,-7.664354E-05
349.0121,-7.661906E-05
349.1121,-7.658704E-05
349.2121,-7.656444E-05
349.3121,-7.652299E-05
349.4121,-7.657008E-05
349.5121,-7.655784E-05
349.6121,-7.650229E-05
349.7121,-7.651452E-05
349.8121,-7.651452E-05
349.9121,-7.647968E-05
350.0121,-7.651075E-05
350.1122,-7.646555E-05
350.2122,-7.641941E-05
350.3122,-7.644294E-05
350.4122,-7.64373E-05
350.5122,-7.640057E-05
350.6122,-7.637514E-05
350.7122,-7.64034E-05
350.8122,-7.638456E-05
350.9122,-7.638927E-05
351.0122,-7.636196E-05
351.1122,-7.632806E-05
351.2122,-7.633842E-05
351.3122,-7.629792E-05
351.4122,-7.626873E-05
351.5122,-7.630452E-05
351.6122,-7.630829E-05
351.7122,-7.620845E-05
351.8123,-7.624142E-05
351.9123,-7.626684E-05
352.0123,-7.623012E-05
352.1123,-7.622071E-05
352.2123,-7.623388E-05
352.3123,-7.617079E-05
352.4123,-7.617456E-05
352.5123,-7.616702E-05
352.6123,-7.611806E-05
352.7123,-7.611617E-05
352.8123,-7.618303E-05
352.9123,-7.609733E-05
353.0123,-7.610392E-05
353.1123,-7.610958E-05
353.2123,-7.607945E-05
353.3123,-7.60898E-05
353.4124,-7.605779E-05
353.5124,-7.600881E-05
353.6124,-7.606061E-05
353.7124,-7.602954E-05
353.8124,-7.596266E-05
353.9124,-7.600034E-05
354.0124,-7.598527E-05
354.1124,-7.59815E-05
354.2124,-7.595513E-05
354.3124,-7.594949E-05
354.4124,-7.591087E-05
354.5124,-7.593442E-05
354.6124,-7.591558E-05
354.7124,-7.586849E-05
354.8124,-7.587885E-05
354.9124,-7.589768E-05
355.0125,-7.58346E-05
355.1125,-7.584966E-05
355.2125,-7.584495E-05
355.3125,-7.580822E-05
355.4125,-7.588357E-05
355.5125,-7.587038E-05
355.6125,-7.580916E-05
355.7125,-7.582801E-05
355.8125,-7.582235E-05
355.9125,-7.579126E-05
356.0125,-7.579504E-05
356.1125,-7.577809E-05
356.2125,-7.57197E-05
356.3125,-7.577244E-05
356.4125,-7.573383E-05
356.5125,-7.567544E-05
356.6125,-7.569804E-05
356.7126,-7.569522E-05
356.8126,-7.563589E-05
356.9126,-7.567638E-05
357.0126,-7.563683E-05
357.1126,-7.559351E-05
357.2126,-7.560952E-05
357.3126,-7.560763E-05
357.4126,-7.555772E-05
357.5126,-7.558786E-05
357.6126,-7.55596E-05
357.7126,-7.550969E-05
357.8126,-7.554925E-05
357.9126,-7.554548E-05
358.0126,-7.549369E-05
358.1126,-7.549369E-05
358.2126,-7.551535E-05
358.3127,-7.548332E-05
358.4127,-7.55144E-05
358.5127,-7.548897E-05
358.6127,-7.548144E-05
358.7127,-7.546166E-05
358.8127,-7.542305E-05
358.9127,-7.540705E-05
359.0127,-7.542682E-05
359.1127,-7.536561E-05
359.2127,-7.53788E-05
359.3127,-7.535996E-05
359.4127,-7.537408E-05
359.5127,-7.529121E-05
359.6127,-7.536373E-05
359.7127,-7.534207E-05
359.8127,-7.526956E-05
359.9128,-7.531382E-05
360.0128,-7.528367E-05
360.1128,-7.525449E-05
360.2128,-7.529781E-05
360.3128,-7.52366E-05
360.4128,-7.521117E-05
360.5128,-7.52234E-05
360.6128,-7.524977E-05
360.7128,-7.518951E-05
360.8128,-7.515089E-05
360.9128,-7.522247E-05
361.0128,-7.520834E-05
361.1128,-7.521211E-05
361.2128,-7.51782E-05
361.3128,-7.516314E-05
361.4128,-7.514901E-05
361.5128,-7.514901E-05
361.6129,-7.511134E-05
361.7129,-7.513489E-05
361.8129,-7.511605E-05
361.9129,-7.506426E-05
362.0129,-7.505296E-05
362.1129,-7.506143E-05
362.2129,-7.504448E-05
362.3129,-7.505107E-05
362.4129,-7.501623E-05
362.5129,-7.500775E-05
362.6129,-7.498421E-05
362.7129,-7.501246E-05
362.8129,-7.500116E-05
362.9129,-7.49117E-05
363.0129,-7.496349E-05
363.1129,-7.499551E-05
363.213,-7.49343E-05
363.313,-7.48985E-05
363.413,-7.493712E-05
363.513,-7.488909E-05
363.613,-7.48938E-05
363.713,-7.48778E-05
363.813,-7.484765E-05
363.913,-7.485424E-05
364.013,-7.486367E-05
364.113,-7.487214E-05
364.213,-7.482506E-05
364.313,-7.480622E-05
364.413,-7.481092E-05
364.513,-7.481469E-05
364.613,-7.477985E-05
364.713,-7.47855E-05
364.813,-7.475819E-05
364.9131,-7.476291E-05
365.0131,-7.476385E-05
365.1131,-7.475819E-05
365.2131,-7.468191E-05
365.3131,-7.4729E-05
365.4131,-7.47064E-05
365.5131,-7.46951E-05
365.6131,-7.469039E-05
365.7131,-7.466214E-05
365.8131,-7.460939E-05
365.9131,-7.465555E-05
366.0131,-7.46838E-05
366.1131,-7.462729E-05
366.2131,-7.458868E-05
366.3131,-7.464235E-05
366.4131,-7.462541E-05
366.5132,-7.463388E-05
366.6132,-7.460187E-05
366.7132,-7.456514E-05
366.8132,-7.456137E-05
366.9132,-7.461317E-05
367.0132,-7.455383E-05
367.1132,-7.454537E-05
367.2132,-7.456985E-05
367.3132,-7.449262E-05
367.4132,-7.455289E-05
367.5132,-7.455572E-05
367.6132,-7.450204E-05
367.7132,-7.452182E-05
367.8132,-7.449168E-05
367.9132,-7.446532E-05
368.0132,-7.450298E-05
368.1133,-7.447755E-05
368.2133,-7.446343E-05
368.3133,-7.443236E-05
368.4133,-7.449451E-05
368.5133,-7.444836E-05
368.6133,-7.440034E-05
368.7133,-7.440786E-05
368.8133,-7.436549E-05
368.9133,-7.435513E-05
369.0133,-7.437209E-05
369.1133,-7.433253E-05
369.2133,-7.429486E-05
369.3133,-7.43589E-05
369.4133,-7.43476E-05
369.5133,-7.432311E-05
369.6133,-7.429392E-05
369.7133,-7.432029E-05
369.8134,-7.430993E-05
369.9134,-7.42958E-05
370.0134,-7.429957E-05
370.1134,-7.428827E-05
370.2134,-7.429768E-05
370.3134,-7.428638E-05
370.4134,-7.425437E-05
370.5134,-7.434195E-05
370.6134,-7.437961E-05
370.7134,-7.424683E-05
370.8134,-7.424872E-05
370.9134,-7.429674E-05
371.0134,-7.424777E-05
371.1134,-7.425342E-05
371.2134,-7.428073E-05
371.3134,-7.417903E-05
371.4135,-7.417903E-05
371.5135,-7.417715E-05
371.6135,-7.411782E-05
371.7135,-7.412346E-05
371.8135,-7.41489E-05
371.9135,-7.409239E-05
372.0135,-7.406696E-05
372.1135,-7.408769E-05
372.2135,-7.401799E-05
372.3135,-7.407449E-05
372.4135,-7.403871E-05
372.5135,-7.398503E-05
372.6135,-7.404718E-05
372.7135,-7.401423E-05
372.8135,-7.396337E-05
372.9135,-7.402364E-05
373.0135,-7.404342E-05
373.1136,-7.393512E-05
373.2136,-7.403777E-05
373.3136,-7.400575E-05
373.4136,-7.392947E-05
373.5136,-7.396901E-05
373.6136,-7.398032E-05
373.7136,-7.387767E-05
373.8136,-7.392852E-05
373.9136,-7.390499E-05
374.0136,-7.389086E-05
374.1136,-7.391817E-05
374.2136,-7.39031E-05
374.3136,-7.383153E-05
374.4136,-7.386637E-05
374.5136,-7.387485E-05
374.6136,-7.382305E-05
374.7137,-7.383341E-05
374.8137,-7.383624E-05
374.9137,-7.38127E-05
375.0137,-7.383058E-05
375.1137,-7.382964E-05
375.2137,-7.376372E-05
375.3137,-7.379574E-05
375.4137,-7.380045E-05
375.5137,-7.377408E-05
375.6137,-7.376749E-05
375.7137,-7.373547E-05
375.8137,-7.37948E-05
375.9137,-7.38353E-05
376.0137,-7.378633E-05
376.1137,-7.375619E-05
376.2137,-7.37496E-05
376.3138,-7.377314E-05
376.4138,-7.372229E-05
376.5138,-7.373547E-05
376.6138,-7.370251E-05
376.7138,-7.365637E-05
376.8138,-7.367991E-05
376.9138,-7.369216E-05
377.0138,-7.361775E-05
377.1138,-7.365825E-05
377.2138,-7.363094E-05
377.3138,-7.359327E-05
377.4138,-7.360456E-05
377.5138,-7.365542E-05
377.6138,-7.357443E-05
377.7138,-7.358385E-05
377.8138,-7.360835E-05
377.9138,-7.3549E-05
378.0139,-7.356596E-05
378.1139,-7.361116E-05
378.2139,-7.354242E-05
378.3139,-7.351887E-05
378.4139,-7.355089E-05
378.5139,-7.35104E-05
378.6139,-7.3549E-05
378.7139,-7.351417E-05
378.8139,-7.351134E-05
378.9139,-7.348497E-05
379.0139,-7.351604E-05
379.1139,-7.350757E-05
379.2139,-7.343223E-05
379.3139,-7.347368E-05
379.4139,-7.343788E-05
379.5139,-7.342282E-05
379.614,-7.345483E-05
379.714,-7.341435E-05
379.814,-7.341905E-05
379.914,-7.342564E-05
380.014,-7.340869E-05
380.114,-7.339362E-05
380.214,-7.336631E-05
380.314,-7.334089E-05
380.414,-7.337856E-05
380.514,-7.335878E-05
380.614,-7.33004E-05
380.714,-7.335878E-05
380.814,-7.336726E-05
380.914,-7.329285E-05
381.014,-7.330416E-05
381.114,-7.334183E-05
381.2141,-7.327403E-05
381.3141,-7.329191E-05
381.4141,-7.327497E-05
381.5141,-7.324106E-05
381.6141,-7.326084E-05
381.7141,-7.32712E-05
381.8141,-7.320904E-05
381.9141,-7.322788E-05
382.0141,-7.321186E-05
382.1141,-7.317232E-05
382.2141,-7.320246E-05
382.3141,-7.320057E-05
382.4141,-7.314501E-05
382.5141,-7.316949E-05
382.6141,-7.315537E-05
382.7141,-7.30885E-05
382.8141,-7.314595E-05
382.9142,-7.313841E-05
383.0142,-7.30998E-05
383.1142,-7.312241E-05
383.2142,-7.311864E-05
383.3142,-7.307061E-05
383.4142,-7.310922E-05
383.5142,-7.310075E-05
383.6142,-7.30659E-05
383.7142,-7.308756E-05
383.8142,-7.30885E-05
383.9142,-7.301128E-05
384.0142,-7.305836E-05
384.1142,-7.307155E-05
384.2142,-7.301223E-05
384.3142,-7.304141E-05
384.4142,-7.300845E-05
384.5143,-7.296137E-05
384.6143,-7.298397E-05
384.7143,-7.29981E-05
384.8143,-7.294348E-05
384.9143,-7.29642E-05
385.0143,-7.294536E-05
385.1143,-7.28898E-05
385.2143,-7.293123E-05
385.3143,-7.293217E-05
385.4143,-7.289262E-05
385.5143,-7.286719E-05
385.6143,-7.294159E-05
385.7143,-7.284177E-05
385.8143,-7.290392E-05
385.9143,-7.287566E-05
386.0143,-7.285683E-05
386.1143,-7.2822E-05
386.2144,-7.281822E-05
386.3144,-7.281164E-05
386.4144,-7.280504E-05
386.5144,-7.278338E-05
386.6144,-7.279469E-05
386.7144,-7.281069E-05
386.8144,-7.278432E-05
386.9144,-7.271746E-05
387.0144,-7.278997E-05
387.1144,-7.277208E-05
387.2144,-7.272029E-05
387.3144,-7.27523E-05
387.4144,-7.273723E-05
387.5144,-7.270145E-05
387.6144,-7.274759E-05
387.7144,-7.273818E-05
387.8145,-7.269674E-05
387.9145,-7.27297E-05
388.0145,-7.273252E-05
388.1145,-7.273535E-05
388.2145,-7.274195E-05
388.3145,-7.271558E-05
388.4145,-7.273159E-05
388.5145,-7.271276E-05
388.6145,-7.269957E-05
388.7145,-7.263177E-05
388.8145,-7.262706E-05
388.9145,-7.263271E-05
389.0145,-7.255831E-05
389.1145,-7.25875E-05
389.2145,-7.257715E-05
389.3145,-7.254041E-05
389.4146,-7.256019E-05
389.5146,-7.253288E-05
389.6146,-7.250557E-05
389.7146,-7.251121E-05
389.8146,-7.251311E-05
389.9146,-7.249521E-05
390.0146,-7.251781E-05
390.1146,-7.248768E-05
390.2146,-7.245754E-05
390.3146,-7.249333E-05
390.4146,-7.250086E-05
390.5146,-7.243683E-05
390.6146,-7.245001E-05
390.7146,-7.24905E-05
390.8146,-7.245377E-05
390.9146,-7.24792E-05
391.0146,-7.243494E-05
391.1147,-7.244718E-05
391.2147,-7.244154E-05
391.3147,-7.240104E-05
391.4147,-7.239351E-05
391.5147,-7.243305E-05
391.6147,-7.240763E-05
391.7147,-7.234453E-05
391.8147,-7.241798E-05
391.9147,-7.240481E-05
392.0147,-7.234265E-05
392.1147,-7.234171E-05
392.2147,-7.234736E-05
392.3147,-7.233135E-05
392.4147,-7.235207E-05
392.5147,-7.235396E-05
392.6147,-7.226637E-05
392.7148,-7.229086E-05
392.8148,-7.229462E-05
392.9148,-7.227484E-05
393.0148,-7.220705E-05
393.1148,-7.23323E-05
393.2148,-7.235019E-05
393.3148,-7.226637E-05
393.4148,-7.221269E-05
393.5148,-7.223906E-05
393.6148,-7.219668E-05
393.7148,-7.221175E-05
393.8148,-7.220233E-05
393.9148,-7.21543E-05
394.0148,-7.215807E-05
394.1148,-7.217125E-05
394.2148,-7.214017E-05
394.3148,-7.211475E-05
394.4149,-7.214488E-05
394.5149,-7.209498E-05
394.6149,-7.209968E-05
394.7149,-7.209026E-05
394.8149,-7.205165E-05
394.9149,-7.206484E-05
395.0149,-7.207426E-05
395.1149,-7.205165E-05
395.2149,-7.207238E-05
395.3149,-7.204883E-05
395.4149,-7.206767E-05
395.5149,-7.203282E-05
395.6149,-7.201211E-05
395.7149,-7.200456E-05
395.8149,-7.199703E-05
395.9149,-7.201116E-05
396.015,-7.199703E-05
396.115,-7.201681E-05
396.215,-7.197915E-05
396.315,-7.197726E-05
396.415,-7.202623E-05
396.515,-7.196878E-05
396.615,-7.192169E-05
396.715,-7.196784E-05
396.815,-7.192924E-05
396.915,-7.19151E-05
397.015,-7.189722E-05
397.115,-7.18812E-05
397.215,-7.187367E-05
397.315,-7.186896E-05
397.415,-7.189722E-05
397.515,-7.184166E-05
397.6151,-7.185295E-05
397.7151,-7.185013E-05
397.8151,-7.181811E-05
397.9151,-7.183506E-05
398.0151,-7.184166E-05
398.1151,-7.18134E-05
398.2151,-7.179927E-05
398.3151,-7.178986E-05
398.4151,-7.17795E-05
398.5151,-7.183977E-05
398.6151,-7.181999E-05
398.7151,-7.175878E-05
398.8151,-7.177008E-05
398.9151,-7.177479E-05
399.0151,-7.175218E-05
399.1151,-7.174559E-05
399.2151,-7.176914E-05
399.3152,-7.168815E-05
399.4152,-7.169474E-05
399.5152,-7.169474E-05
399.6152,-7.167309E-05
399.7152,-7.173524E-05
399.8152,-7.173335E-05
399.9152,-7.167403E-05
400.0152,-7.168626E-05
400.1152,-7.167214E-05
400.2152,-7.163353E-05
400.3152,-7.16759E-05
400.4152,-7.16307E-05
400.5152,-7.158173E-05
400.6152,-7.164954E-05
400.7152,-7.165236E-05
400.8152,-7.15403E-05
400.9153,-7.162599E-05
401.0153,-7.165801E-05
401.1153,-7.161658E-05
401.2153,-7.159021E-05
401.3153,-7.158361E-05
401.4153,-7.151676E-05
401.5153,-7.154501E-05
401.6153,-7.154501E-05
401.7153,-7.151299E-05
401.8153,-7.154689E-05
401.9153,-7.151958E-05
402.0153,-7.149509E-05
402.1153,-7.153371E-05
402.2153,-7.150922E-05
402.3153,-7.145742E-05
402.4153,-7.147344E-05
402.5154,-7.147909E-05
402.6154,-7.141504E-05
402.7154,-7.144612E-05
402.8154,-7.144707E-05
402.9154,-7.140092E-05
403.0154,-7.142635E-05
403.1154,-7.140375E-05
403.2154,-7.139904E-05
403.3154,-7.140658E-05
403.4154,-7.141222E-05
403.5154,-7.136702E-05
403.6154,-7.136702E-05
403.7154,-7.137267E-05
403.8154,-7.134348E-05
403.9154,-7.136137E-05
404.0154,-7.137455E-05
404.1154,-7.130016E-05
404.2155,-7.128791E-05
404.3155,-7.130109E-05
404.4155,-7.129638E-05
404.5155,-7.130016E-05
404.6155,-7.129733E-05
404.7155,-7.130863E-05
404.8155,-7.128603E-05
404.9155,-7.130392E-05
405.0155,-7.129827E-05
405.1155,-7.127662E-05
405.2155,-7.130203E-05
405.3155,-7.1238E-05
405.4155,-7.127096E-05
405.5155,-7.125025E-05
405.6155,-7.120222E-05
405.7155,-7.119375E-05
405.8156,-7.120315E-05
405.9156,-7.122765E-05
406.0156,-7.119091E-05
406.1156,-7.121069E-05
406.2156,-7.119845E-05
406.3156,-7.111558E-05
406.4156,-7.121257E-05
406.5156,-7.118996E-05
406.6156,-7.112217E-05
406.7156,-7.119562E-05
406.8156,-7.119375E-05
406.9156,-7.109204E-05
407.0156,-7.114571E-05
407.1156,-7.115136E-05
407.2156,-7.106378E-05
407.3156,-7.110615E-05
407.4156,-7.114476E-05
407.5157,-7.107508E-05
407.6157,-7.109957E-05
407.7157,-7.108638E-05
407.8157,-7.10214E-05
407.9157,-7.102612E-05
408.0157,-7.104023E-05
408.1157,-7.098373E-05
408.2157,-7.10101E-05
408.3157,-7.099974E-05
408.4157,-7.096866E-05
408.5157,-7.097243E-05
408.6157,-7.099503E-05
408.7157,-7.096396E-05
408.8157,-7.100257E-05
408.9157,-7.101575E-05
409.0157,-7.093005E-05
409.1158,-7.09583E-05
409.2158,-7.096301E-05
409.3158,-7.094512E-05
409.4158,-7.095548E-05
409.5158,-7.095171E-05
409.6158,-7.089427E-05
409.7158,-7.092911E-05
409.8158,-7.089144E-05
409.9158,-7.086885E-05
410.0158,-7.091687E-05
410.1158,-7.088768E-05
410.2158,-7.083494E-05
410.3158,-7.088014E-05
410.4158,-7.095925E-05
410.5158,-7.083589E-05
410.6158,-7.087355E-05
410.7159,-7.090368E-05
410.8159,-7.083777E-05
410.9159,-7.084529E-05
411.0159,-7.081516E-05
411.1159,-7.07775E-05
411.2159,-7.075866E-05
411.3159,-7.077467E-05
411.4159,-7.076525E-05
411.5159,-7.076807E-05
411.6159,-7.077467E-05
411.7159,-7.072288E-05
411.8159,-7.076243E-05
411.9159,-7.080104E-05
412.0159,-7.076902E-05
412.1159,-7.076148E-05
412.2159,-7.07144E-05
412.3159,-7.070215E-05
412.416,-7.076054E-05
412.516,-7.075489E-05
412.616,-7.069651E-05
412.716,-7.072947E-05
412.816,-7.072005E-05
412.916,-7.070122E-05
413.016,-7.068803E-05
413.116,-7.071062E-05
413.216,-7.072005E-05
413.316,-7.074547E-05
413.416,-7.071533E-05
413.516,-7.063906E-05
413.616,-7.061929E-05
413.716,-7.070498E-05
413.816,-7.064847E-05
413.916,-7.062964E-05
414.0161,-7.061458E-05
414.1161,-7.058726E-05
414.2161,-7.058726E-05
414.3161,-7.060893E-05
414.4161,-7.056184E-05
414.5161,-7.052982E-05
414.6161,-7.057879E-05
414.7161,-7.057597E-05
414.8161,-7.053735E-05
414.9161,-7.058726E-05
415.0161,-7.052699E-05
415.1161,-7.052135E-05
415.2161,-7.054018E-05
415.3161,-7.049403E-05
415.4161,-7.052417E-05
415.5161,-7.051004E-05
415.6161,-7.048085E-05
415.7162,-7.048838E-05
415.8162,-7.051192E-05
415.9162,-7.04526E-05
416.0162,-7.043659E-05
416.1162,-7.050157E-05
416.2162,-7.045636E-05
416.3162,-7.045636E-05
416.4162,-7.045542E-05
416.5162,-7.04008E-05
416.6162,-7.043565E-05
416.7162,-7.044036E-05
416.8162,-7.041964E-05
416.9162,-7.042811E-05
417.0162,-7.043E-05
417.1162,-7.042057E-05
417.2162,-7.037821E-05
417.3163,-7.040551E-05
417.4163,-7.038856E-05
417.5163,-7.038761E-05
417.6163,-7.036407E-05
417.7163,-7.039421E-05
417.8163,-7.040362E-05
417.9163,-7.035655E-05
418.0163,-7.037631E-05
418.1163,-7.031416E-05
418.2163,-7.035466E-05
418.3163,-7.035184E-05
418.4163,-7.030945E-05
418.5163,-7.030286E-05
418.6163,-7.031981E-05
418.7163,-7.026237E-05
418.8163,-7.025954E-05
418.9164,-7.02699E-05
419.0164,-7.024918E-05
419.1164,-7.026896E-05
419.2164,-7.025201E-05
419.3164,-7.021904E-05
419.4164,-7.027179E-05
419.5164,-7.022658E-05
419.6164,-7.020492E-05
419.7164,-7.026331E-05
419.8164,-7.026048E-05
419.9164,-7.020962E-05
420.0164,-7.024354E-05
420.1164,-7.022376E-05
420.2164,-7.020868E-05
420.3164,-7.02021E-05
420.4164,-7.020868E-05
420.5164,-7.018232E-05
420.6165,-7.020775E-05
420.7165,-7.01908E-05
420.8165,-7.013241E-05
420.9165,-7.014842E-05
421.0165,-7.017385E-05
421.1165,-7.014559E-05
421.2165,-7.014182E-05
421.3165,-7.013806E-05
421.4165,-7.008438E-05
421.5165,-7.009945E-05
421.6165,-7.011075E-05
421.7165,-7.008344E-05
421.8165,-7.00825E-05
421.9165,-7.007685E-05
422.0165,-7.003635E-05
422.1165,-7.00646E-05
422.2166,-7.007402E-05
422.3166,-7.003447E-05
422.4166,-7.001187E-05
422.5166,-7.002599E-05
422.6166,-7.000998E-05
422.7166,-7.001187E-05
422.8166,-6.999774E-05
422.9166,-6.995347E-05
423.0166,-6.999398E-05
423.1166,-6.998456E-05
423.2166,-6.99855E-05
423.3166,-6.998456E-05
423.4166,-6.9945E-05
423.5166,-6.995066E-05
423.6166,-6.994594E-05
423.7166,-6.996949E-05
423.8167,-6.991957E-05
423.9167,-6.991205E-05
424.0167,-6.999115E-05
424.1167,-6.993464E-05
424.2167,-6.992805E-05
424.3167,-6.996478E-05
424.4167,-6.988567E-05
424.5167,-6.994312E-05
424.6167,-6.995536E-05
424.7167,-6.988756E-05
424.8167,-6.989038E-05
424.9167,-6.989415E-05
425.0167,-6.985931E-05
425.1167,-6.987154E-05
425.2167,-6.991016E-05
425.3167,-6.985084E-05
425.4167,-6.985177E-05
425.5168,-6.985365E-05
425.6168,-6.981599E-05
425.7168,-6.983294E-05
425.8168,-6.982352E-05
425.9168,-6.980469E-05
426.0168,-6.978962E-05
426.1168,-6.976608E-05
426.2168,-6.976231E-05
426.3168,-6.97736E-05
426.4168,-6.978396E-05
426.5168,-6.975948E-05
426.6168,-6.973877E-05
426.7168,-6.973688E-05
426.8168,-6.972369E-05
426.9168,-6.974913E-05
427.0168,-6.97397E-05
427.1169,-6.9735E-05
427.2169,-6.972087E-05
427.3169,-6.971051E-05
427.4169,-6.976796E-05
427.5169,-6.97284E-05
427.6169,-6.965966E-05
427.7169,-6.971145E-05
427.8169,-6.970015E-05
427.9169,-6.971051E-05
428.0169,-6.966342E-05
428.1169,-6.974724E-05
428.2169,-6.973406E-05
428.3169,-6.968132E-05
428.4169,-6.977832E-05
428.5169,-6.97463E-05
428.6169,-6.967567E-05
428.7169,-6.971428E-05
428.817,-6.974065E-05
428.917,-6.968979E-05
429.017,-6.970298E-05
429.117,-6.970581E-05
429.217,-6.962576E-05
429.317,-6.964836E-05
429.417,-6.967284E-05
429.517,-6.961446E-05
429.617,-6.960504E-05
429.717,-6.960504E-05
429.817,-6.955607E-05
429.917,-6.961634E-05
430.017,-6.960221E-05
430.117,-6.956266E-05
430.217,-6.959091E-05
430.317,-6.955984E-05
430.4171,-6.95523E-05
430.5171,-6.953064E-05
430.6171,-6.953158E-05
430.7171,-6.94892E-05
430.8171,-6.951369E-05
430.9171,-6.956266E-05
431.0171,-6.948355E-05
431.1171,-6.955513E-05
431.2171,-6.952594E-05
431.3171,-6.946189E-05
431.4171,-6.951651E-05
431.5171,-6.952688E-05
431.6171,-6.944777E-05
431.7171,-6.948168E-05
431.8171,-6.946566E-05
431.9171,-6.946189E-05
432.0172,-6.954289E-05
432.1172,-6.951181E-05
432.2172,-6.941669E-05
432.3172,-6.94666E-05
432.4172,-6.949485E-05
432.5172,-6.942988E-05
432.6172,-6.943929E-05
432.7172,-6.943929E-05
432.8172,-6.937243E-05
432.9172,-6.940727E-05
433.0172,-6.942423E-05
433.1172,-6.934324E-05
433.2172,-6.941293E-05
433.3172,-6.9428E-05
433.4172,-6.93649E-05
433.5172,-6.939503E-05
433.6172,-6.938467E-05
433.7173,-6.93649E-05
433.8173,-6.93988E-05
433.9173,-6.940916E-05
434.0173,-6.936583E-05
434.1173,-6.938937E-05
434.2173,-6.937808E-05
434.3173,-6.938091E-05
434.4173,-6.944306E-05
434.5173,-6.940068E-05
434.6173,-6.932158E-05
434.7173,-6.937431E-05
434.8173,-6.936772E-05
434.9173,-6.933194E-05
435.0173,-6.937431E-05
435.1173,-6.936867E-05
435.2173,-6.931027E-05
435.3174,-6.932064E-05
435.4174,-6.935171E-05
435.5174,-6.929332E-05
435.6174,-6.931405E-05
435.7174,-6.926131E-05
435.8174,-6.929897E-05
435.9174,-6.930651E-05
436.0174,-6.931781E-05
436.1174,-6.924718E-05
436.2174,-6.931875E-05
436.3174,-6.929239E-05
436.4174,-6.926036E-05
436.5174,-6.929332E-05
436.6174,-6.928862E-05
436.7174,-6.923683E-05
436.8174,-6.924813E-05
436.9174,-6.925943E-05
437.0175,-6.919538E-05
437.1175,-6.922457E-05
437.2175,-6.926884E-05
437.3175,-6.922457E-05
437.4175,-6.92114E-05
437.5175,-6.922175E-05
437.6175,-6.926508E-05
437.7175,-6.929615E-05
437.8175,-6.931311E-05
437.9175,-6.922646E-05
438.0175,-6.921328E-05
438.1175,-6.923964E-05
438.2175,-6.918784E-05
438.3175,-6.920669E-05
438.4175,-6.920104E-05
438.5175,-6.913323E-05
438.6176,-6.914736E-05
438.7176,-6.918314E-05
438.8176,-6.91078E-05
438.9176,-6.9137E-05
439.0176,-6.916242E-05
439.1176,-6.908709E-05
439.2176,-6.914642E-05
439.3176,-6.912664E-05
439.4176,-6.904941E-05
439.5176,-6.912193E-05
439.6176,-6.911722E-05
439.7176,-6.905036E-05
439.8176,-6.907484E-05
439.9176,-6.911439E-05
440.0176,-6.906825E-05
440.1176,-6.907296E-05
440.2177,-6.912852E-05
440.3177,-6.905977E-05
440.4177,-6.908426E-05
440.5177,-6.908237E-05
440.6177,-6.904377E-05
440.7177,-6.904659E-05
440.8177,-6.905695E-05
440.9177,-6.903059E-05
441.0177,-6.905036E-05
441.1177,-6.897313E-05
441.2177,-6.896372E-05
441.3177,-6.896465E-05
441.4177,-6.903152E-05
441.5177,-6.899009E-05
441.6177,-6.901645E-05
441.7177,-6.907955E-05
441.8177,-6.900986E-05
441.9178,-6.904189E-05
442.0178,-6.905695E-05
442.1178,-6.899574E-05
442.2178,-6.901834E-05
442.3178,-6.906449E-05
442.4178,-6.895901E-05
442.5178,-6.898538E-05
442.6178,-6.897502E-05
442.7178,-6.899198E-05
442.8178,-6.905318E-05
442.9178,-6.903811E-05
443.0178,-6.897973E-05
443.1178,-6.899291E-05
443.2178,-6.902211E-05
443.3178,-6.895807E-05
443.4178,-6.898915E-05
443.5179,-6.894582E-05
443.6179,-6.889592E-05
443.7179,-6.895148E-05
443.8179,-6.896278E-05
443.9179,-6.887519E-05
444.0179,-6.890063E-05
444.1179,-6.89835E-05
444.2179,-6.892982E-05
444.3179,-6.894582E-05
444.4179,-6.895995E-05
444.5179,-6.891853E-05
444.6179,-6.893264E-05
444.7179,-6.893547E-05
444.8179,-6.89251E-05
444.9179,-6.894394E-05
445.0179,-6.894488E-05
445.118,-6.894112E-05
445.218,-6.893264E-05
445.318,-6.89091E-05
445.418,-6.891193E-05
445.518,-6.891193E-05
445.618,-6.882717E-05
445.718,-6.884506E-05
445.818,-6.890344E-05
445.918,-6.884224E-05
446.018,-6.884318E-05
446.118,-6.891569E-05
446.218,-6.884318E-05
446.318,-6.880928E-05
446.418,-6.888084E-05
446.518,-6.878855E-05
446.618,-6.877443E-05
446.718,-6.883658E-05
446.8181,-6.883187E-05
446.9181,-6.877631E-05
447.0181,-6.884318E-05
447.1181,-6.88074E-05
447.2181,-6.8733E-05
447.3181,-6.879515E-05
447.4181,-6.880456E-05
447.5181,-6.874146E-05
447.6181,-6.878573E-05
447.7181,-6.8749E-05
447.8181,-6.86991E-05
447.9181,-6.873017E-05
448.0181,-6.876972E-05
448.1181,-6.870569E-05
448.2181,-6.871134E-05
448.3181,-6.871321E-05
448.4182,-6.871039E-05
448.5182,-6.871039E-05
448.6182,-6.869533E-05
448.7182,-6.867178E-05
448.8182,-6.870004E-05
448.9182,-6.872264E-05
449.0182,-6.868403E-05
449.1182,-6.867178E-05
449.2182,-6.868873E-05
449.3182,-6.867084E-05
449.4182,-6.865765E-05
449.5182,-6.867838E-05
449.6182,-6.863977E-05
449.7182,-6.865388E-05
449.8182,-6.868684E-05
449.9182,-6.866142E-05
450.0182,-6.864542E-05
450.1183,-6.865859E-05
450.2183,-6.858609E-05
450.3183,-6.865295E-05
450.4183,-6.863317E-05
450.5183,-6.857196E-05
450.6183,-6.858421E-05
450.7183,-6.859079E-05
450.8183,-6.855972E-05
450.9183,-6.859268E-05
451.0183,-6.857383E-05
451.1183,-6.85164E-05
451.2183,-6.85616E-05
451.3183,-6.854465E-05
451.4183,-6.852204E-05
451.5183,-6.853523E-05
451.6183,-6.851451E-05
451.7184,-6.850792E-05
451.8184,-6.851734E-05
451.9184,-6.85051E-05
452.0184,-6.848249E-05
452.1184,-6.846836E-05
452.2184,-6.852204E-05
452.3184,-6.847496E-05
452.4184,-6.846178E-05
452.5184,-6.852299E-05
452.6184,-6.843635E-05
452.7184,-6.844483E-05
452.8184,-6.846648E-05
452.9184,-6.841563E-05
453.0184,-6.845425E-05
453.1184,-6.846272E-05
453.2184,-6.842129E-05
453.3185,-6.84081E-05
453.4185,-6.843164E-05
453.5185,-6.842223E-05
453.6185,-6.84081E-05
453.7185,-6.83968E-05
453.8185,-6.835442E-05
453.9185,-6.83855E-05
454.0185,-6.840056E-05
454.1185,-6.837137E-05
454.2185,-6.838456E-05
454.3185,-6.833182E-05
454.4185,-6.835159E-05
454.5185,-6.836384E-05
454.6185,-6.834501E-05
454.7185,-6.833088E-05
454.8185,-6.829415E-05
454.9185,-6.830639E-05
455.0186,-6.832051E-05
455.1186,-6.831298E-05
455.2186,-6.828379E-05
455.3186,-6.827815E-05
455.4186,-6.827626E-05
455.5186,-6.827815E-05
455.6186,-6.830828E-05
455.7186,-6.828567E-05
455.8186,-6.824424E-05
455.9186,-6.826307E-05
456.0186,-6.822635E-05
456.1186,-6.823576E-05
456.2186,-6.824518E-05
456.3186,-6.823105E-05
456.4186,-6.82141E-05
456.5186,-6.821881E-05
456.6187,-6.819527E-05
456.7187,-6.818114E-05
456.8187,-6.820469E-05
456.9187,-6.821881E-05
457.0187,-6.818396E-05
457.1187,-6.819433E-05
457.2187,-6.819339E-05
457.3187,-6.816231E-05
457.4187,-6.815854E-05
457.5187,-6.814065E-05
457.6187,-6.815006E-05
457.7187,-6.815854E-05
457.8187,-6.812182E-05
457.9187,-6.810769E-05
458.0187,-6.812463E-05
458.1187,-6.811522E-05
458.2188,-6.808791E-05
458.3188,-6.817549E-05
458.4188,-6.812182E-05
458.5188,-6.810015E-05
458.6188,-6.814065E-05
458.7188,-6.806531E-05
458.8188,-6.807002E-05
458.9188,-6.812087E-05
459.0188,-6.808979E-05
459.1188,-6.809544E-05
459.2188,-6.809073E-05
459.3188,-6.815195E-05
459.4188,-6.810487E-05
459.5188,-6.805872E-05
459.6188,-6.807189E-05
459.7188,-6.802011E-05
459.8188,-6.802858E-05
459.9189,-6.805213E-05
460.0189,-6.800786E-05
460.1189,-6.796455E-05
460.2189,-6.811804E-05
460.3189,-6.814818E-05
460.4189,-6.801068E-05
460.5189,-6.799468E-05
460.6189,-6.804082E-05
460.7189,-6.79702E-05
460.8189,-6.800786E-05
460.9189,-6.802387E-05
461.0189,-6.796077E-05
461.1189,-6.795701E-05
461.2189,-6.795889E-05
461.3189,-6.792781E-05
461.4189,-6.793629E-05
461.519,-6.800033E-05
461.619,-6.790804E-05
461.719,-6.794665E-05
461.819,-6.796455E-05
461.919,-6.791746E-05
462.019,-6.797772E-05
462.119,-6.794854E-05
462.219,-6.790521E-05
462.319,-6.792122E-05
462.419,-6.792687E-05
462.519,-6.786E-05
462.619,-6.78779E-05
462.719,-6.789768E-05
462.819,-6.784683E-05
462.919,-6.784306E-05
463.019,-6.786095E-05
463.119,-6.781292E-05
463.2191,-6.784494E-05
463.3191,-6.785059E-05
463.4191,-6.780445E-05
463.5191,-6.781574E-05
463.6191,-6.782894E-05
463.7191,-6.780821E-05
463.8191,-6.783741E-05
463.9191,-6.784024E-05
464.0191,-6.779974E-05
464.1191,-6.781198E-05
464.2191,-6.782423E-05
464.3191,-6.778185E-05
464.4191,-6.778655E-05
464.5191,-6.782894E-05
464.6191,-6.776677E-05
464.7191,-6.77583E-05
464.8192,-6.778749E-05
464.9192,-6.777337E-05
465.0192,-6.777526E-05
465.1192,-6.775359E-05
465.2192,-6.773099E-05
465.3192,-6.775453E-05
465.4192,-6.773852E-05
465.5192,-6.771686E-05
465.6192,-6.773664E-05
465.7192,-6.771593E-05
465.8192,-6.774042E-05
465.9192,-6.782139E-05
466.0192,-6.784117E-05
466.1192,-6.773005E-05
466.2192,-6.772911E-05
466.3192,-6.775548E-05
466.4193,-6.772346E-05
466.5193,-6.770557E-05
466.6193,-6.77065E-05
466.7193,-6.76566E-05
466.8193,-6.766036E-05
466.9193,-6.77131E-05
467.0193,-6.764624E-05
467.1193,-6.763682E-05
467.2193,-6.766036E-05
467.3193,-6.759349E-05
467.4193,-6.761798E-05
467.5193,-6.763305E-05
467.6193,-6.760668E-05
467.7193,-6.759915E-05
467.8193,-6.757279E-05
467.9193,-6.759255E-05
468.0193,-6.76566E-05
468.1194,-6.771216E-05
468.2194,-6.760575E-05
468.3194,-6.755959E-05
468.4194,-6.760292E-05
468.5194,-6.756243E-05
468.6194,-6.756243E-05
468.7194,-6.757372E-05
468.8194,-6.752287E-05
468.9194,-6.755018E-05
469.0194,-6.75417E-05
469.1194,-6.751817E-05
469.2194,-6.752476E-05
469.3194,-6.752004E-05
469.4194,-6.748991E-05
469.5194,-6.75078E-05
469.6194,-6.750874E-05
469.7195,-6.748803E-05
469.8195,-6.752004E-05
469.9195,-6.749367E-05
470.0195,-6.748615E-05
470.1195,-6.747201E-05
470.2195,-6.748143E-05
470.3195,-6.748991E-05
470.4195,-6.747955E-05
470.5195,-6.746825E-05
470.6195,-6.744E-05
470.7195,-6.744188E-05
470.8195,-6.746261E-05
470.9195,-6.741929E-05
471.0195,-6.743905E-05
471.1195,-6.743435E-05
471.2195,-6.743905E-05
471.3195,-6.740139E-05
471.4196,-6.739009E-05
471.5196,-6.740139E-05
471.6196,-6.738444E-05
471.7196,-6.741834E-05
471.8196,-6.737219E-05
471.9196,-6.739009E-05
472.0196,-6.743341E-05
472.1196,-6.736654E-05
472.2196,-6.740139E-05
472.3196,-6.738726E-05
472.4196,-6.735148E-05
472.5196,-6.735619E-05
472.6196,-6.738161E-05
472.7196,-6.731757E-05
472.8196,-6.730439E-05
472.9196,-6.731098E-05
473.0197,-6.730157E-05
473.1197,-6.732982E-05
473.2197,-6.732134E-05
473.3197,-6.728649E-05
473.4197,-6.731004E-05
473.5197,-6.73204E-05
473.6197,-6.729968E-05
473.7197,-6.729685E-05
473.8197,-6.726108E-05
473.9197,-6.726766E-05
474.0197,-6.7343E-05
474.1197,-6.736748E-05
474.2197,-6.728555E-05
474.3197,-6.732605E-05
474.4197,-6.732982E-05
474.5197,-6.725353E-05
474.6198,-6.726578E-05
474.7198,-6.730721E-05
474.8198,-6.72234E-05
474.9198,-6.723752E-05
475.0198,-6.722246E-05
475.1198,-6.715183E-05
475.2198,-6.723659E-05
475.3198,-6.731663E-05
475.4198,-6.723659E-05
475.5198,-6.720833E-05
475.6198,-6.726766E-05
475.7198,-6.719515E-05
475.8198,-6.721963E-05
475.9198,-6.722433E-05
476.0198,-6.720927E-05
476.1198,-6.72008E-05
476.2198,-6.722528E-05
476.3199,-6.722528E-05
476.4199,-6.715936E-05
476.5199,-6.717254E-05
476.6199,-6.713676E-05
476.7199,-6.71377E-05
476.8199,-6.718761E-05
476.9199,-6.710945E-05
477.0199,-6.713581E-05
477.1199,-6.713864E-05
477.2199,-6.709061E-05
477.3199,-6.714335E-05
477.4199,-6.710945E-05
477.5199,-6.714052E-05
477.6199,-6.72234E-05
477.7199,-6.72008E-05
477.8199,-6.714241E-05
477.92,-6.714241E-05
478.02,-6.717726E-05
478.12,-6.712641E-05
478.22,-6.714429E-05
478.32,-6.710945E-05
478.42,-6.705577E-05
478.52,-6.708025E-05
478.62,-6.710098E-05
478.72,-6.705859E-05
478.82,-6.706708E-05
478.92,-6.708025E-05
479.02,-6.703128E-05
479.12,-6.705012E-05
479.22,-6.707649E-05
479.32,-6.701716E-05
479.42,-6.70699E-05
479.5201,-6.707743E-05
479.6201,-6.704165E-05
479.7201,-6.702093E-05
479.8201,-6.704918E-05
479.9201,-6.701433E-05
480.0201,-6.703411E-05
480.1201,-6.704542E-05
480.2201,-6.701904E-05
480.3201,-6.701904E-05
480.4201,-6.702281E-05
480.5201,-6.698044E-05
480.6201,-6.703788E-05
480.7201,-6.701716E-05
480.8201,-6.697572E-05
480.9201,-6.701716E-05
481.0201,-6.701999E-05
481.1201,-6.700492E-05
481.2202,-6.698797E-05
481.3202,-6.701904E-05
481.4202,-6.700114E-05
481.5202,-6.703883E-05
481.6202,-6.702752E-05
481.7202,-6.697667E-05
481.8202,-6.70068E-05
481.9202,-6.697761E-05
482.0202,-6.697667E-05
482.1202,-6.698797E-05
482.2202,-6.697948E-05
482.3202,-6.694088E-05
482.4202,-6.691451E-05
482.5202,-6.699174E-05
482.6202,-6.694182E-05
482.7202,-6.692205E-05
482.8203,-6.695312E-05
482.9203,-6.689662E-05
483.0203,-6.692676E-05
483.1203,-6.692958E-05
483.2203,-6.692205E-05
483.3203,-6.689945E-05
483.4203,-6.689945E-05
483.5203,-6.692392E-05
483.6203,-6.690698E-05
483.7203,-6.691075E-05
483.8203,-6.688532E-05
483.9203,-6.689567E-05
484.0203,-6.693241E-05
484.1203,-6.687402E-05
484.2203,-6.692582E-05
484.3203,-6.692392E-05
484.4203,-6.689756E-05
484.5204,-6.695595E-05
484.6204,-6.694653E-05
484.7204,-6.686083E-05
484.8204,-6.69098E-05
484.9204,-6.69098E-05
485.0204,-6.685706E-05
485.1204,-6.685048E-05
485.2204,-6.687966E-05
485.3204,-6.68354E-05
485.4204,-6.686931E-05
485.5204,-6.683634E-05
485.6204,-6.686271E-05
485.7204,-6.685141E-05
485.8204,-6.685519E-05
485.9204,-6.679774E-05
486.0204,-6.684671E-05
486.1205,-6.686837E-05
486.2205,-6.680338E-05
486.3205,-6.679397E-05
486.4205,-6.67968E-05
486.5205,-6.680433E-05
486.6205,-6.680433E-05
486.7205,-6.679021E-05
486.8205,-6.675347E-05
486.9205,-6.682034E-05
487.0205,-6.681187E-05
487.1205,-6.676195E-05
487.2205,-6.680244E-05
487.3205,-6.677231E-05
487.4205,-6.671957E-05
487.5205,-6.677984E-05
487.6205,-6.677043E-05
487.7206,-6.674218E-05
487.8206,-6.677231E-05
487.9206,-6.676855E-05
488.0206,-6.671392E-05
488.1206,-6.676101E-05
488.2206,-6.67855E-05
488.3206,-6.671392E-05
488.4206,-6.675347E-05
488.5206,-6.674406E-05
488.6206,-6.669415E-05
488.7206,-6.675159E-05
488.8206,-6.67676E-05
488.9206,-6.668756E-05
489.0206,-6.671674E-05
489.1206,-6.672239E-05
489.2206,-6.670827E-05
489.3206,-6.67563E-05
489.4207,-6.671957E-05
489.5207,-6.668379E-05
489.6207,-6.672711E-05
489.7207,-6.675818E-05
489.8207,-6.669226E-05
489.9207,-6.669132E-05
490.0207,-6.668661E-05
490.1207,-6.667908E-05
490.2207,-6.66819E-05
490.3207,-6.669415E-05
490.4207,-6.666024E-05
490.5207,-6.666777E-05
490.6207,-6.671769E-05
490.7207,-6.666495E-05
490.8207,-6.668002E-05
490.9207,-6.667343E-05
491.0208,-6.663576E-05
491.1208,-6.669038E-05
491.2208,-6.670168E-05
491.3208,-6.665177E-05
491.4208,-6.666401E-05
491.5208,-6.666024E-05
491.6208,-6.663011E-05
491.7208,-6.662446E-05
491.8208,-6.664329E-05
491.9208,-6.661692E-05
492.0208,-6.661221E-05
492.1208,-6.662258E-05
492.2208,-6.658962E-05
492.3208,-6.658774E-05
492.4208,-6.660845E-05
492.5208,-6.658774E-05
492.6208,-6.658208E-05
492.7209,-6.658962E-05
492.8209,-6.658208E-05
492.9209,-6.660091E-05
493.0209,-6.658585E-05
493.1209,-6.657643E-05
493.2209,-6.656231E-05
493.3209,-6.6551E-05
493.4209,-6.658678E-05
493.5209,-6.659715E-05
493.6209,-6.655571E-05
493.7209,-6.655853E-05
493.8209,-6.659997E-05
493.9209,-6.656419E-05
494.0209,-6.656325E-05
494.1209,-6.655665E-05
494.2209,-6.655006E-05
494.321,-6.654818E-05
494.421,-6.657455E-05
494.521,-6.655477E-05
494.621,-6.656419E-05
494.721,-6.653876E-05
494.821,-6.652746E-05
494.921,-6.656231E-05
495.021,-6.654818E-05
495.121,-6.650014E-05
495.221,-6.652934E-05
495.321,-6.653218E-05
495.421,-6.653406E-05
495.521,-6.653406E-05
495.621,-6.649356E-05
495.721,-6.646059E-05
495.821,-6.651616E-05
495.9211,-6.652463E-05
496.0211,-6.647944E-05
496.1211,-6.647001E-05
496.2211,-6.646059E-05
496.3211,-6.644742E-05
496.4211,-6.648508E-05
496.5211,-6.649073E-05
496.6211,-6.642105E-05
496.7211,-6.645401E-05
496.8211,-6.646531E-05
496.9211,-6.645401E-05
497.0211,-6.645024E-05
497.1211,-6.644836E-05
497.2211,-6.640032E-05
497.3211,-6.644647E-05
497.4211,-6.646342E-05
497.5211,-6.64041E-05
497.6212,-6.643799E-05
497.7212,-6.645118E-05
497.8212,-6.643705E-05
497.9212,-6.648414E-05
498.0212,-6.644552E-05
498.1212,-6.64493E-05
498.2212,-6.645024E-05
498.3212,-6.642198E-05
498.4212,-6.642105E-05
498.5212,-6.643893E-05
498.6212,-6.642387E-05
498.7212,-6.635983E-05
498.8212,-6.640598E-05
498.9212,-6.640503E-05
499.0212,-6.637772E-05
499.1212,-6.642481E-05
499.2213,-6.637866E-05
499.3213,-6.636455E-05
499.4213,-6.640786E-05
499.5213,-6.639845E-05
499.6213,-6.637207E-05
499.7213,-6.640032E-05
499.8213,-6.638808E-05
499.9213,-6.641257E-05
500.0213,-6.640221E-05
500.1213,-6.642105E-05
500.2213,-6.637019E-05
500.3213,-6.638808E-05
500.4213,-6.640221E-05
500.5213,-6.637207E-05
500.6213,-6.636548E-05
500.7213,-6.64267E-05
500.8214,-6.645494E-05
500.9214,-6.639656E-05
501.0214,-6.639092E-05
501.1214,-6.63523E-05
501.2214,-6.63523E-05
501.3214,-6.637302E-05
501.4214,-6.634382E-05
501.5214,-6.633911E-05
501.6214,-6.635795E-05
501.7214,-6.63749E-05
501.8214,-6.64088E-05
501.9214,-6.635983E-05
502.0214,-6.640032E-05
502.1214,-6.637866E-05
502.2214,-6.635606E-05
502.3214,-6.633911E-05
502.4214,-6.634665E-05
502.5215,-6.629485E-05
502.6215,-6.631369E-05
502.7215,-6.628731E-05
502.8215,-6.633817E-05
502.9215,-6.624118E-05
503.0215,-6.632028E-05
503.1215,-6.630992E-05
503.2215,-6.62553E-05
503.3215,-6.627979E-05
503.4215,-6.628355E-05
503.5215,-6.629297E-05
503.6215,-6.629768E-05
503.7215,-6.628355E-05
503.8215,-6.625718E-05
503.9215,-6.627225E-05
504.0215,-6.626943E-05
504.1216,-6.627979E-05
504.2216,-6.622988E-05
504.3216,-6.63005E-05
504.4216,-6.635889E-05
504.5216,-6.632122E-05
504.6216,-6.630238E-05
504.7216,-6.628826E-05
504.8216,-6.623647E-05
504.9216,-6.629485E-05
505.0216,-6.628638E-05
505.1216,-6.627695E-05
505.2216,-6.625625E-05
505.3216,-6.624777E-05
505.4216,-6.626848E-05
505.5216,-6.624399E-05
505.6216,-6.627319E-05
505.7216,-6.627037E-05
505.8217,-6.621669E-05
505.9217,-6.623647E-05
506.0217,-6.625907E-05
506.1217,-6.624212E-05
506.2217,-6.621952E-05
506.3217,-6.626095E-05
506.4217,-6.621857E-05
506.5217,-6.621386E-05
506.6217,-6.624588E-05
506.7217,-6.622233E-05
506.8217,-6.623082E-05
506.9217,-6.626095E-05
507.0217,-6.624023E-05
507.1217,-6.626754E-05
507.2217,-6.62374E-05
507.3217,-6.62374E-05
507.4218,-6.624023E-05
507.5218,-6.622139E-05
507.6218,-6.629109E-05
507.7218,-6.626001E-05
507.8218,-6.622139E-05
507.9218,-6.625342E-05
508.0218,-6.627131E-05
508.1218,-6.622517E-05
508.2218,-6.624212E-05
508.3218,-6.621762E-05
508.4218,-6.618279E-05
508.5218,-6.626943E-05
508.6218,-6.629861E-05
508.7218,-6.621198E-05
508.8218,-6.622139E-05
508.9218,-6.625907E-05
509.0219,-6.620068E-05
509.1219,-6.620727E-05
509.2219,-6.623835E-05
509.3219,-6.620256E-05
509.4219,-6.620351E-05
509.5219,-6.621762E-05
509.6219,-6.618656E-05
509.7219,-6.617431E-05
509.8219,-6.622139E-05
509.9219,-6.619503E-05
510.0219,-6.617713E-05
510.1219,-6.621857E-05
510.2219,-6.617431E-05
510.3219,-6.619126E-05
510.4219,-6.622517E-05
510.5219,-6.618656E-05
510.6219,-6.618938E-05
510.722,-6.621952E-05
510.822,-6.619974E-05
510.922,-6.616773E-05
511.022,-6.61762E-05
511.122,-6.615642E-05
511.222,-6.617431E-05
511.322,-6.62148E-05
511.422,-6.615547E-05
511.522,-6.619597E-05
511.622,-6.619786E-05
511.722,-6.619597E-05
511.822,-6.619974E-05
511.922,-6.621762E-05
512.022,-6.615077E-05
512.122,-6.615736E-05
512.222,-6.617431E-05
512.322,-6.615736E-05
512.4219,-6.620351E-05
512.5219,-6.626943E-05
512.6219,-6.617713E-05
512.7219,-6.616773E-05
512.8218,-6.620916E-05
512.9218,-6.616583E-05
513.0218,-6.616395E-05
513.1218,-6.621669E-05
513.2217,-6.616678E-05
513.3217,-6.613947E-05
513.4217,-6.616489E-05
513.5217,-6.613005E-05
513.6216,-6.614136E-05
513.7216,-6.615359E-05
513.8216,-6.611122E-05
513.9216,-6.609238E-05
514.0215,-6.613381E-05
514.1215,-6.611781E-05
514.2215,-6.615077E-05
514.3215,-6.610651E-05
514.4214,-6.611687E-05
514.5214,-6.61357E-05
514.6214,-6.614136E-05
514.7214,-6.612251E-05
514.8214,-6.611027E-05
514.9213,-6.614417E-05
515.0213,-6.617526E-05
515.1213,-6.620445E-05
515.2213,-6.621104E-05
515.3212,-6.614229E-05
515.4212,-6.61809E-05
515.5212,-6.619597E-05
515.6212,-6.614983E-05
515.7211,-6.616678E-05
515.8211,-6.616301E-05
515.9211,-6.610932E-05
516.0211,-6.613947E-05
516.121,-6.612722E-05
516.221,-6.605472E-05
516.321,-6.612817E-05
516.421,-6.61197E-05
516.5209,-6.606225E-05
516.6209,-6.609521E-05
516.7209,-6.60905E-05
516.8209,-6.608673E-05
516.9208,-6.610368E-05
517.0208,-6.616207E-05
517.1208,-6.613757E-05
517.2208,-6.61018E-05
517.3207,-6.614229E-05
517.4207,-6.608202E-05
517.5207,-6.608485E-05
517.6207,-6.612722E-05
517.7206,-6.605942E-05
517.8206,-6.608673E-05
517.9206,-6.608861E-05
518.0206,-6.605282E-05
518.1205,-6.60726E-05
518.2205,-6.605282E-05
518.3205,-6.604153E-05
518.4205,-6.60566E-05
518.5204,-6.610839E-05
518.6204,-6.604153E-05
518.7204,-6.606225E-05
518.8204,-6.612817E-05
518.9203,-6.606695E-05
519.0203,-6.604906E-05
519.1203,-6.606507E-05
519.2203,-6.609238E-05
519.3203,-6.61018E-05
519.4202,-6.604812E-05
519.5202,-6.602929E-05
519.6202,-6.608673E-05
519.7202,-6.609426E-05
519.8201,-6.608107E-05
519.9201,-6.608673E-05
520.0201,-6.610368E-05
520.1201,-6.607072E-05
520.22,-6.61244E-05
520.32,-6.609709E-05
520.42,-6.610368E-05
520.52,-6.610839E-05
520.6199,-6.61018E-05
520.7199,-6.609709E-05
520.8199,-6.608014E-05
520.9199,-6.608861E-05
521.0198,-6.605754E-05
521.1198,-6.606507E-05
521.2198,-6.605376E-05
521.3198,-6.603211E-05
521.4197,-6.603965E-05
521.5197,-6.605E-05
521.6197,-6.60387E-05
521.7197,-6.604341E-05
521.8196,-6.610085E-05
521.9196,-6.60905E-05
522.0196,-6.608297E-05
522.1196,-6.608107E-05
522.2195,-6.605565E-05
522.3195,-6.609521E-05
522.4195,-6.607731E-05
522.5195,-6.608485E-05
522.6194,-6.608297E-05
522.7194,-6.604246E-05
522.8194,-6.604246E-05
522.9194,-6.608956E-05
523.0193,-6.603494E-05
523.1193,-6.604246E-05
523.2193,-6.606036E-05
523.3193,-6.604718E-05
523.4193,-6.604059E-05
523.5192,-6.604812E-05
523.6192,-6.607166E-05
523.7192,-6.59822E-05
523.8192,-6.606601E-05
523.9191,-6.603494E-05
524.0191,-6.59822E-05
524.1191,-6.60095E-05
524.2191,-6.605094E-05
524.319,-6.602363E-05
524.419,-6.601421E-05
524.519,-6.600669E-05
524.619,-6.599255E-05
524.7189,-6.602551E-05
524.8189,-6.600669E-05
524.9189,-6.599443E-05
525.0189,-6.602457E-05
525.1188,-6.599162E-05
525.2188,-6.598879E-05
525.3188,-6.600856E-05
525.4188,-6.600763E-05
525.5187,-6.600574E-05
525.6187,-6.600386E-05
525.7187,-6.601045E-05
525.8187,-6.600856E-05
525.9186,-6.601045E-05
526.0186,-6.60208E-05
526.1186,-6.600386E-05
526.2186,-6.605472E-05
526.3185,-6.598314E-05
526.4185,-6.597373E-05
526.5185,-6.601609E-05
526.6185,-6.597843E-05
526.7184,-6.601045E-05
526.8184,-6.600856E-05
526.9184,-6.602175E-05
527.0184,-6.600856E-05
527.1183,-6.601516E-05
527.2183,-6.604059E-05
527.3183,-6.599162E-05
527.4183,-6.60274E-05
527.5182,-6.601893E-05
527.6182,-6.601421E-05
527.7182,-6.596713E-05
527.8182,-6.598408E-05
527.9182,-6.60095E-05
528.0181,-6.594264E-05
528.1181,-6.600856E-05
528.2181,-6.599538E-05
528.3181,-6.596618E-05
528.418,-6.601233E-05
528.518,-6.599538E-05
528.618,-6.593134E-05
528.718,-6.598503E-05
528.8179,-6.597373E-05
528.9179,-6.593604E-05
529.0179,-6.595959E-05
529.1179,-6.599915E-05
529.2178,-6.593793E-05
529.3178,-6.592381E-05
529.4178,-6.595959E-05
529.5178,-6.593511E-05
529.6177,-6.594642E-05
529.7177,-6.595959E-05
529.8177,-6.59304E-05
529.9177,-6.592569E-05
530.0176,-6.598597E-05
530.1176,-6.592852E-05
530.2176,-6.592287E-05
530.3176,-6.592569E-05
530.4175,-6.600386E-05
530.5175,-6.601799E-05
530.6175,-6.594735E-05
530.7175,-6.596242E-05
530.8174,-6.595771E-05
530.9174,-6.595018E-05
531.0174,-6.593793E-05
531.1174,-6.593982E-05
531.2173,-6.594076E-05
531.3173,-6.589838E-05
531.4173,-6.594735E-05
531.5173,-6.593793E-05
531.6172,-6.589179E-05
531.7172,-6.593134E-05
531.8172,-6.595865E-05
531.9172,-6.588708E-05
532.0172,-6.591346E-05
532.1171,-6.593323E-05
532.2171,-6.587955E-05
532.3171,-6.592569E-05
532.4171,-6.594547E-05
532.517,-6.589368E-05
532.617,-6.589273E-05
532.717,-6.590308E-05
532.817,-6.585883E-05
532.9169,-6.586354E-05
533.0169,-6.597373E-05
533.1169,-6.58447E-05
533.2169,-6.585129E-05
533.3168,-6.590403E-05
533.4168,-6.584753E-05
533.5168,-6.588802E-05
533.6168,-6.592664E-05
533.7167,-6.588708E-05
533.8167,-6.582304E-05
533.9167,-6.588614E-05
534.0167,-6.586072E-05
534.1166,-6.586448E-05
534.2166,-6.590686E-05
534.3166,-6.584376E-05
534.4166,-6.585977E-05
534.5165,-6.588237E-05
534.6165,-6.585317E-05
534.7165,-6.587013E-05
534.8165,-6.587766E-05
534.9164,-6.584847E-05
535.0164,-6.585129E-05
535.1164,-6.5856E-05
535.2164,-6.58447E-05
535.3163,-6.588521E-05
535.4163,-6.590968E-05
535.5163,-6.584282E-05
535.6163,-6.591628E-05
535.7162,-6.588992E-05
535.8162,-6.585696E-05
535.9162,-6.592098E-05
536.0162,-6.588992E-05
536.1161,-6.583906E-05
536.2161,-6.590308E-05
536.3161,-6.584188E-05
536.4161,-6.581834E-05
536.5161,-6.587861E-05
536.616,-6.582022E-05
536.716,-6.576843E-05
536.816,-6.582775E-05
536.916,-6.580986E-05
537.0159,-6.576654E-05
537.1159,-6.578067E-05
537.2159,-6.581645E-05
537.3159,-6.577879E-05
537.4158,-6.582587E-05
537.5158,-6.57835E-05
537.6158,-6.579385E-05
537.7158,-6.580139E-05
537.8157,-6.576184E-05
537.9157,-6.576654E-05
538.0157,-6.58221E-05
538.1157,-6.578161E-05
538.2156,-6.579197E-05
538.3156,-6.582775E-05
538.4156,-6.575524E-05
538.5156,-6.577124E-05
538.6155,-6.57882E-05
538.7155,-6.580704E-05
538.8155,-6.570062E-05
538.9155,-6.583529E-05
539.0154,-6.57835E-05
539.1154,-6.570815E-05
539.2154,-6.579102E-05
539.3154,-6.575618E-05
539.4153,-6.571945E-05
539.5153,-6.577124E-05
539.6153,-6.577408E-05
539.7153,-6.574583E-05
539.8152,-6.575618E-05
539.9152,-6.583435E-05
540.0152,-6.577408E-05
540.1152,-6.577031E-05
540.2151,-6.581363E-05
540.3151,-6.575148E-05
540.4151,-6.572511E-05
540.5151,-6.577314E-05
540.6151,-6.575901E-05
540.715,-6.572605E-05
540.815,-6.571945E-05
540.915,-6.570909E-05
541.015,-6.571098E-05
541.1149,-6.571758E-05
541.2149,-6.569403E-05
541.3149,-6.568084E-05
541.4149,-6.56912E-05
541.5148,-6.568837E-05
541.6148,-6.570156E-05
541.7148,-6.569779E-05
541.8148,-6.565918E-05
541.9147,-6.571098E-05
542.0147,-6.567896E-05
542.1147,-6.571662E-05
542.2147,-6.569779E-05
542.3146,-6.566202E-05
542.4146,-6.570627E-05
542.5146,-6.570156E-05
542.6146,-6.570722E-05
542.7145,-6.571758E-05
542.8145,-6.569874E-05
542.9145,-6.576654E-05
543.0145,-6.572699E-05
543.1144,-6.567802E-05
543.2144,-6.572888E-05
543.3144,-6.57543E-05
543.4144,-6.567896E-05
543.5143,-6.570815E-05
543.6143,-6.574205E-05
543.7143,-6.574488E-05
543.8143,-6.576748E-05
543.9142,-6.573169E-05
544.0142,-6.571662E-05
544.1142,-6.576184E-05
544.2142,-6.572888E-05
544.3141,-6.569027E-05
544.4141,-6.572699E-05
544.5141,-6.571569E-05
544.6141,-6.569497E-05
544.7141,-6.569968E-05
544.814,-6.571945E-05
544.914,-6.566202E-05
545.014,-6.569497E-05
545.114,-6.569686E-05
545.2139,-6.564694E-05
545.3139,-6.565447E-05
545.4139,-6.571758E-05
545.5139,-6.568178E-05
545.6138,-6.567237E-05
545.7138,-6.569497E-05
545.8138,-6.563564E-05
545.9138,-6.571003E-05
546.0137,-6.575148E-05
546.1137,-6.566202E-05
546.2137,-6.569874E-05
546.3137,-6.570533E-05
546.4136,-6.566766E-05
546.5136,-6.569403E-05
546.6136,-6.570722E-05
546.7136,-6.566578E-05
546.8135,-6.566295E-05
546.9135,-6.568555E-05
547.0135,-6.566012E-05
547.1135,-6.569592E-05
547.2134,-6.575054E-05
547.3134,-6.568461E-05
547.4134,-6.570156E-05
547.5134,-6.574299E-05
547.6133,-6.570439E-05
547.7133,-6.572605E-05
547.8133,-6.572793E-05
547.9133,-6.567519E-05
548.0132,-6.568837E-05
548.1132,-6.570345E-05
548.2132,-6.567143E-05
548.3132,-6.568178E-05
548.4131,-6.569497E-05
548.5131,-6.56686E-05
548.6131,-6.566954E-05
548.7131,-6.56686E-05
548.813,-6.566483E-05
548.913,-6.566483E-05
549.013,-6.568932E-05
549.113,-6.568932E-05
549.213,-6.566202E-05
549.3129,-6.565071E-05
549.4129,-6.566672E-05
549.5129,-6.565542E-05
549.6129,-6.568743E-05
549.7128,-6.566107E-05
549.8128,-6.564317E-05
549.9128,-6.565259E-05
550.0128,-6.567613E-05
550.1127,-6.565447E-05
550.2127,-6.5646E-05
550.3127,-6.568932E-05
550.4127,-6.563093E-05
550.5126,-6.563093E-05
550.6126,-6.568367E-05
550.7126,-6.564883E-05
550.8126,-6.564788E-05
550.9125,-6.567425E-05
551.0125,-6.565164E-05
551.1125,-6.564223E-05
551.2125,-6.567613E-05
551.3124,-6.564883E-05
551.4124,-6.56234E-05
551.5124,-6.567613E-05
551.6124,-6.567519E-05
551.7123,-6.562998E-05
551.8123,-6.572511E-05
551.9123,-6.575806E-05
552.0123,-6.572228E-05
552.1122,-6.570345E-05
552.2122,-6.570156E-05
552.3122,-6.567331E-05
552.4122,-6.568555E-05
552.5121,-6.571569E-05
552.6121,-6.566672E-05
552.7121,-6.566295E-05
552.8121,-6.565353E-05
552.912,-6.56168E-05
553.012,-6.562434E-05
553.112,-6.562246E-05
553.212,-6.563658E-05
553.312,-6.564412E-05
553.4119,-6.565353E-05
553.5119,-6.564977E-05
553.6119,-6.56008E-05
553.7119,-6.565636E-05
553.8118,-6.565823E-05
553.9118,-6.559232E-05
554.0118,-6.562622E-05
554.1118,-6.565259E-05
554.2117,-6.561021E-05
554.3117,-6.564317E-05
554.4117,-6.560551E-05
554.5117,-6.557537E-05
554.6116,-6.569968E-05
554.7116,-6.57364E-05
554.8116,-6.56121E-05
554.9116,-6.563377E-05
555.0115,-6.568743E-05
555.1115,-6.564506E-05
555.2115,-6.563658E-05
555.3115,-6.566578E-05
555.4114,-6.559797E-05
555.5114,-6.564506E-05
555.6114,-6.563847E-05
555.7114,-6.555372E-05
555.8113,-6.566954E-05
555.9113,-6.574865E-05
556.0113,-6.560173E-05
556.1113,-6.568649E-05
556.2112,-6.571569E-05
556.3112,-6.562622E-05
556.4112,-6.568461E-05
556.5112,-6.568649E-05
556.6111,-6.561775E-05
556.7111,-6.565918E-05
556.8111,-6.571192E-05
556.9111,-6.563187E-05
557.011,-6.565353E-05
557.111,-6.568555E-05
557.211,-6.568743E-05
557.311,-6.572416E-05
557.4109,-6.567989E-05
557.5109,-6.570722E-05
557.6109,-6.567896E-05
557.7109,-6.57138E-05
557.8109,-6.565447E-05
557.9108,-6.567896E-05
558.0108,-6.563941E-05
558.1108,-6.564223E-05
558.2108,-6.568178E-05
558.3107,-6.564977E-05
558.4107,-6.56008E-05
558.5107,-6.564223E-05
558.6107,-6.566672E-05
558.7106,-6.561963E-05
558.8106,-6.565164E-05
558.9106,-6.564788E-05
559.0106,-6.562246E-05
559.1105,-6.569027E-05
559.2105,-6.570627E-05
559.3105,-6.560362E-05
559.4105,-6.566766E-05
559.5104,-6.572228E-05
559.6104,-6.566107E-05
559.7104,-6.567519E-05
559.8104,-6.572699E-05
559.9103,-6.562622E-05
560.0103,-6.572511E-05
560.1103,-6.575148E-05
560.2103,-6.570722E-05
560.3102,-6.569779E-05
560.4102,-6.575994E-05
560.5102,-6.574205E-05
560.6102,-6.579009E-05
560.7101,-6.576936E-05
560.8101,-6.573452E-05
560.9101,-6.573828E-05
561.0101,-6.574488E-05
561.11,-6.573264E-05
561.21,-6.573169E-05
561.31,-6.574771E-05
561.41,-6.571945E-05
561.5099,-6.574677E-05
561.6099,-6.574205E-05
561.7099,-6.568743E-05
561.8099,-6.577879E-05
561.9099,-6.575713E-05
562.0098,-6.571569E-05
562.1098,-6.576936E-05
562.2098,-6.573075E-05
562.3098,-6.569779E-05
562.4097,-6.577596E-05
562.5097,-6.576748E-05
562.6097,-6.569215E-05
562.7097,-6.57656E-05
562.8096,-6.576936E-05
562.9096,-6.577596E-05
563.0096,-6.583906E-05
563.1096,-6.574771E-05
563.2095,-6.577879E-05
563.3095,-6.579479E-05
563.4095,-6.575524E-05
563.5095,-6.576936E-05
563.6094,-6.577219E-05
563.7094,-6.577691E-05
563.8094,-6.576654E-05
563.9094,-6.577314E-05
564.0093,-6.577784E-05
564.1093,-6.574771E-05
564.2093,-6.580139E-05
564.3093,-6.579856E-05
564.4092,-6.575241E-05
564.5092,-6.577219E-05
564.6092,-6.579009E-05
564.7092,-6.576371E-05
564.8091,-6.581269E-05
564.9091,-6.579197E-05
565.0091,-6.57204E-05
565.1091,-6.577691E-05
565.209,-6.581175E-05
565.309,-6.577502E-05
565.409,-6.58108E-05
565.509,-6.578631E-05
565.6089,-6.575241E-05
565.7089,-6.579574E-05
565.8089,-6.580986E-05
565.9089,-6.572981E-05
566.0089,-6.579856E-05
566.1088,-6.577124E-05
566.2088,-6.580421E-05
566.3088,-6.584376E-05
566.4088,-6.579761E-05
566.5087,-6.587672E-05
566.6087,-6.586731E-05
566.7087,-6.577124E-05
566.8087,-6.57995E-05
566.9086,-6.586636E-05
567.0086,-6.575241E-05
567.1086,-6.577219E-05
567.2086,-6.58447E-05
567.3085,-6.580421E-05
567.4085,-6.57656E-05
567.5085,-6.581551E-05
567.6085,-6.577879E-05
567.7084,-6.576936E-05
567.8084,-6.581834E-05
567.9084,-6.579102E-05
568.0084,-6.575901E-05
568.1083,-6.577124E-05
568.2083,-6.580044E-05
568.3083,-6.575054E-05
568.4083,-6.580139E-05
568.5082,-6.581834E-05
568.6082,-6.575241E-05
568.7082,-6.579761E-05
568.8082,-6.581834E-05
568.9081,-6.574018E-05
569.0081,-6.578255E-05
569.1081,-6.578067E-05
569.2081,-6.576184E-05
569.308,-6.579385E-05
569.408,-6.577784E-05
569.508,-6.570815E-05
569.608,-6.576654E-05
569.7079,-6.578444E-05
569.8079,-6.57364E-05
569.9079,-6.577691E-05
570.0079,-6.580139E-05
570.1078,-6.570533E-05
570.2078,-6.576654E-05
570.3078,-6.578631E-05
570.4078,-6.575994E-05
570.5078,-6.575806E-05
570.6077,-6.577596E-05
570.7077,-6.575336E-05
570.8077,-6.575336E-05
570.9077,-6.578255E-05
571.0076,-6.576936E-05
571.1076,-6.577691E-05
571.2076,-6.579574E-05
571.3076,-6.574865E-05
571.4075,-6.576843E-05
571.5075,-6.575806E-05
571.6075,-6.576278E-05
571.7075,-6.578255E-05
571.8074,-6.577124E-05
571.9074,-6.57138E-05
572.0074,-6.575901E-05
572.1074,-6.576089E-05
572.2073,-6.572699E-05
572.3073,-6.575806E-05
572.4073,-6.578914E-05
572.5073,-6.569497E-05
572.6072,-6.58174E-05
572.7072,-6.576748E-05
572.8072,-6.575336E-05
572.9072,-6.581551E-05
573.0071,-6.574111E-05
573.1071,-6.574488E-05
573.2071,-6.580704E-05
573.3071,-6.574865E-05
573.407,-6.574771E-05
573.507,-6.578914E-05
573.607,-6.576184E-05
573.707,-6.569027E-05
573.8069,-6.573735E-05
573.9069,-6.574488E-05
574.0069,-6.570062E-05
574.1069,-6.575713E-05
574.2068,-6.575618E-05
574.3068,-6.569215E-05
574.4068,-6.572699E-05
574.5068,-6.574771E-05
574.6068,-6.569403E-05
574.7067,-6.57138E-05
574.8067,-6.575054E-05
574.9067,-6.567989E-05
575.0067,-6.570156E-05
575.1066,-6.575336E-05
575.2066,-6.574111E-05
575.3066,-6.575241E-05
575.4066,-6.570439E-05
575.5065,-6.567519E-05
575.6065,-6.571945E-05
575.7065,-6.571474E-05
575.8065,-6.568555E-05
575.9064,-6.567896E-05
576.0064,-6.570627E-05
576.1064,-6.566672E-05
576.2064,-6.569686E-05
576.3063,-6.569779E-05
576.4063,-6.564977E-05
576.5063,-6.570345E-05
576.6063,-6.570439E-05
576.7062,-6.566202E-05
576.8062,-6.56912E-05
576.9062,-6.568743E-05
577.0062,-6.567802E-05
577.1061,-6.571758E-05
577.2061,-6.571003E-05
577.3061,-6.566012E-05
577.4061,-6.568367E-05
577.506,-6.571286E-05
577.606,-6.569403E-05
577.706,-6.573452E-05
577.806,-6.566107E-05
577.9059,-6.565071E-05
578.0059,-6.566672E-05
578.1059,-6.566954E-05
578.2059,-6.565259E-05
578.3058,-6.566295E-05
578.4058,-6.568367E-05
578.5058,-6.563093E-05
578.6058,-6.565918E-05
578.7057,-6.567237E-05
578.8057,-6.566389E-05
578.9057,-6.572605E-05
579.0057,-6.567802E-05
579.1057,-6.570345E-05
579.2056,-6.568837E-05
579.3056,-6.563564E-05
579.4056,-6.568273E-05
579.5056,-6.572699E-05
579.6055,-6.569215E-05
579.7055,-6.573358E-05
579.8055,-6.573546E-05
579.9055,-6.566672E-05
580.0054,-6.56234E-05
580.1054,-6.571192E-05
580.2054,-6.565823E-05
580.3054,-6.565636E-05
580.4053,-6.564317E-05
580.5053,-6.56281E-05
580.6053,-6.562622E-05
580.7053,-6.567331E-05
580.8052,-6.563847E-05
580.9052,-6.564412E-05
581.0052,-6.568461E-05
581.1052,-6.564788E-05
581.2051,-6.561775E-05
581.3051,-6.568273E-05
581.4051,-6.565542E-05
581.5051,-6.56008E-05
581.605,-6.565071E-05
581.705,-6.565447E-05
581.805,-6.560645E-05
581.905,-6.563093E-05
582.0049,-6.564036E-05
582.1049,-6.563941E-05
582.2049,-6.566578E-05
582.3049,-6.564317E-05
582.4048,-6.563564E-05
582.5048,-6.56121E-05
582.6048,-6.563658E-05
582.7048,-6.56347E-05
582.8047,-6.566295E-05
582.9047,-6.570439E-05
583.0047,-6.56281E-05
583.1047,-6.561116E-05
583.2047,-6.568461E-05
583.3046,-6.567519E-05
583.4046,-6.56347E-05
583.5046,-6.565823E-05
583.6046,-6.567896E-05
583.7045,-6.565071E-05
583.8045,-6.566389E-05
583.9045,-6.565823E-05
584.0045,-6.569779E-05
584.1044,-6.570062E-05
584.2044,-6.567143E-05
584.3044,-6.567708E-05
584.4044,-6.570156E-05
584.5043,-6.570345E-05
584.6043,-6.566578E-05
584.7043,-6.567143E-05
584.8043,-6.567519E-05
584.9042,-6.565636E-05
585.0042,-6.56912E-05
585.1042,-6.568178E-05
585.2042,-6.565259E-05
585.3041,-6.564788E-05
585.4041,-6.565823E-05
585.5041,-6.567613E-05
585.6041,-6.563564E-05
585.704,-6.563282E-05
585.804,-6.563282E-05
585.904,-6.56573E-05
586.004,-6.566483E-05
586.1039,-6.561116E-05
586.2039,-6.56234E-05
586.3039,-6.563187E-05
586.4039,-6.56573E-05
586.5038,-6.568837E-05
586.6038,-6.567708E-05
586.7038,-6.562151E-05
586.8038,-6.568837E-05
586.9037,-6.569686E-05
587.0037,-6.566672E-05
587.1037,-6.564036E-05
587.2037,-6.568273E-05
587.3036,-6.563564E-05
587.4036,-6.565542E-05
587.5036,-6.567425E-05
587.6036,-6.563282E-05
587.7036,-6.561869E-05
587.8035,-6.564129E-05
587.9035,-6.563093E-05
588.0035,-6.562246E-05
588.1035,-6.564506E-05
588.2034,-6.564223E-05
588.3034,-6.562434E-05
588.4034,-6.562998E-05
588.5034,-6.568649E-05
588.6033,-6.56281E-05
588.7033,-6.563564E-05
588.8033,-6.56573E-05
588.9033,-6.563941E-05
589.0032,-6.569592E-05
589.1032,-6.561587E-05
589.2032,-6.567989E-05
589.3032,-6.567896E-05
589.4031,-6.561869E-05
589.5031,-6.565823E-05
589.6031,-6.567708E-05
589.7031,-6.562622E-05
589.803,-6.566483E-05
589.903,-6.57025E-05
590.003,-6.562905E-05
590.103,-6.564223E-05
590.2029,-6.56686E-05
590.3029,-6.561021E-05
590.4029,-6.569403E-05
590.5029,-6.579667E-05
590.6028,-6.566389E-05
590.7028,-6.570156E-05
590.8028,-6.571098E-05
590.9028,-6.563847E-05
591.0027,-6.567143E-05
591.1027,-6.571758E-05
591.2027,-6.563847E-05
591.3027,-6.566766E-05
591.4026,-6.567143E-05
591.5026,-6.56281E-05
591.6026,-6.563377E-05
591.7026,-6.57138E-05
591.8026,-6.565823E-05
591.9025,-6.564129E-05
592.0025,-6.569309E-05
592.1025,-6.563753E-05
592.2025,-6.563564E-05
592.3024,-6.571758E-05
592.4024,-6.566578E-05
592.5024,-6.566012E-05
592.6024,-6.568461E-05
592.7023,-6.564788E-05
592.8023,-6.565447E-05
592.9023,-6.570722E-05
593.0023,-6.567331E-05
593.1022,-6.564977E-05
593.2022,-6.567613E-05
593.3022,-6.566672E-05
593.4022,-6.567049E-05
593.5021,-6.570533E-05
593.6021,-6.567896E-05
593.7021,-6.567049E-05
593.8021,-6.566202E-05
593.902,-6.568178E-05
594.002,-6.568084E-05
594.102,-6.56912E-05
594.202,-6.570439E-05
594.3019,-6.567237E-05
594.4019,-6.568273E-05
594.5019,-6.569592E-05
594.6019,-6.570627E-05
594.7018,-6.568837E-05
594.8018,-6.569686E-05
594.9018,-6.56912E-05
595.0018,-6.56686E-05
595.1017,-6.571945E-05
595.2017,-6.572322E-05
595.3017,-6.568461E-05
595.4017,-6.570722E-05
595.5016,-6.570156E-05
595.6016,-6.568367E-05
595.7016,-6.575148E-05
595.8016,-6.569874E-05
595.9016,-6.570722E-05
596.0015,-6.571098E-05
596.1015,-6.57364E-05
596.2015,-6.57204E-05
596.3015,-6.567331E-05
596.4014,-6.573264E-05
596.5014,-6.571758E-05
596.6014,-6.57204E-05
596.7014,-6.570815E-05
596.8013,-6.570627E-05
596.9013,-6.572322E-05
597.0013,-6.569686E-05
597.1013,-6.569215E-05
597.2012,-6.572322E-05
597.3012,-6.571662E-05
597.4012,-6.572605E-05
597.5012,-6.570156E-05
597.6011,-6.568932E-05
597.7011,-6.56912E-05
597.8011,-6.572134E-05
597.9011,-6.571003E-05
598.001,-6.57025E-05
598.101,-6.572228E-05
598.201,-6.571003E-05
598.301,-6.567989E-05
598.4009,-6.572228E-05
598.5009,-6.57025E-05
598.6009,-6.570156E-05
598.7009,-6.572981E-05
598.8008,-6.56912E-05
598.9008,-6.569968E-05
599.0008,-6.573358E-05
599.1008,-6.571003E-05
599.2007,-6.568084E-05
599.3007,-6.571192E-05
599.4007,-6.572888E-05
599.5007,-6.566202E-05
599.6006,-6.572981E-05
599.7006,-6.571758E-05
599.8006,-6.567708E-05
599.9006,-6.57025E-05
600.0005,-6.571192E-05
