EXPID. 1027
[电化学]: i-t : @ 0(V) X 600(sec)
起始电位 (V),0
静置时间 (秒),0
运行时间 (秒),600
记录间隔,0.1
电解液 信息:
HNO3,0.4
0.1,-0.01005814
0.2,-0.01005814
0.3,-0.01005814
0.4,-0.01005814
0.5,-0.01005814
0.6,-0.01005814
0.7,-0.01005814
0.8000001,-0.01005814
0.9000001,-0.01005814
1,-0.008056508
1.1,0.004979748
1.2,0.009430271
1.3,0.0100315
1.4,0.008885673
1.5,0.006003004
1.6,0.004236226
1.7,0.001623688
1.8,-0.0006498387
1.9,-0.001982515
2,-0.002677813
2.1,-0.003039136
2.2,-0.00319883
2.3,-0.003258715
2.4,-0.003260154
2.5,-0.003247866
2.6,-0.003208055
2.7,-0.003168993
2.799999,-0.003125919
2.899999,-0.003075419
2.999999,-0.003033427
3.099999,-0.002984395
3.199999,-0.002943672
3.299999,-0.002899021
3.399999,-0.002850619
3.499999,-0.002810096
3.599999,-0.00276762
3.699999,-0.002717657
3.799999,-0.002676154
3.899998,-0.00263639
3.999998,-0.002589296
4.099998,-0.002546014
4.199998,-0.002505126
4.299998,-0.002458898
4.399998,-0.002418104
4.499998,-0.002374117
4.599998,-0.002326207
4.699998,-0.002283496
4.799998,-0.002238877
4.899998,-0.002191197
4.999998,-0.002146897
5.099998,-0.002104234
5.199997,-0.002058496
5.299997,-0.002020689
5.399997,-0.001982326
5.499997,-0.00194415
5.599997,-0.001910507
5.699997,-0.001879028
5.799997,-0.001847011
5.899997,-0.001817779
5.999997,-0.001789884
6.099997,-0.001763197
6.199996,-0.00173797
6.299996,-0.001713216
6.399996,-0.001690265
6.499996,-0.001668295
6.599996,-0.0016467
6.699996,-0.001626578
6.799996,-0.001606933
6.899996,-0.00158877
6.999996,-0.001569457
7.099996,-0.001551954
7.199996,-0.00153508
7.299995,-0.001518676
7.399995,-0.001502663
7.499995,-0.001487668
7.599995,-0.001473024
7.699995,-0.001457856
7.799995,-0.001444073
7.899995,-0.001430268
7.999995,-0.0014165
8.099995,-0.001403503
8.199995,-0.001390738
8.299995,-0.001378406
8.399996,-0.001366205
8.499996,-0.001354255
8.599997,-0.001342406
8.699997,-0.001331123
8.799997,-0.001320438
8.899998,-0.001309365
8.999998,-0.001298409
9.099998,-0.00128845
9.199999,-0.001278235
9.299999,-0.001267863
9.4,-0.001258539
9.5,-0.001248616
9.6,-0.00123906
9.700001,-0.001230394
9.800001,-0.001221251
9.900002,-0.001212192
10,-0.001203978
10.1,-0.001195327
10.2,-0.001187589
10.3,-0.001179698
10.4,-0.001171139
10.5,-0.001163029
10.6,-0.001155988
10.7,-0.00114775
10.8,-0.001140007
10.90001,-0.00113271
11.00001,-0.001125265
11.10001,-0.001117837
11.20001,-0.001110996
11.30001,-0.001103728
11.40001,-0.001096516
11.50001,-0.00108993
11.60001,-0.001083193
11.70001,-0.001076291
11.80001,-0.001070058
11.90001,-0.001063275
12.00001,-0.001057314
12.10001,-0.001051122
12.20001,-0.001044649
12.30001,-0.001038559
12.40001,-0.00103252
12.50001,-0.00102711
12.60001,-0.001021183
12.70001,-0.001015194
12.80001,-0.001009993
12.90001,-0.001003958
13.00001,-0.0009984159
13.10001,-0.0009932185
13.20001,-0.0009879946
13.30001,-0.0009823348
13.40001,-0.0009775151
13.50002,-0.0009727697
13.60002,-0.000967367
13.70002,-0.0009625877
13.80002,-0.0009578367
13.90002,-0.0009523642
14.00002,-0.0009474569
14.10002,-0.0009429667
14.20002,-0.0009379049
14.30002,-0.0009333102
14.40002,-0.0009286872
14.50002,-0.0009242808
14.60002,-0.0009197153
14.70002,-0.0009149106
14.80002,-0.0009102462
14.90002,-0.0009056713
15.00002,-0.0009013544
15.10002,-0.0008967701
15.20002,-0.0008923609
15.30002,-0.0008881156
15.40002,-0.0008834559
15.50002,-0.0008793311
15.60002,-0.0008749567
15.70002,-0.0008705278
15.80002,-0.0008663136
15.90002,-0.0008623959
16.00002,-0.0008580442
16.10003,-0.0008542245
16.20003,-0.0008503361
16.30003,-0.0008461463
16.40003,-0.0008423333
16.50003,-0.0008386257
16.60003,-0.0008345131
16.70003,-0.0008306784
16.80003,-0.0008270217
16.90003,-0.0008232095
17.00003,-0.0008196771
17.10003,-0.0008161682
17.20003,-0.0008123683
17.30003,-0.000808801
17.40003,-0.0008056368
17.50003,-0.0008019311
17.60003,-0.0007983648
17.70003,-0.0007950415
17.80003,-0.0007914176
17.90003,-0.0007880396
18.00003,-0.0007849272
18.10003,-0.0007815568
18.20003,-0.0007781307
18.30003,-0.0007751464
18.40003,-0.0007716526
18.50003,-0.0007685628
18.60003,-0.0007655427
18.70004,-0.0007621411
18.80004,-0.0007589618
18.90004,-0.0007559916
19.00004,-0.0007529272
19.10004,-0.0007498929
19.20004,-0.0007466957
19.30004,-0.0007441267
19.40004,-0.0007411979
19.50004,-0.0007378793
19.60004,-0.0007352019
19.70004,-0.0007324078
19.80004,-0.000729206
19.90004,-0.000726651
20.00004,-0.0007239162
20.10004,-0.0007208
20.20004,-0.0007179862
20.30004,-0.0007153097
20.40004,-0.0007124149
20.50004,-0.00070973
20.60004,-0.0007069453
20.70004,-0.0007044073
20.80004,-0.0007013928
20.90004,-0.0006988784
21.00004,-0.000696299
21.10004,-0.0006937441
21.20004,-0.0006912005
21.30005,-0.0006887341
21.40005,-0.0006862357
21.50005,-0.0006834595
21.60005,-0.0006809215
21.70005,-0.0006784061
21.80005,-0.0006759473
21.90005,-0.0006732831
22.00005,-0.0006708412
22.10005,-0.0006684162
22.20005,-0.0006658509
22.30005,-0.0006635842
22.40005,-0.0006611009
22.50005,-0.000658577
22.60005,-0.0006563696
22.70005,-0.0006539964
22.80005,-0.0006516204
22.90005,-0.0006493066
23.00005,-0.0006470361
23.10005,-0.0006448842
23.20005,-0.0006428238
23.30005,-0.0006405381
23.40005,-0.0006378806
23.50005,-0.0006357533
23.60005,-0.000633672
23.70005,-0.0006313054
23.80005,-0.0006292402
23.90005,-0.0006271006
24.00006,-0.0006248264
24.10006,-0.0006227535
24.20006,-0.000620645
24.30006,-0.0006184696
24.40006,-0.0006164317
24.50006,-0.0006144795
24.60006,-0.0006123031
24.70006,-0.0006103275
24.80006,-0.0006083742
24.90006,-0.0006064023
25.00006,-0.0006046186
25.10006,-0.0006026448
25.20006,-0.0006005306
25.30006,-0.0005985633
25.40006,-0.0005966874
25.50006,-0.0005948285
25.60006,-0.0005929534
25.70006,-0.0005909617
25.80006,-0.0005891761
25.90006,-0.0005876731
26.00006,-0.0005857577
26.10006,-0.0005838591
26.20006,-0.0005821546
26.30006,-0.0005802673
26.40006,-0.0005784121
26.50006,-0.0005766897
26.60007,-0.000574811
26.70007,-0.0005728794
26.80007,-0.0005713689
26.90007,-0.0005694705
27.00007,-0.0005676727
27.10007,-0.0005659973
27.20007,-0.000564207
27.30007,-0.0005625561
27.40007,-0.000560669
27.50007,-0.0005589419
27.60007,-0.0005572034
27.70007,-0.0005556081
27.80007,-0.000554009
27.90007,-0.0005523685
28.00007,-0.0005508627
28.10007,-0.0005493333
28.20007,-0.0005475045
28.30007,-0.0005459742
28.40007,-0.0005442132
28.50007,-0.0005424945
28.60007,-0.0005409482
28.70007,-0.0005392973
28.80007,-0.0005377124
28.90007,-0.000536087
29.00007,-0.000534405
29.10007,-0.0005328954
29.20008,-0.0005312465
29.30008,-0.0005297567
29.40008,-0.000528215
29.50008,-0.0005268024
29.60008,-0.0005250838
29.70008,-0.0005236307
29.80008,-0.0005221249
29.90008,-0.000520554
30.00008,-0.0005191857
30.10008,-0.0005177072
30.20008,-0.0005160403
30.30008,-0.0005146419
30.40008,-0.0005131945
30.50008,-0.0005118948
30.60008,-0.0005104935
30.70008,-0.0005089095
30.80008,-0.0005074884
30.90008,-0.0005061719
31.00008,-0.0005046576
31.10008,-0.0005034371
31.20008,-0.0005020189
31.30008,-0.0005006355
31.40008,-0.0004993604
31.50008,-0.0004979572
31.60008,-0.0004965691
31.70008,-0.0004954964
31.80009,-0.0004941592
31.90009,-0.0004927664
32.00008,-0.0004920752
32.10008,-0.0004908415
32.20008,-0.0004892754
32.30008,-0.0004882705
32.40008,-0.0004870557
32.50008,-0.000485581
32.60007,-0.000484579
32.70007,-0.0004832671
32.80007,-0.0004818291
32.90007,-0.0004805286
33.00007,-0.0004793025
33.10007,-0.0004780085
33.20007,-0.0004768361
33.30006,-0.0004758124
33.40006,-0.0004743047
33.50006,-0.000473087
33.60006,-0.0004719805
33.70006,-0.0004706781
33.80006,-0.0004694576
33.90005,-0.0004684132
34.00005,-0.0004671259
34.10005,-0.0004659817
34.20005,-0.0004649552
34.30005,-0.0004636273
34.40005,-0.0004624116
34.50005,-0.0004614585
34.60004,-0.0004603049
34.70004,-0.0004591183
34.80004,-0.0004580947
34.90004,-0.0004567941
35.00004,-0.0004557365
35.10004,-0.000454695
35.20004,-0.0004535197
35.30003,-0.000452432
35.40003,-0.0004513255
35.50003,-0.0004504487
35.60003,-0.0004494335
35.70003,-0.0004483119
35.80003,-0.0004471197
35.90002,-0.0004461092
36.00002,-0.0004450922
36.10002,-0.0004440101
36.20002,-0.0004428998
36.30002,-0.0004419364
36.40002,-0.0004409194
36.50002,-0.000439956
36.60001,-0.0004389634
36.70001,-0.0004377834
36.80001,-0.0004369123
36.90001,-0.0004358651
37.00001,-0.0004347425
37.10001,-0.0004336982
37.2,-0.0004327093
37.3,-0.0004316245
37.4,-0.0004307006
37.5,-0.0004296732
37.6,-0.0004285977
37.7,-0.0004277907
37.8,-0.0004267896
37.89999,-0.0004257631
37.99999,-0.0004247809
38.09999,-0.0004237563
38.19999,-0.0004228193
38.29999,-0.0004219454
38.39999,-0.0004209471
38.49998,-0.0004199884
38.59998,-0.000419155
38.69998,-0.0004182811
38.79998,-0.000417183
38.89998,-0.000416424
38.99998,-0.0004154898
39.09998,-0.0004145358
39.19997,-0.0004137532
39.29997,-0.000412724
39.39997,-0.0004118246
39.49997,-0.0004110344
39.59997,-0.0004101219
39.69997,-0.0004092932
39.79996,-0.0004084748
39.89996,-0.0004075077
39.99996,-0.0004066291
40.09996,-0.0004058361
40.19996,-0.000404948
40.29996,-0.0004041871
40.39996,-0.0004033546
40.49995,-0.0004024185
40.59995,-0.0004015418
40.69995,-0.0004008016
40.79995,-0.000399842
40.89995,-0.0003990321
40.99995,-0.0003983248
41.09995,-0.0003973812
41.19994,-0.00039656
41.29994,-0.0003958161
41.39994,-0.0003949544
41.49994,-0.0003941313
41.59994,-0.0003933817
41.69994,-0.0003925831
41.79993,-0.0003917742
41.89993,-0.0003909991
41.99993,-0.0003902033
42.09993,-0.0003893859
42.19993,-0.0003886957
42.29993,-0.0003879027
42.39993,-0.0003870806
42.49992,-0.0003863592
42.59992,-0.0003855418
42.69992,-0.0003847987
42.79992,-0.0003840962
42.89992,-0.0003833532
42.99992,-0.0003826601
43.09991,-0.0003818511
43.19991,-0.0003812739
43.29991,-0.0003805214
43.39991,-0.0003798161
43.49991,-0.0003790297
43.59991,-0.0003782782
43.69991,-0.0003776294
43.7999,-0.0003768807
43.8999,-0.0003761669
43.9999,-0.0003754681
44.0999,-0.0003746968
44.1999,-0.0003739528
44.2999,-0.0003732409
44.39989,-0.0003725186
44.49989,-0.0003718368
44.59989,-0.000371106
44.69989,-0.0003703865
44.79989,-0.0003698214
44.89989,-0.0003690276
44.99989,-0.0003683741
45.09988,-0.0003676254
45.19988,-0.0003669172
45.29988,-0.000366306
45.39988,-0.0003656816
45.49988,-0.0003649753
45.59988,-0.0003642558
45.69987,-0.0003635863
45.79987,-0.0003629139
45.89987,-0.0003623244
45.99987,-0.0003616557
46.09987,-0.0003609975
46.19987,-0.0003605614
46.29987,-0.0003599154
46.39986,-0.000359179
46.49986,-0.0003586299
46.59986,-0.0003580357
46.69986,-0.0003573284
46.79986,-0.0003567267
46.89986,-0.0003560845
46.99986,-0.0003553913
47.09985,-0.0003547086
47.19985,-0.0003540974
47.29985,-0.0003534589
47.39985,-0.0003528825
47.49985,-0.0003522054
47.59985,-0.0003515246
47.69984,-0.0003509002
47.79984,-0.0003503691
47.89984,-0.0003496863
47.99984,-0.0003491891
48.09984,-0.0003486061
48.19984,-0.0003480675
48.29984,-0.0003474252
48.39983,-0.0003467472
48.49983,-0.0003461614
48.59983,-0.0003456341
48.69983,-0.0003449503
48.79983,-0.0003443307
48.89983,-0.0003437525
48.99982,-0.0003431959
49.09982,-0.0003425433
49.19982,-0.0003420347
49.29982,-0.0003415704
49.39982,-0.0003410064
49.49982,-0.0003404696
49.59982,-0.0003398226
49.69981,-0.000339218
49.79981,-0.0003387782
49.89981,-0.0003381294
49.99981,-0.0003374899
50.09981,-0.0003369937
50.19981,-0.0003364455
50.2998,-0.0003358579
50.3998,-0.0003353287
50.4998,-0.0003347796
50.5998,-0.0003341948
50.6998,-0.0003336901
50.7998,-0.0003332098
50.8998,-0.0003324667
50.99979,-0.0003319789
51.09979,-0.0003314685
51.19979,-0.000330862
51.29979,-0.0003303573
51.39979,-0.0003297941
51.49979,-0.0003293383
51.59978,-0.0003288382
51.69978,-0.0003282421
51.79978,-0.0003276668
51.89978,-0.0003271657
51.99978,-0.0003266855
52.09978,-0.0003261581
52.19978,-0.0003256863
52.29977,-0.0003251052
52.39977,-0.0003247107
52.49977,-0.0003242031
52.59977,-0.0003236879
52.69977,-0.0003232378
52.79977,-0.0003227763
52.89977,-0.0003222066
52.99976,-0.0003216519
53.09976,-0.0003211415
53.19976,-0.0003206414
53.29976,-0.0003201583
53.39976,-0.0003197374
53.49976,-0.0003191676
53.59975,-0.0003186572
53.69975,-0.000318176
53.79975,-0.0003176081
53.89975,-0.0003171514
53.99975,-0.0003166909
54.09975,-0.0003162049
54.19975,-0.0003156936
54.29974,-0.0003152509
54.39974,-0.0003147547
54.49974,-0.0003143149
54.59974,-0.0003139024
54.69974,-0.0003134616
54.79974,-0.0003128712
54.89973,-0.0003123853
54.99973,-0.0003118974
55.09973,-0.0003114426
55.19973,-0.0003110216
55.29973,-0.000310514
55.39973,-0.0003100592
55.49973,-0.0003096345
55.59972,-0.0003091504
55.69972,-0.0003087248
55.79972,-0.0003082859
55.89972,-0.000307816
55.99972,-0.000307363
56.09972,-0.0003069298
56.19971,-0.0003064345
56.29971,-0.0003059928
56.39971,-0.0003056623
56.49971,-0.0003051546
56.59971,-0.000304681
56.69971,-0.0003042789
56.79971,-0.0003038607
56.8997,-0.0003033569
56.9997,-0.0003029793
57.0997,-0.0003025075
57.1997,-0.0003020705
57.2997,-0.0003017333
57.3997,-0.0003013171
57.49969,-0.0003008039
57.59969,-0.0003004027
57.69969,-0.0002999723
57.79969,-0.0002995551
57.89969,-0.0002992161
57.99969,-0.0002987565
58.09969,-0.0002983073
58.19968,-0.0002979174
58.29968,-0.0002975323
58.39968,-0.000297117
58.49968,-0.0002967073
58.59968,-0.0002962882
58.69968,-0.0002958023
58.79967,-0.0002953654
58.89967,-0.0002950621
58.99967,-0.0002946261
59.09967,-0.0002941948
59.19967,-0.0002938577
59.29967,-0.0002934141
59.39967,-0.0002930063
59.49966,-0.0002926117
59.59966,-0.0002922152
59.69966,-0.0002917792
59.79966,-0.0002914073
59.89966,-0.0002910419
59.99966,-0.000290604
60.09966,-0.0002901821
60.19965,-0.0002898882
60.29965,-0.0002894588
60.39965,-0.0002890303
60.49965,-0.0002886489
60.59965,-0.0002882967
60.69965,-0.0002878852
60.79964,-0.0002875151
60.89964,-0.0002871186
60.99964,-0.0002867664
61.09964,-0.0002863276
61.19964,-0.0002859565
61.29964,-0.0002856109
61.39964,-0.000285237
61.49963,-0.000284834
61.59963,-0.0002844912
61.69963,-0.0002841408
61.79963,-0.000283766
61.89963,-0.0002834638
61.99963,-0.000283007
62.09962,-0.000282684
62.19962,-0.0002823318
62.29962,-0.0002819579
62.39962,-0.0002816641
62.49962,-0.000281326
62.59962,-0.0002808806
62.69962,-0.0002805039
62.79961,-0.0002801159
62.89961,-0.0002798371
62.99961,-0.0002794793
63.09961,-0.0002790584
63.19961,-0.000278693
63.29961,-0.0002783455
63.3996,-0.0002780055
63.4996,-0.0002776241
63.5996,-0.0002773001
63.6996,-0.0002769526
63.7996,-0.0002765853
63.8996,-0.0002762256
63.9996,-0.0002758847
64.09959,-0.0002755494
64.19959,-0.0002751511
64.29959,-0.0002748309
64.39959,-0.0002745258
64.49959,-0.0002741849
64.59959,-0.0002737941
64.69958,-0.0002735068
64.79958,-0.0002731264
64.89958,-0.0002727798
64.99958,-0.0002724587
65.09958,-0.0002720745
65.19958,-0.0002717496
65.29958,-0.0002714218
65.39957,-0.0002711224
65.49957,-0.0002707165
65.59957,-0.0002704622
65.69957,-0.0002700799
65.79957,-0.000269739
65.89957,-0.0002694404
65.99957,-0.0002691155
66.09956,-0.0002687407
66.19956,-0.0002684422
66.29956,-0.000268057
66.39956,-0.0002677368
66.49956,-0.000267427
66.59956,-0.0002671652
66.69955,-0.0002667932
66.79955,-0.0002665164
66.89955,-0.0002661632
66.99955,-0.0002658308
67.09955,-0.0002655473
67.19955,-0.0002652196
67.29955,-0.0002648919
67.39954,-0.0002645604
67.49954,-0.0002642515
67.59954,-0.0002639285
67.69954,-0.0002636676
67.79954,-0.0002633418
67.89954,-0.000263144
67.99953,-0.0002627645
68.09953,-0.0002623793
68.19953,-0.0002620469
68.29953,-0.0002617663
68.39953,-0.0002614282
68.49953,-0.0002611833
68.59953,-0.0002608707
68.69952,-0.0002606183
68.79952,-0.0002602105
68.89952,-0.0002599355
68.99952,-0.0002596436
69.09952,-0.0002593347
69.19952,-0.0002590475
69.29951,-0.0002587179
69.39951,-0.0002584156
69.49951,-0.0002582094
69.59951,-0.0002578524
69.69951,-0.0002575737
69.79951,-0.0002572619
69.89951,-0.0002569926
69.9995,-0.000256679
70.0995,-0.0002563664
70.1995,-0.0002560782
70.2995,-0.0002558334
70.3995,-0.0002555923
70.4995,-0.0002552118
70.59949,-0.0002549434
70.69949,-0.00025461
70.79949,-0.0002542946
70.89949,-0.0002541477
70.99949,-0.0002538454
71.09949,-0.0002534866
71.19949,-0.0002531862
71.29948,-0.0002528678
71.39948,-0.0002526362
71.49948,-0.0002524393
71.59948,-0.0002521701
71.69948,-0.0002518046
71.79948,-0.0002515127
71.89948,-0.0002512857
71.99947,-0.0002509439
72.09947,-0.0002506746
72.19947,-0.000250311
72.29947,-0.0002500643
72.39947,-0.0002498967
72.49947,-0.0002496104
72.59946,-0.0002493175
72.69946,-0.0002490595
72.79946,-0.0002487619
72.89946,-0.0002484445
72.99946,-0.0002482091
73.09946,-0.0002479661
73.19946,-0.0002477561
73.29945,-0.000247531
73.39945,-0.0002473314
73.49945,-0.0002469679
73.59945,-0.0002466355
73.69945,-0.0002462823
73.79945,-0.0002460101
73.89944,-0.0002457484
73.99944,-0.0002454687
74.09944,-0.0002452106
74.19944,-0.0002449121
74.29944,-0.0002446908
74.39944,-0.0002443979
74.49944,-0.0002441107
74.59943,-0.0002438253
74.69943,-0.0002436116
74.79943,-0.0002433309
74.89943,-0.0002430211
74.99943,-0.0002427395
75.09943,-0.0002425041
75.19942,-0.0002423016
75.29942,-0.0002420605
75.39942,-0.0002418157
75.49942,-0.0002415727
75.59942,-0.0002412554
75.69942,-0.0002409606
75.79942,-0.0002407063
75.89941,-0.0002404087
75.99941,-0.000240194
76.09941,-0.000239919
76.19941,-0.0002396224
76.29941,-0.000239403
76.39941,-0.0002391431
76.4994,-0.0002388737
76.5994,-0.0002386524
76.6994,-0.0002383671
76.7994,-0.0002380779
76.8994,-0.0002378284
76.9994,-0.0002375892
77.0994,-0.0002373236
77.19939,-0.000237124
77.29939,-0.0002368641
77.39939,-0.0002366155
77.49939,-0.0002363659
77.59939,-0.0002361003
77.69939,-0.0002358103
77.79939,-0.0002356238
77.89938,-0.000235345
77.99938,-0.0002351379
78.09938,-0.0002349109
78.19938,-0.0002347
78.29938,-0.000234408
78.39938,-0.0002341679
78.49937,-0.0002339711
78.59937,-0.0002336848
78.69937,-0.0002335379
78.79937,-0.000233229
78.89937,-0.0002329493
78.99937,-0.0002328429
79.09937,-0.0002325443
79.19936,-0.0002322147
79.29936,-0.0002319755
79.39936,-0.0002317316
79.49936,-0.0002315226
79.59936,-0.0002313126
79.69936,-0.0002310781
79.79935,-0.0002308323
79.89935,-0.000230659
79.99935,-0.0002304075
80.09935,-0.0002300987
80.19935,-0.0002299113
80.29935,-0.0002297483
80.39935,-0.000229462
80.49934,-0.0002291475
80.59934,-0.0002289205
80.69934,-0.0002286776
80.79934,-0.0002284685
80.89934,-0.0002282453
80.99934,-0.0002280137
81.09933,-0.0002278112
81.19933,-0.0002275598
81.29933,-0.0002273366
81.39933,-0.0002271463
81.49933,-0.0002269552
81.59933,-0.0002267744
81.69933,-0.0002264815
81.79932,-0.0002262507
81.89932,-0.0002260784
81.99932,-0.0002258854
82.09932,-0.0002256989
82.19932,-0.0002254644
82.29932,-0.0002252045
82.39931,-0.0002250133
82.49931,-0.0002247204
82.59931,-0.0002245434
82.69931,-0.0002242656
82.79931,-0.0002240471
82.89931,-0.0002238663
82.99931,-0.0002236365
83.0993,-0.000223419
83.1993,-0.0002232485
83.2993,-0.0002229566
83.3993,-0.0002227438
83.4993,-0.0002225874
83.5993,-0.0002223736
83.6993,-0.0002221448
83.79929,-0.0002219621
83.89929,-0.0002216673
83.99929,-0.0002215195
84.09929,-0.0002213811
84.19929,-0.0002210929
84.29929,-0.0002208405
84.39928,-0.0002205872
84.49928,-0.0002204525
84.59928,-0.0002202387
84.69928,-0.0002200184
84.79928,-0.0002197029
84.89928,-0.0002195739
84.99928,-0.0002194279
85.09927,-0.0002191661
85.19927,-0.0002189137
85.29927,-0.0002187367
85.39927,-0.0002185681
85.49927,-0.0002183091
85.59927,-0.0002181189
85.69926,-0.0002178759
85.79926,-0.0002176593
85.89926,-0.0002175209
85.99926,-0.0002172855
86.09926,-0.0002170538
86.19926,-0.0002168786
86.29926,-0.0002166357
86.39925,-0.0002164332
86.49925,-0.0002162514
86.59925,-0.0002160254
86.69925,-0.0002157909
86.79925,-0.0002156224
86.89925,-0.0002154114
86.99924,-0.000215176
87.09924,-0.0002150263
87.19924,-0.0002148162
87.29924,-0.0002146383
87.39924,-0.0002144085
87.49924,-0.0002141721
87.59924,-0.0002140224
87.69923,-0.0002139564
87.79923,-0.0002137286
87.89923,-0.0002134309
87.99923,-0.0002132078
88.09923,-0.0002130486
88.19923,-0.0002128085
88.29922,-0.0002126041
88.39922,-0.0002123433
88.49922,-0.0002123037
88.59922,-0.0002121709
88.69922,-0.0002119722
88.79922,-0.0002117038
88.89922,-0.0002115616
88.99921,-0.0002113488
89.09921,-0.0002111623
89.19921,-0.000210957
89.29921,-0.0002107065
89.39921,-0.000210505
89.49921,-0.0002104146
89.59921,-0.0002101547
89.6992,-0.0002099682
89.7992,-0.0002097836
89.8992,-0.0002095416
89.9992,-0.0002093335
90.0992,-0.000209179
90.1992,-0.0002089427
90.29919,-0.0002087581
90.39919,-0.0002085547
90.49919,-0.0002084087
90.59919,-0.0002081855
90.69919,-0.0002080019
90.79919,-0.0002078267
90.89919,-0.0002075875
90.99918,-0.0002074274
91.09918,-0.0002072702
91.19918,-0.0002070724
91.29918,-0.0002068266
91.39918,-0.0002066976
91.49918,-0.0002064913
91.59917,-0.0002063143
91.69917,-0.0002061316
91.79917,-0.0002059291
91.89917,-0.0002058048
91.99917,-0.0002057022
92.09917,-0.0002054724
92.19917,-0.0002052078
92.29916,-0.0002050759
92.39916,-0.0002049196
92.49916,-0.0002047397
92.59916,-0.0002044864
92.69916,-0.0002042698
92.79916,-0.0002041267
92.89915,-0.0002039882
92.99915,-0.0002037895
93.09915,-0.0002035691
93.19915,-0.0002033714
93.29915,-0.0002032565
93.39915,-0.0002030907
93.49915,-0.0002028864
93.59914,-0.0002026585
93.69914,-0.0002025257
93.79914,-0.0002022922
93.89914,-0.0002021283
93.99914,-0.0002019795
94.09914,-0.0002017544
94.19913,-0.0002016461
94.29913,-0.0002014757
94.39913,-0.0002012676
94.49913,-0.0002010717
94.59913,-0.000200953
94.69913,-0.0002007411
94.79913,-0.0002005613
94.89912,-0.0002004068
94.99912,-0.0002001996
95.09912,-0.0002000028
95.19912,-0.0001998663
95.29912,-0.0001996779
95.39912,-0.0001995037
95.49911,-0.0001992918
95.59911,-0.0001991195
95.69911,-0.0001989434
95.79911,-0.0001988275
95.89911,-0.0001986985
95.99911,-0.0001985026
96.09911,-0.0001983482
96.1991,-0.0001981551
96.2991,-0.0001979602
96.3991,-0.0001977992
96.4991,-0.0001976315
96.5991,-0.0001974611
96.6991,-0.0001973179
96.7991,-0.0001971164
96.89909,-0.0001969648
96.99909,-0.0001967755
97.09909,-0.000196622
97.19909,-0.0001964214
97.29909,-0.0001962632
97.39909,-0.0001960946
97.49908,-0.0001959129
97.59908,-0.0001957867
97.69908,-0.0001955917
97.79908,-0.0001954034
97.89908,-0.0001952819
97.99908,-0.00019507
98.09908,-0.0001948845
98.19907,-0.0001948233
98.29907,-0.0001946331
98.39907,-0.0001944165
98.49907,-0.0001942582
98.59907,-0.0001941415
98.69907,-0.0001939183
98.79906,-0.0001937638
98.89906,-0.000193631
98.99906,-0.0001934314
99.09906,-0.0001932817
99.19906,-0.0001931263
99.29906,-0.0001929295
99.39906,-0.0001928221
99.49905,-0.000192646
99.59905,-0.0001925377
99.69905,-0.0001924096
99.79905,-0.0001921921
99.89905,-0.000192
99.99905,-0.0001918644
100.099,-0.0001916713
100.199,-0.0001915103
100.299,-0.0001913869
100.399,-0.000191191
100.499,-0.000191014
100.599,-0.0001909057
100.699,-0.000190771
100.799,-0.0001906307
100.899,-0.00019048
100.999,-0.000190271
101.099,-0.0001901005
101.199,-0.0001899781
101.299,-0.0001898048
101.399,-0.0001896325
101.499,-0.0001895025
101.599,-0.0001893189
101.699,-0.0001892002
101.799,-0.0001890721
101.899,-0.0001888612
101.999,-0.0001886964
102.099,-0.0001885909
102.199,-0.0001884044
102.299,-0.0001882736
102.399,-0.0001880993
102.499,-0.0001879355
102.599,-0.0001878733
102.699,-0.0001877179
102.799,-0.0001876577
102.899,-0.0001874599
102.999,-0.0001872829
103.099,-0.0001871284
103.199,-0.0001869335
103.299,-0.0001868044
103.399,-0.0001866726
103.499,-0.0001864786
103.599,-0.0001863816
103.699,-0.0001862215
103.799,-0.000186019
103.899,-0.000185906
103.999,-0.0001857507
104.099,-0.0001856028
104.199,-0.0001855171
104.299,-0.0001853306
104.399,-0.0001851291
104.499,-0.0001849963
104.599,-0.0001848824
104.699,-0.0001847496
104.799,-0.0001845961
104.899,-0.0001843974
104.999,-0.0001841761
105.099,-0.0001840828
105.199,-0.0001839585
105.299,-0.0001838079
105.399,-0.0001836902
105.499,-0.0001835282
105.599,-0.0001833304
105.699,-0.0001832325
105.799,-0.0001830912
105.899,-0.0001829537
105.999,-0.0001828275
106.099,-0.0001827004
106.199,-0.0001824876
106.299,-0.000182383
106.3989,-0.0001822841
106.4989,-0.0001821551
106.5989,-0.0001819978
106.6989,-0.0001817954
106.7989,-0.0001816296
106.8989,-0.0001815524
106.9989,-0.0001813923
107.0989,-0.0001812727
107.1989,-0.0001811606
107.2989,-0.0001810448
107.3989,-0.0001808687
107.4989,-0.0001806954
107.5989,-0.0001805203
107.6989,-0.0001803574
107.7989,-0.0001802622
107.8989,-0.0001801323
107.9989,-0.0001799543
108.0989,-0.0001798083
108.1989,-0.0001796539
108.2989,-0.000179523
108.3989,-0.0001794655
108.4989,-0.000179297
108.5989,-0.0001791397
108.6989,-0.0001790229
108.7989,-0.0001788939
108.8989,-0.0001787206
108.9989,-0.0001785831
109.0989,-0.0001784136
109.1989,-0.0001782516
109.2989,-0.0001781452
109.3989,-0.0001779889
109.4989,-0.0001778467
109.5989,-0.000177794
109.6989,-0.0001776339
109.7989,-0.0001774596
109.8989,-0.000177308
109.9989,-0.0001771865
110.0989,-0.0001770585
110.1989,-0.000176969
110.2989,-0.0001768117
110.3989,-0.0001767063
110.4989,-0.000176581
110.5989,-0.000176435
110.6989,-0.0001763051
110.7989,-0.0001761233
110.8989,-0.0001759953
110.9989,-0.0001758681
111.0989,-0.0001757551
111.1989,-0.0001756007
111.2989,-0.0001754519
111.3989,-0.0001753172
111.4989,-0.0001751976
111.5989,-0.0001751016
111.6989,-0.0001749443
111.7989,-0.0001747729
111.8989,-0.000174658
111.9989,-0.0001745808
112.0989,-0.0001744103
112.1989,-0.0001743077
112.2989,-0.0001741984
112.3989,-0.0001740609
112.4989,-0.000173931
112.5989,-0.0001737794
112.6989,-0.0001736343
112.7989,-0.0001734761
112.8988,-0.0001733989
112.9988,-0.0001733038
113.0988,-0.0001731541
113.1988,-0.0001730119
113.2988,-0.0001728518
113.3988,-0.0001727614
113.4988,-0.0001726418
113.5988,-0.0001724666
113.6988,-0.0001724025
113.7988,-0.000172249
113.8988,-0.0001721068
113.9988,-0.0001720315
114.0988,-0.0001718375
114.1988,-0.0001717782
114.2988,-0.0001716087
114.3988,-0.0001714599
114.4988,-0.0001713422
114.5988,-0.0001712668
114.6988,-0.0001711689
114.7988,-0.0001710144
114.8988,-0.000170859
114.9988,-0.0001706924
115.0988,-0.000170569
115.1988,-0.0001704654
115.2988,-0.0001702902
115.3988,-0.0001701593
115.4988,-0.0001700897
115.5988,-0.0001699795
115.6988,-0.0001697949
115.7988,-0.0001696659
115.8988,-0.0001695096
115.9988,-0.0001694276
116.0988,-0.0001693316
116.1988,-0.0001691677
116.2988,-0.0001690538
116.3988,-0.0001689379
116.4988,-0.000168871
116.5988,-0.000168742
116.6988,-0.0001685791
116.7988,-0.0001684463
116.8988,-0.0001684435
116.9988,-0.0001682665
117.0988,-0.0001680951
117.1988,-0.0001680122
117.2988,-0.0001678775
117.3988,-0.0001677429
117.4988,-0.0001676082
117.5988,-0.0001674396
117.6988,-0.0001673718
117.7988,-0.0001672701
117.8988,-0.0001670997
117.9988,-0.0001669179
118.0988,-0.0001668124
118.1988,-0.0001667183
118.2988,-0.0001665732
118.3988,-0.0001664856
118.4988,-0.0001664141
118.5988,-0.0001662945
118.6988,-0.0001661466
118.7988,-0.0001659526
118.8988,-0.0001658688
118.9988,-0.000165802
119.0988,-0.0001656739
119.1988,-0.0001655496
119.2988,-0.0001653895
119.3988,-0.0001652379
119.4987,-0.0001651644
119.5987,-0.0001650307
119.6987,-0.0001649619
119.7987,-0.0001648433
119.8987,-0.0001646851
119.9987,-0.000164572
120.0987,-0.0001644704
120.1987,-0.0001643498
120.2987,-0.0001643074
120.3987,-0.000164137
120.4987,-0.0001639562
120.5987,-0.0001638507
120.6987,-0.0001637772
120.7987,-0.0001636802
120.8987,-0.0001635672
120.9987,-0.000163442
121.0987,-0.0001632932
121.1987,-0.0001632056
121.2987,-0.0001631001
121.3987,-0.0001629768
121.4987,-0.0001628882
121.5987,-0.0001627319
121.6987,-0.0001626114
121.7987,-0.0001624946
121.8987,-0.0001624372
121.9987,-0.000162229
122.0987,-0.0001621047
122.1987,-0.0001620331
122.2987,-0.0001619154
122.3987,-0.0001617808
122.4987,-0.0001616819
122.5987,-0.0001615811
122.6987,-0.0001615048
122.7987,-0.0001614474
122.8987,-0.0001613071
122.9987,-0.0001611592
123.0987,-0.0001610425
123.1987,-0.0001609398
123.2987,-0.0001607995
123.3987,-0.0001606997
123.4987,-0.0001605509
123.5987,-0.0001604397
123.6987,-0.0001603974
123.7987,-0.0001602439
123.8987,-0.0001601365
123.9987,-0.0001600753
124.0987,-0.0001599227
124.1987,-0.0001598078
124.2987,-0.0001597702
124.3987,-0.0001595668
124.4987,-0.0001594556
124.5987,-0.0001593784
124.6987,-0.0001592739
124.7987,-0.0001591628
124.8987,-0.0001590328
124.9987,-0.000158917
125.0987,-0.0001588548
125.1987,-0.0001587474
125.2987,-0.0001585713
125.3987,-0.0001584696
125.4987,-0.0001584056
125.5987,-0.0001582596
125.6987,-0.0001581155
125.7987,-0.0001580986
125.8987,-0.0001579611
125.9986,-0.0001578387
126.0986,-0.0001577681
126.1986,-0.0001575872
126.2986,-0.0001575496
126.3986,-0.0001575147
126.4986,-0.0001573904
126.5986,-0.0001572397
126.6986,-0.000157106
126.7986,-0.0001570043
126.8986,-0.0001568706
126.9986,-0.0001567745
127.0986,-0.0001566945
127.1986,-0.0001565579
127.2986,-0.000156475
127.3986,-0.0001563347
127.4986,-0.0001562688
127.5986,-0.0001561643
127.6986,-0.0001560786
127.7986,-0.0001559486
127.8986,-0.0001558168
127.9986,-0.0001556878
128.0986,-0.0001556143
128.1986,-0.0001554796
128.2986,-0.000155425
128.3986,-0.0001553035
128.4986,-0.0001552009
128.5986,-0.0001551048
128.6987,-0.0001549899
128.7987,-0.0001548835
128.8987,-0.0001548685
128.9987,-0.0001547809
129.0987,-0.0001545878
129.1987,-0.000154471
129.2987,-0.0001543882
129.3987,-0.0001543043
129.4987,-0.0001542394
129.5987,-0.0001540962
129.6987,-0.0001539625
129.7987,-0.000153873
129.8987,-0.0001537713
129.9987,-0.0001537045
130.0987,-0.0001536263
130.1987,-0.0001535133
130.2988,-0.0001533325
130.3988,-0.0001532929
130.4988,-0.0001532204
130.5988,-0.000153147
130.6988,-0.0001530208
130.7988,-0.0001528729
130.8988,-0.000152807
130.9988,-0.0001527364
131.0988,-0.0001526281
131.1988,-0.0001525151
131.2988,-0.0001525047
131.3988,-0.0001523973
131.4988,-0.0001522909
131.5988,-0.0001522203
131.6988,-0.0001520508
131.7988,-0.0001518964
131.8988,-0.0001518003
131.9989,-0.0001517513
132.0989,-0.0001516411
132.1989,-0.0001515799
132.2989,-0.0001514349
132.3989,-0.0001513012
132.4989,-0.0001512663
132.5989,-0.0001511788
132.6989,-0.0001510215
132.7989,-0.0001509047
132.8989,-0.0001507587
132.9989,-0.0001506617
133.0989,-0.0001506213
133.1989,-0.0001505045
133.2989,-0.0001504028
133.3989,-0.0001502926
133.4989,-0.0001502813
133.599,-0.0001501551
133.699,-0.0001500298
133.799,-0.000149962
133.899,-0.0001499018
133.999,-0.0001498
134.099,-0.0001496569
134.199,-0.0001495392
134.299,-0.0001494639
134.399,-0.0001493753
134.499,-0.000149299
134.599,-0.0001491776
134.699,-0.0001490476
134.799,-0.0001489412
134.899,-0.0001488527
134.999,-0.0001487886
135.099,-0.0001486879
135.1991,-0.0001486107
135.2991,-0.0001484713
135.3991,-0.0001483507
135.4991,-0.0001482933
135.5991,-0.0001482104
135.6991,-0.0001480974
135.7991,-0.0001480042
135.8991,-0.0001478883
135.9991,-0.0001478026
136.0991,-0.0001477452
136.1991,-0.0001476529
136.2991,-0.0001475616
136.3991,-0.0001474448
136.4991,-0.0001473506
136.5991,-0.0001472423
136.6991,-0.0001471708
136.7991,-0.0001470624
136.8992,-0.0001469457
136.9992,-0.0001468948
137.0992,-0.0001467941
137.1992,-0.0001467225
137.2992,-0.0001465925
137.3992,-0.0001464833
137.4992,-0.0001463948
137.5992,-0.000146342
137.6992,-0.000146262
137.7992,-0.0001461678
137.8992,-0.0001460303
137.9992,-0.0001459305
138.0992,-0.0001458438
138.1992,-0.0001457855
138.2992,-0.0001456828
138.3992,-0.0001455849
138.4993,-0.0001454634
138.5993,-0.0001453994
138.6993,-0.0001452958
138.7993,-0.0001452129
138.8993,-0.0001451263
138.9993,-0.0001450123
139.0993,-0.0001449153
139.1993,-0.0001448305
139.2993,-0.0001447486
139.3993,-0.0001446921
139.4993,-0.0001445961
139.5993,-0.0001444595
139.6993,-0.000144387
139.7993,-0.0001443277
139.8993,-0.0001442241
139.9993,-0.0001441365
140.0993,-0.0001440367
140.1994,-0.0001439434
140.2994,-0.0001438766
140.3994,-0.0001437636
140.4994,-0.0001436807
140.5994,-0.0001435828
140.6994,-0.0001434838
140.7994,-0.0001434227
140.8994,-0.0001432983
140.9994,-0.0001431947
141.0994,-0.0001431477
141.1994,-0.0001430356
141.2994,-0.0001429414
141.3994,-0.000142883
141.4994,-0.0001427663
141.5994,-0.0001426806
141.6994,-0.0001425902
141.7995,-0.0001425176
141.8995,-0.000142448
141.9995,-0.0001423557
142.0995,-0.0001422474
142.1995,-0.0001421513
142.2995,-0.0001420948
142.3995,-0.000142027
142.4995,-0.0001419517
142.5995,-0.0001418613
142.6995,-0.0001417831
142.7995,-0.0001416899
142.8995,-0.0001415994
142.9995,-0.0001415486
143.0995,-0.0001414243
143.1995,-0.0001413537
143.2995,-0.0001412425
143.3996,-0.0001411446
143.4996,-0.0001411098
143.5996,-0.0001409854
143.6996,-0.0001409082
143.7996,-0.0001408291
143.8996,-0.0001407255
143.9996,-0.000140621
144.0996,-0.0001405419
144.1996,-0.0001404873
144.2996,-0.0001403639
144.3996,-0.0001403149
144.4996,-0.0001402066
144.5996,-0.0001401153
144.6996,-0.0001400211
144.7996,-0.0001399081
144.8996,-0.0001398074
144.9996,-0.0001397556
145.0997,-0.0001396849
145.1997,-0.0001396124
145.2997,-0.0001395333
145.3997,-0.0001394919
145.4997,-0.0001393968
145.5997,-0.0001393431
145.6997,-0.0001392866
145.7997,-0.0001391924
145.8997,-0.0001391029
145.9997,-0.0001390247
146.0997,-0.0001389739
146.1997,-0.0001388807
146.2997,-0.0001388232
146.3997,-0.0001387357
146.4997,-0.0001386048
146.5997,-0.0001384786
146.6998,-0.0001384089
146.7998,-0.0001383298
146.8998,-0.0001382902
146.9998,-0.0001382111
147.0998,-0.0001381188
147.1998,-0.0001380303
147.2998,-0.0001379342
147.3998,-0.0001378693
147.4998,-0.0001377977
147.5998,-0.0001377111
147.6998,-0.0001376423
147.7998,-0.0001375594
147.8998,-0.0001374596
147.9998,-0.0001374219
148.0998,-0.0001373202
148.1998,-0.0001372703
148.2999,-0.0001372119
148.3999,-0.0001370679
148.4999,-0.0001370113
148.5999,-0.0001369191
148.6999,-0.000136807
148.7999,-0.0001367373
148.8999,-0.0001366601
148.9999,-0.0001365122
149.0999,-0.0001364604
149.1999,-0.0001364039
149.2999,-0.0001363324
149.3999,-0.0001362476
149.4999,-0.0001361836
149.5999,-0.0001360743
149.6999,-0.000135999
149.7999,-0.0001359227
149.8999,-0.0001358323
150,-0.0001357259
150.1,-0.0001356326
150.2,-0.0001355667
150.3,-0.0001355027
150.4,-0.0001354415
150.5,-0.0001353464
150.6,-0.00013524
150.7,-0.0001351505
150.8,-0.0001350921
150.9,-0.0001350149
151,-0.0001349461
151.1,-0.0001348633
151.2,-0.0001348727
151.3,-0.0001348124
151.4,-0.0001347182
151.5,-0.0001345798
151.6001,-0.000134496
151.7001,-0.0001344338
151.8001,-0.0001343293
151.9001,-0.00013427
152.0001,-0.0001341636
152.1001,-0.0001340703
152.2001,-0.0001340157
152.3001,-0.00013393
152.4001,-0.0001338782
152.5001,-0.0001338132
152.6001,-0.0001337209
152.7001,-0.0001336164
152.8001,-0.0001335618
152.9001,-0.0001335034
153.0001,-0.0001334469
153.1001,-0.0001333885
153.2001,-0.000133235
153.3002,-0.0001331361
153.4002,-0.0001331135
153.5002,-0.0001330401
153.6002,-0.00013296
153.7002,-0.0001328668
153.8002,-0.000132783
153.9002,-0.0001327076
154.0002,-0.0001326521
154.1002,-0.000132508
154.2002,-0.0001325146
154.3002,-0.0001325268
154.4002,-0.000132394
154.5002,-0.0001322867
154.6002,-0.0001321991
154.7002,-0.0001321266
154.8002,-0.0001320541
154.9003,-0.0001319797
155.0003,-0.0001318271
155.1003,-0.0001318648
155.2003,-0.0001318328
155.3003,-0.0001317894
155.4003,-0.000131683
155.5003,-0.0001316171
155.6003,-0.0001315569
155.7003,-0.000131393
155.8003,-0.0001313148
155.9003,-0.0001312075
156.0003,-0.0001311227
156.1003,-0.0001311622
156.2003,-0.0001310474
156.3003,-0.0001309268
156.4003,-0.0001309136
156.5004,-0.0001307988
156.6004,-0.0001307338
156.7004,-0.0001307281
156.8004,-0.0001305878
156.9004,-0.0001305398
157.0004,-0.000130471
157.1004,-0.0001303656
157.2004,-0.0001303364
157.3004,-0.0001302827
157.4004,-0.0001301744
157.5004,-0.0001301537
157.6004,-0.0001300651
157.7004,-0.0001299888
157.8004,-0.0001299144
157.9004,-0.0001298485
158.0004,-0.0001297515
158.1004,-0.0001297026
158.2005,-0.0001296498
158.3005,-0.0001295208
158.4005,-0.0001294285
158.5005,-0.0001293909
158.6005,-0.0001293296
158.7005,-0.0001293532
158.8005,-0.0001292025
158.9005,-0.0001290631
159.0005,-0.0001289859
159.1005,-0.0001289511
159.2005,-0.000128855
159.3005,-0.0001287524
159.4005,-0.0001286855
159.5005,-0.0001286111
159.6005,-0.0001285659
159.7005,-0.0001285367
159.8006,-0.0001284397
159.9006,-0.0001283531
160.0006,-0.0001282843
160.1006,-0.0001282306
160.2006,-0.0001281534
160.3006,-0.0001280743
160.4006,-0.0001279858
160.5006,-0.0001279227
160.6006,-0.0001278558
160.7006,-0.0001277748
160.8006,-0.0001277306
160.9006,-0.0001276957
161.0006,-0.0001276119
161.1006,-0.0001275385
161.2006,-0.0001275083
161.3006,-0.0001274208
161.4007,-0.0001273605
161.5007,-0.0001273059
161.6007,-0.0001272409
161.7007,-0.0001271881
161.8007,-0.0001271185
161.9007,-0.0001270167
162.0007,-0.0001269791
162.1007,-0.0001269198
162.2007,-0.0001268444
162.3007,-0.0001267776
162.4007,-0.0001266749
162.5007,-0.0001266071
162.6007,-0.0001265807
162.7007,-0.0001265336
162.8007,-0.0001264602
162.9007,-0.0001263679
163.0007,-0.0001262775
163.1008,-0.0001262097
163.2008,-0.0001261061
163.3008,-0.0001260703
163.4008,-0.0001259893
163.5008,-0.0001259168
163.6008,-0.0001258518
163.7008,-0.0001257878
163.8008,-0.0001257416
163.9008,-0.0001256569
164.0008,-0.0001256107
164.1008,-0.0001255401
164.2008,-0.0001254732
164.3008,-0.0001254271
164.4008,-0.0001253442
164.5008,-0.0001252359
164.6008,-0.0001252171
164.7009,-0.0001251606
164.8009,-0.0001250608
164.9009,-0.000125025
165.0009,-0.0001249252
165.1009,-0.0001248432
165.2009,-0.0001247999
165.3009,-0.0001247302
165.4009,-0.0001247076
165.5009,-0.0001246153
165.6009,-0.0001245099
165.7009,-0.0001244242
165.8009,-0.0001244016
165.9009,-0.000124346
166.0009,-0.0001242481
166.1009,-0.0001241963
166.2009,-0.0001240983
166.3009,-0.0001240804
166.401,-0.0001240343
166.501,-0.0001239307
166.601,-0.0001238582
166.701,-0.0001238921
166.801,-0.0001237913
166.901,-0.000123668
167.001,-0.0001236114
167.101,-0.0001235361
167.201,-0.0001234513
167.301,-0.0001234401
167.401,-0.000123327
167.501,-0.0001232743
167.601,-0.0001232498
167.701,-0.0001231557
167.801,-0.0001231057
167.901,-0.0001230897
168.0011,-0.0001230163
168.1011,-0.0001228449
168.2011,-0.0001227931
168.3011,-0.00012273
168.4011,-0.0001226772
168.5011,-0.0001226565
168.6011,-0.0001225548
168.7011,-0.0001224635
168.8011,-0.0001224164
168.9011,-0.0001223571
169.0011,-0.0001222751
169.1011,-0.0001222742
169.2011,-0.0001222026
169.3011,-0.0001220915
169.4011,-0.0001220284
169.5011,-0.0001219851
169.6012,-0.0001219502
169.7012,-0.0001219069
169.8012,-0.0001218118
169.9012,-0.0001217336
170.0012,-0.0001216715
170.1012,-0.0001215707
170.2012,-0.0001215161
170.3012,-0.0001214643
170.4012,-0.0001214003
170.5012,-0.0001214069
170.6012,-0.0001213089
170.7012,-0.0001211498
170.8012,-0.0001210848
170.9012,-0.0001210537
171.0012,-0.0001210057
171.1012,-0.0001209237
171.2012,-0.0001208738
171.3013,-0.0001207768
171.4013,-0.0001207354
171.5013,-0.0001207298
171.6013,-0.0001206252
171.7013,-0.0001205565
171.8013,-0.0001205367
171.9013,-0.0001204642
172.0013,-0.0001204548
172.1013,-0.0001203936
172.2013,-0.0001202655
172.3013,-0.0001201892
172.4013,-0.000120224
172.5013,-0.0001201082
172.6013,-0.0001200244
172.7013,-0.0001199688
172.8013,-0.0001199001
172.9014,-0.0001198455
173.0014,-0.0001198069
173.1014,-0.0001196957
173.2014,-0.0001197089
173.3014,-0.00011974
173.4014,-0.0001196298
173.5014,-0.0001195516
173.6014,-0.0001195356
173.7014,-0.0001194782
173.8014,-0.0001193793
173.9014,-0.0001193322
174.0014,-0.0001192635
174.1014,-0.0001193002
174.2014,-0.0001193002
174.3014,-0.0001192785
174.4014,-0.0001191156
174.5014,-0.0001190572
174.6015,-0.0001190601
174.7015,-0.0001189282
174.8015,-0.0001188774
174.9015,-0.0001187813
175.0015,-0.0001187201
175.1015,-0.0001187135
175.2015,-0.0001185883
175.3015,-0.0001184988
175.4015,-0.0001184687
175.5015,-0.0001184056
175.6015,-0.0001183321
175.7015,-0.0001183255
175.8015,-0.0001182182
175.9015,-0.000118172
176.0015,-0.0001181635
176.1015,-0.0001180618
176.2016,-0.0001180279
176.3016,-0.0001179997
176.4016,-0.0001179488
176.5016,-0.0001178923
176.6016,-0.0001178471
176.7016,-0.0001177699
176.8016,-0.0001176757
176.9016,-0.0001176267
177.0016,-0.0001175382
177.1016,-0.0001175307
177.2016,-0.0001174732
177.3016,-0.0001173951
177.4016,-0.0001173207
177.5016,-0.0001172858
177.6016,-0.0001172162
177.7016,-0.0001172143
177.8017,-0.0001171418
177.9017,-0.0001170193
178.0017,-0.0001169826
178.1017,-0.0001169035
178.2017,-0.0001168413
178.3017,-0.0001167943
178.4017,-0.000116733
178.5017,-0.0001166944
178.6017,-0.0001166031
178.7017,-0.0001165437
178.8017,-0.0001165155
178.9017,-0.0001164166
179.0017,-0.0001163526
179.1017,-0.0001163017
179.2017,-0.0001162245
179.3017,-0.0001162075
179.4017,-0.0001161539
179.5018,-0.0001160418
179.6018,-0.0001159825
179.7018,-0.000115975
179.8018,-0.0001158892
179.9018,-0.0001158488
180.0018,-0.0001158572
180.1018,-0.0001157584
180.2018,-0.0001156642
180.3018,-0.0001156133
180.4018,-0.0001155144
180.5018,-0.0001154382
180.6018,-0.000115409
180.7018,-0.0001153534
180.8018,-0.0001153882
180.9018,-0.0001152479
181.0018,-0.0001151811
181.1019,-0.000115134
181.2019,-0.0001150615
181.3019,-0.0001150078
181.4019,-0.0001149438
181.5019,-0.0001148938
181.6019,-0.0001148533
181.7019,-0.0001147667
181.8019,-0.0001146998
181.9019,-0.0001146264
182.0019,-0.000114601
182.1019,-0.0001145369
182.2019,-0.0001144804
182.3019,-0.0001143947
182.4019,-0.0001143495
182.5019,-0.0001143015
182.6019,-0.000114213
182.702,-0.0001142111
182.802,-0.0001141499
182.902,-0.0001140453
183.002,-0.0001139964
183.102,-0.0001139917
183.202,-0.0001139041
183.302,-0.0001138561
183.402,-0.0001137807
183.502,-0.0001136903
183.602,-0.0001136423
183.702,-0.0001135801
183.802,-0.000113534
183.902,-0.0001134982
184.002,-0.00011342
184.102,-0.0001133325
184.202,-0.0001133259
184.302,-0.0001132628
184.4021,-0.0001131752
184.5021,-0.0001131187
184.6021,-0.0001130716
184.7021,-0.0001129981
184.8021,-0.0001129699
184.9021,-0.0001129143
185.0021,-0.0001128418
185.1021,-0.0001127731
185.2021,-0.0001127288
185.3021,-0.0001126676
185.4021,-0.0001126139
185.5021,-0.0001125593
185.6021,-0.0001124896
185.7021,-0.000112451
185.8021,-0.0001124143
185.9021,-0.0001123719
186.0022,-0.0001122777
186.1022,-0.0001122156
186.2022,-0.0001121572
186.3022,-0.0001121685
186.4022,-0.0001120837
186.5022,-0.0001119971
186.6022,-0.0001119199
186.7022,-0.0001118718
186.8022,-0.0001118417
186.9022,-0.0001117946
187.0022,-0.0001116543
187.1022,-0.000111692
187.2022,-0.0001116995
187.3022,-0.0001116053
187.4022,-0.0001115111
187.5022,-0.0001114368
187.6022,-0.0001113821
187.7023,-0.000111335
187.8023,-0.0001112701
187.9023,-0.0001111947
188.0023,-0.0001111297
188.1023,-0.0001111326
188.2023,-0.0001110525
188.3023,-0.0001109668
188.4023,-0.0001109329
188.5023,-0.0001109018
188.6023,-0.0001108839
188.7023,-0.000110803
188.8023,-0.000110721
188.9023,-0.0001107003
189.0023,-0.0001106504
189.1023,-0.0001105807
189.2023,-0.0001104978
189.3024,-0.0001104715
189.4024,-0.0001104856
189.5024,-0.0001103745
189.6024,-0.0001102841
189.7024,-0.0001102115
189.8024,-0.0001101965
189.9024,-0.0001101937
190.0024,-0.0001101221
190.1024,-0.0001100317
190.2024,-0.000109978
190.3024,-0.0001099356
190.4024,-0.0001098772
190.5024,-0.0001098452
190.6024,-0.0001097821
190.7024,-0.000109736
190.8024,-0.0001097096
190.9025,-0.0001096729
191.0025,-0.0001096013
191.1025,-0.0001095382
191.2025,-0.0001095006
191.3025,-0.0001094469
191.4025,-0.0001093847
191.5025,-0.0001093621
191.6025,-0.0001092896
191.7025,-0.0001092303
191.8025,-0.0001092067
191.9025,-0.000109138
192.0025,-0.0001090579
192.1025,-0.000109024
192.2025,-0.0001089892
192.3025,-0.0001089468
192.4025,-0.0001089214
192.5025,-0.0001088376
192.6026,-0.0001087698
192.7026,-0.0001087029
192.8026,-0.0001086982
192.9026,-0.0001086059
193.0026,-0.0001085456
193.1026,-0.0001084948
193.2026,-0.0001084741
193.3026,-0.0001084279
193.4026,-0.0001083215
193.5026,-0.0001082829
193.6026,-0.0001082754
193.7026,-0.0001082217
193.8026,-0.0001082113
193.9026,-0.0001081313
194.0026,-0.0001080672
194.1026,-0.0001079872
194.2027,-0.0001079589
194.3027,-0.000107877
194.4027,-0.0001078111
194.5027,-0.0001077678
194.6027,-0.0001077235
194.7027,-0.0001076821
194.8027,-0.000107635
194.9027,-0.0001075587
195.0027,-0.0001075352
195.1027,-0.0001075333
195.2027,-0.0001074495
195.3027,-0.0001073412
195.4027,-0.0001073091
195.5027,-0.0001072865
195.6027,-0.0001072376
195.7027,-0.0001071952
195.8027,-0.0001071387
195.9028,-0.0001071302
196.0028,-0.0001070775
196.1028,-0.0001070097
196.2028,-0.0001069494
196.3028,-0.0001069089
196.4028,-0.0001068345
196.5028,-0.0001068128
196.6028,-0.000106778
196.7028,-0.0001066838
196.8028,-0.0001066038
196.9028,-0.0001066141
197.0028,-0.0001065765
197.1028,-0.0001065162
197.2028,-0.0001064701
197.3028,-0.0001063862
197.4028,-0.0001063731
197.5029,-0.0001063467
197.6029,-0.0001063081
197.7029,-0.0001062497
197.8029,-0.0001061678
197.9029,-0.0001061075
198.0029,-0.0001060604
198.1029,-0.0001060133
198.2029,-0.000105986
198.3029,-0.0001059389
198.4029,-0.0001058824
198.5029,-0.0001058024
198.6029,-0.0001057515
198.7029,-0.0001057139
198.8029,-0.000105663
198.9029,-0.0001056244
199.0029,-0.0001056065
199.103,-0.0001055406
199.203,-0.0001054605
199.303,-0.0001054323
199.403,-0.0001053974
199.503,-0.0001053353
199.603,-0.0001053042
199.703,-0.0001052449
199.803,-0.0001051789
199.903,-0.0001051667
200.003,-0.0001051064
200.103,-0.0001050565
200.203,-0.0001050019
200.303,-0.0001049275
200.403,-0.0001049143
200.503,-0.0001048832
200.603,-0.0001048239
200.703,-0.0001047354
200.8031,-0.0001047118
200.9031,-0.0001046582
201.0031,-0.0001046045
201.1031,-0.0001045838
201.2031,-0.0001045216
201.3031,-0.0001044689
201.4031,-0.0001044425
201.5031,-0.0001043747
201.6031,-0.0001043182
201.7031,-0.0001042815
201.8031,-0.0001042212
201.9031,-0.0001042042
202.0031,-0.0001041496
202.1031,-0.0001040771
202.2031,-0.0001040489
202.3031,-0.0001040357
202.4032,-0.0001039481
202.5032,-0.0001038982
202.6032,-0.0001038972
202.7032,-0.0001038888
202.8032,-0.0001038285
202.9032,-0.000103755
203.0032,-0.0001036919
203.1032,-0.0001036166
203.2032,-0.000103627
203.3032,-0.0001035789
203.4032,-0.0001035206
203.5032,-0.0001034641
203.6032,-0.0001034264
203.7032,-0.0001034
203.8032,-0.0001033539
203.9032,-0.0001032757
204.0033,-0.0001032135
204.1033,-0.0001031956
204.2033,-0.0001031448
204.3033,-0.0001031175
204.4033,-0.0001030657
204.5033,-0.0001029631
204.6033,-0.0001029857
204.7033,-0.000102964
204.8033,-0.0001029065
204.9033,-0.0001028321
205.0033,-0.0001027719
205.1033,-0.0001027389
205.2033,-0.000102672
205.3033,-0.0001026523
205.4033,-0.0001025986
205.5033,-0.0001025346
205.6033,-0.0001025176
205.7034,-0.0001024347
205.8034,-0.0001024065
205.9034,-0.000102382
206.0034,-0.0001023594
206.1034,-0.0001022812
206.2034,-0.0001022407
206.3034,-0.0001021899
206.4034,-0.0001021692
206.5034,-0.0001021334
206.6034,-0.0001020778
206.7034,-0.0001020194
206.8034,-0.0001019959
206.9034,-0.0001019224
207.0034,-0.0001018574
207.1034,-0.0001018283
207.2034,-0.0001017369
207.3035,-0.0001017284
207.4035,-0.0001017105
207.5035,-0.0001016296
207.6035,-0.0001015815
207.7035,-0.0001015448
207.8035,-0.0001014996
207.9035,-0.0001014751
208.0035,-0.0001014139
208.1035,-0.0001013659
208.2035,-0.0001013348
208.3035,-0.000101331
208.4035,-0.0001013084
208.5035,-0.0001012171
208.6035,-0.0001011691
208.7035,-0.0001011201
208.8035,-0.0001010824
208.9035,-0.0001010278
209.0036,-0.0001009732
209.1036,-0.0001009722
209.2036,-0.0001009364
209.3036,-0.0001008724
209.4036,-0.0001008526
209.5036,-0.0001007754
209.6036,-0.0001007566
209.7036,-0.0001006784
209.8036,-0.0001006247
209.9036,-0.0001005946
210.0036,-0.0001005729
210.1036,-0.0001005343
210.2036,-0.0001004364
210.3036,-0.0001004044
210.4036,-0.0001004354
210.5036,-0.0001003695
210.6037,-0.0001002998
210.7037,-0.0001002273
210.8037,-0.0001001896
210.9037,-0.0001001614
211.0037,-0.0001001379
211.1037,-0.0001000682
211.2037,-0.0001000013
211.3037,-9.999188E-05
211.4037,-9.993444E-05
211.5037,-9.989865E-05
211.6037,-9.985816E-05
211.7037,-9.97913E-05
211.8037,-9.979036E-05
211.9037,-9.976399E-05
212.0037,-9.967452E-05
212.1037,-9.960953E-05
212.2038,-9.961708E-05
212.3038,-9.955303E-05
212.4038,-9.952008E-05
212.5038,-9.951161E-05
212.6038,-9.942026E-05
212.7038,-9.937599E-05
212.8038,-9.935716E-05
212.9038,-9.929123E-05
213.0038,-9.925827E-05
213.1038,-9.921684E-05
213.2038,-9.916128E-05
213.3038,-9.912643E-05
213.4038,-9.90671E-05
213.5038,-9.904638E-05
213.6038,-9.897011E-05
213.7038,-9.893055E-05
213.8038,-9.888253E-05
213.9039,-9.885144E-05
214.0039,-9.88392E-05
214.1039,-9.883638E-05
214.2039,-9.876198E-05
214.3039,-9.869606E-05
214.4039,-9.865463E-05
214.5039,-9.862638E-05
214.6039,-9.859059E-05
214.7039,-9.856798E-05
214.8039,-9.850583E-05
214.9039,-9.846251E-05
215.0039,-9.840318E-05
215.1039,-9.835421E-05
215.2039,-9.83222E-05
215.3039,-9.830713E-05
215.4039,-9.822802E-05
215.504,-9.818187E-05
215.604,-9.816304E-05
215.704,-9.811313E-05
215.804,-9.808959E-05
215.904,-9.806604E-05
216.004,-9.800859E-05
216.104,-9.795492E-05
216.204,-9.791348E-05
216.304,-9.787676E-05
216.404,-9.782214E-05
216.504,-9.781837E-05
216.604,-9.773362E-05
216.704,-9.767993E-05
216.804,-9.763379E-05
216.904,-9.759895E-05
217.004,-9.754056E-05
217.104,-9.75189E-05
217.2041,-9.746993E-05
217.3041,-9.742002E-05
217.4041,-9.740495E-05
217.5041,-9.735786E-05
217.6041,-9.729571E-05
217.7041,-9.72392E-05
217.8041,-9.722037E-05
217.9041,-9.717611E-05
218.0041,-9.716198E-05
218.1041,-9.709418E-05
218.2041,-9.704615E-05
218.3041,-9.701225E-05
218.4041,-9.698494E-05
218.5041,-9.694256E-05
218.6041,-9.687946E-05
218.7041,-9.683615E-05
218.8042,-9.679471E-05
218.9042,-9.678341E-05
219.0042,-9.672125E-05
219.1042,-9.669677E-05
219.2042,-9.666287E-05
219.3042,-9.660541E-05
219.4042,-9.655362E-05
219.5042,-9.651125E-05
219.6042,-9.649147E-05
219.7042,-9.643684E-05
219.8042,-9.641425E-05
219.9042,-9.633514E-05
220.0042,-9.632477E-05
220.1042,-9.626357E-05
220.2042,-9.622119E-05
220.3042,-9.621837E-05
220.4043,-9.620895E-05
220.5043,-9.608181E-05
220.6043,-9.608088E-05
220.7043,-9.607051E-05
220.8043,-9.603567E-05
220.9043,-9.59528E-05
221.0043,-9.593867E-05
221.1043,-9.588688E-05
221.2043,-9.585486E-05
221.3043,-9.581813E-05
221.4043,-9.574844E-05
221.5043,-9.57136E-05
221.6043,-9.568064E-05
221.7043,-9.564956E-05
221.8043,-9.560154E-05
221.9043,-9.555538E-05
222.0043,-9.551207E-05
222.1044,-9.547628E-05
222.2044,-9.54452E-05
222.3044,-9.542731E-05
222.4044,-9.538682E-05
222.5044,-9.532466E-05
222.6044,-9.528228E-05
222.7044,-9.522954E-05
222.8044,-9.518811E-05
222.9044,-9.513631E-05
223.0044,-9.51043E-05
223.1044,-9.508075E-05
223.2044,-9.502237E-05
223.3044,-9.500353E-05
223.4044,-9.498564E-05
223.5044,-9.490841E-05
223.6044,-9.485191E-05
223.7045,-9.48359E-05
223.8045,-9.483025E-05
223.9045,-9.479447E-05
224.0045,-9.474267E-05
224.1045,-9.468052E-05
224.2045,-9.463343E-05
224.3045,-9.461554E-05
224.4045,-9.456751E-05
224.5045,-9.452137E-05
224.6045,-9.447899E-05
224.7045,-9.446863E-05
224.8045,-9.442437E-05
224.9045,-9.43867E-05
225.0045,-9.430382E-05
225.1045,-9.428688E-05
225.2045,-9.429159E-05
225.3046,-9.424544E-05
225.4046,-9.421624E-05
225.5046,-9.413997E-05
225.6046,-9.409853E-05
225.7046,-9.40957E-05
225.8046,-9.403825E-05
225.9046,-9.399212E-05
226.0046,-9.397046E-05
226.1046,-9.392713E-05
226.2046,-9.386498E-05
226.3046,-9.38226E-05
226.4046,-9.378211E-05
226.5046,-9.371995E-05
226.6046,-9.368511E-05
226.7046,-9.366816E-05
226.8046,-9.362578E-05
226.9046,-9.357398E-05
227.0047,-9.354856E-05
227.1047,-9.350712E-05
227.2047,-9.3493E-05
227.3047,-9.346475E-05
227.4047,-9.34073E-05
227.5047,-9.33442E-05
227.6047,-9.333291E-05
227.7047,-9.330089E-05
227.8047,-9.327075E-05
227.9047,-9.322366E-05
228.0047,-9.315586E-05
228.1047,-9.312572E-05
228.2047,-9.311066E-05
228.3047,-9.309747E-05
228.4047,-9.306357E-05
228.5047,-9.300047E-05
228.6048,-9.293738E-05
228.7048,-9.293267E-05
228.8048,-9.289782E-05
228.9048,-9.283001E-05
229.0048,-9.278952E-05
229.1048,-9.276504E-05
229.2048,-9.271607E-05
229.3048,-9.269724E-05
229.4048,-9.266144E-05
229.5048,-9.257763E-05
229.6048,-9.256916E-05
229.7048,-9.252019E-05
229.8048,-9.249194E-05
229.9048,-9.246275E-05
230.0048,-9.240436E-05
230.1048,-9.235444E-05
230.2048,-9.234974E-05
230.3049,-9.231018E-05
230.4049,-9.224426E-05
230.5049,-9.223766E-05
230.6049,-9.215291E-05
230.7049,-9.212372E-05
230.8049,-9.213219E-05
230.9049,-9.207004E-05
231.0049,-9.206063E-05
231.1049,-9.2006E-05
231.2049,-9.19608E-05
231.3049,-9.192031E-05
231.4049,-9.185909E-05
231.5049,-9.181294E-05
231.6049,-9.176115E-05
231.7049,-9.176022E-05
231.8049,-9.169994E-05
231.905,-9.165944E-05
232.005,-9.164344E-05
232.105,-9.160199E-05
232.205,-9.156433E-05
232.305,-9.150688E-05
232.405,-9.145697E-05
232.505,-9.143814E-05
232.605,-9.139765E-05
232.705,-9.136751E-05
232.805,-9.13176E-05
232.905,-9.128275E-05
233.005,-9.123755E-05
233.105,-9.120929E-05
233.205,-9.118481E-05
233.305,-9.114902E-05
233.405,-9.110194E-05
233.5051,-9.10605E-05
233.6051,-9.10266E-05
233.7051,-9.097951E-05
233.8051,-9.094091E-05
233.9051,-9.091265E-05
234.0051,-9.090323E-05
234.1051,-9.08326E-05
234.2051,-9.083449E-05
234.3051,-9.076198E-05
234.4051,-9.072525E-05
234.5051,-9.072807E-05
234.6051,-9.06791E-05
234.7051,-9.064237E-05
234.8051,-9.063578E-05
234.9051,-9.061318E-05
235.0051,-9.055103E-05
235.1051,-9.053596E-05
235.2052,-9.047098E-05
235.3052,-9.040506E-05
235.4052,-9.043519E-05
235.5052,-9.036362E-05
235.6052,-9.032407E-05
235.7052,-9.027321E-05
235.8052,-9.022048E-05
235.9052,-9.018375E-05
236.0052,-9.017716E-05
236.1052,-9.01442E-05
236.2052,-9.007357E-05
236.3052,-9.005285E-05
236.4052,-9.001706E-05
236.5052,-9.000764E-05
236.6052,-8.99907E-05
236.7052,-8.991065E-05
236.8053,-8.986545E-05
236.9053,-8.98645E-05
237.0053,-8.983343E-05
237.1053,-8.979859E-05
237.2053,-8.972984E-05
237.3053,-8.968652E-05
237.4053,-8.968275E-05
237.5053,-8.966579E-05
237.6053,-8.963472E-05
237.7053,-8.958481E-05
237.8053,-8.95641E-05
237.9053,-8.951701E-05
238.0053,-8.947651E-05
238.1053,-8.944733E-05
238.2053,-8.938893E-05
238.3053,-8.935409E-05
238.4053,-8.933526E-05
238.5054,-8.925239E-05
238.6054,-8.92439E-05
238.7054,-8.92439E-05
238.8054,-8.92279E-05
238.9054,-8.917987E-05
239.0054,-8.911301E-05
239.1054,-8.910829E-05
239.2054,-8.908099E-05
239.3054,-8.903202E-05
239.4054,-8.903202E-05
239.5054,-8.895668E-05
239.6054,-8.888604E-05
239.7054,-8.882012E-05
239.8054,-8.878433E-05
239.9054,-8.878057E-05
240.0054,-8.876456E-05
240.1055,-8.870335E-05
240.2055,-8.866285E-05
240.3055,-8.863555E-05
240.4055,-8.861671E-05
240.5055,-8.858187E-05
240.6055,-8.852254E-05
240.7055,-8.850465E-05
240.8055,-8.847922E-05
240.9055,-8.843779E-05
241.0055,-8.838504E-05
241.1055,-8.838787E-05
241.2055,-8.833137E-05
241.3055,-8.831253E-05
241.4055,-8.828522E-05
241.5055,-8.823154E-05
241.6055,-8.817127E-05
241.7056,-8.817786E-05
241.8056,-8.814302E-05
241.9056,-8.813455E-05
242.0056,-8.806957E-05
242.1056,-8.803284E-05
242.2056,-8.798764E-05
242.3056,-8.800082E-05
242.4056,-8.793678E-05
242.5056,-8.789723E-05
242.6056,-8.788122E-05
242.7056,-8.785297E-05
242.8056,-8.780965E-05
242.9056,-8.778045E-05
243.0056,-8.772112E-05
243.1056,-8.769381E-05
243.2056,-8.770888E-05
243.3056,-8.765709E-05
243.4057,-8.75987E-05
243.5057,-8.756009E-05
243.6057,-8.752242E-05
243.7057,-8.751865E-05
243.8057,-8.74904E-05
243.9057,-8.744708E-05
244.0057,-8.737457E-05
244.1057,-8.735667E-05
244.2057,-8.732654E-05
244.3057,-8.729735E-05
244.4057,-8.72964E-05
244.5057,-8.7222E-05
244.6057,-8.719187E-05
244.7057,-8.717775E-05
244.8057,-8.71655E-05
244.9057,-8.712501E-05
245.0058,-8.708545E-05
245.1058,-8.70525E-05
245.2058,-8.699788E-05
245.3058,-8.700069E-05
245.4058,-8.692442E-05
245.5058,-8.690464E-05
245.6058,-8.687827E-05
245.7058,-8.683684E-05
245.8058,-8.68133E-05
245.9058,-8.677939E-05
246.0058,-8.673607E-05
246.1058,-8.669181E-05
246.2058,-8.669558E-05
246.3058,-8.662589E-05
246.4058,-8.65967E-05
246.5058,-8.657504E-05
246.6059,-8.649404E-05
246.7059,-8.654772E-05
246.8059,-8.654772E-05
246.9059,-8.650441E-05
247.0059,-8.643849E-05
247.1059,-8.63914E-05
247.2059,-8.638292E-05
247.3059,-8.633867E-05
247.4059,-8.632454E-05
247.5059,-8.628969E-05
247.6059,-8.62492E-05
247.7059,-8.625109E-05
247.8059,-8.617763E-05
247.9059,-8.613054E-05
248.0059,-8.612771E-05
248.1059,-8.608157E-05
248.2059,-8.60552E-05
248.306,-8.603637E-05
248.406,-8.597891E-05
248.506,-8.5913E-05
248.606,-8.597515E-05
248.706,-8.59064E-05
248.806,-8.586968E-05
248.906,-8.582637E-05
249.006,-8.579245E-05
249.106,-8.575479E-05
249.206,-8.574914E-05
249.306,-8.569829E-05
249.406,-8.568133E-05
249.506,-8.565591E-05
249.606,-8.562577E-05
249.706,-8.557116E-05
249.806,-8.556173E-05
249.9061,-8.552124E-05
250.0061,-8.546191E-05
250.1061,-8.547133E-05
250.2061,-8.541576E-05
250.3061,-8.537528E-05
250.4061,-8.535833E-05
250.5061,-8.53668E-05
250.6061,-8.533007E-05
250.7061,-8.527357E-05
250.8061,-8.52293E-05
250.9061,-8.521329E-05
251.0061,-8.519257E-05
251.1061,-8.517468E-05
251.2061,-8.513043E-05
251.3061,-8.509087E-05
251.4061,-8.505696E-05
251.5061,-8.501176E-05
251.6062,-8.499198E-05
251.7062,-8.495244E-05
251.8062,-8.490629E-05
251.9062,-8.488934E-05
252.0062,-8.48592E-05
252.1062,-8.480834E-05
252.2062,-8.478952E-05
252.3062,-8.474337E-05
252.4062,-8.471417E-05
252.5062,-8.471795E-05
252.6062,-8.46492E-05
252.7062,-8.462942E-05
252.8062,-8.460023E-05
252.9062,-8.456255E-05
253.0062,-8.451264E-05
253.1062,-8.449287E-05
253.2063,-8.445426E-05
253.3063,-8.441188E-05
253.4063,-8.440905E-05
253.5063,-8.435631E-05
253.6063,-8.432242E-05
253.7063,-8.429134E-05
253.8063,-8.428945E-05
253.9063,-8.421129E-05
254.0063,-8.418869E-05
254.1063,-8.416137E-05
254.2063,-8.41416E-05
254.3063,-8.413407E-05
254.4063,-8.40625E-05
254.5063,-8.402199E-05
254.6063,-8.402106E-05
254.7063,-8.399186E-05
254.8064,-8.394101E-05
254.9064,-8.38977E-05
255.0064,-8.387697E-05
255.1064,-8.383554E-05
255.2064,-8.382141E-05
255.3064,-8.379787E-05
255.4064,-8.373195E-05
255.5064,-8.369805E-05
255.6064,-8.365661E-05
255.7064,-8.366226E-05
255.8064,-8.365096E-05
255.9064,-8.360387E-05
256.0064,-8.355302E-05
256.1064,-8.352665E-05
256.2064,-8.349652E-05
256.3064,-8.345037E-05
256.4064,-8.342871E-05
256.5064,-8.338351E-05
256.6064,-8.33449E-05
256.7065,-8.336467E-05
256.8065,-8.331665E-05
256.9065,-8.325544E-05
257.0065,-8.324414E-05
257.1065,-8.320082E-05
257.2065,-8.317632E-05
257.3065,-8.317821E-05
257.4065,-8.312924E-05
257.5065,-8.307839E-05
257.6065,-8.306897E-05
257.7065,-8.30605E-05
257.8065,-8.302942E-05
257.9065,-8.296256E-05
258.0065,-8.293902E-05
258.1065,-8.290982E-05
258.2065,-8.292488E-05
258.3065,-8.285708E-05
258.4066,-8.280716E-05
258.5066,-8.279681E-05
258.6066,-8.277327E-05
258.7066,-8.273371E-05
258.8066,-8.270075E-05
258.9066,-8.266309E-05
259.0066,-8.263107E-05
259.1066,-8.265273E-05
259.2066,-8.259245E-05
259.3066,-8.253972E-05
259.4066,-8.253218E-05
259.5066,-8.250393E-05
259.6066,-8.250205E-05
259.7066,-8.246815E-05
259.8066,-8.241729E-05
259.9066,-8.236361E-05
260.0067,-8.236078E-05
260.1067,-8.236078E-05
260.2067,-8.233348E-05
260.3067,-8.22845E-05
260.4067,-8.224401E-05
260.5067,-8.224778E-05
260.6067,-8.223649E-05
260.7067,-8.220352E-05
260.8067,-8.213666E-05
260.9067,-8.210934E-05
261.0067,-8.20924E-05
261.1067,-8.205755E-05
261.2067,-8.204813E-05
261.3067,-8.197468E-05
261.4067,-8.195396E-05
261.5067,-8.195209E-05
261.6068,-8.190123E-05
261.7068,-8.185885E-05
261.8068,-8.181459E-05
261.9068,-8.181647E-05
262.0068,-8.178257E-05
262.1068,-8.17449E-05
262.2068,-8.170911E-05
262.3068,-8.172418E-05
262.4068,-8.171194E-05
262.5068,-8.167521E-05
262.6068,-8.163754E-05
262.7068,-8.156314E-05
262.8068,-8.157067E-05
262.9068,-8.152547E-05
263.0068,-8.147651E-05
263.1068,-8.144449E-05
263.2068,-8.140023E-05
263.3069,-8.140117E-05
263.4069,-8.134748E-05
263.5069,-8.133525E-05
263.6069,-8.129287E-05
263.7069,-8.129098E-05
263.8069,-8.128251E-05
263.9069,-8.124107E-05
264.0069,-8.119399E-05
264.1069,-8.117797E-05
264.2069,-8.117704E-05
264.3069,-8.113655E-05
264.4069,-8.108286E-05
264.5069,-8.104424E-05
264.6069,-8.104331E-05
264.7069,-8.100469E-05
264.8069,-8.097738E-05
264.907,-8.093972E-05
265.007,-8.088887E-05
265.107,-8.089546E-05
265.207,-8.084743E-05
265.307,-8.081352E-05
265.407,-8.081164E-05
265.507,-8.076267E-05
265.607,-8.071936E-05
265.707,-8.068356E-05
265.807,-8.068734E-05
265.907,-8.065908E-05
266.007,-8.062235E-05
266.107,-8.058374E-05
266.207,-8.055173E-05
266.307,-8.055549E-05
266.407,-8.054324E-05
266.507,-8.047638E-05
266.6071,-8.043778E-05
266.7071,-8.042836E-05
266.8071,-8.039069E-05
266.9071,-8.037373E-05
267.0071,-8.03436E-05
267.1071,-8.029369E-05
267.2071,-8.028615E-05
267.3071,-8.027768E-05
267.4071,-8.020704E-05
267.5071,-8.017503E-05
267.6071,-8.019198E-05
267.7071,-8.016561E-05
267.8071,-8.011946E-05
267.9071,-8.00931E-05
268.0071,-8.003E-05
268.1071,-8.006674E-05
268.2072,-8.002341E-05
268.3072,-7.997632E-05
268.4072,-7.994807E-05
268.5072,-7.991982E-05
268.6072,-7.99057E-05
268.7072,-7.987839E-05
268.8072,-7.98426E-05
268.9072,-7.979551E-05
269.0072,-7.976726E-05
269.1072,-7.977385E-05
269.2072,-7.973901E-05
269.3072,-7.968722E-05
269.4072,-7.971076E-05
269.5072,-7.968063E-05
269.6072,-7.964578E-05
269.7072,-7.960905E-05
269.8073,-7.956667E-05
269.9073,-7.952994E-05
270.0073,-7.951488E-05
270.1073,-7.946497E-05
270.2073,-7.943483E-05
270.3073,-7.944048E-05
270.4073,-7.943672E-05
270.5073,-7.937644E-05
270.6073,-7.934348E-05
270.7073,-7.932559E-05
270.8073,-7.9319E-05
270.9073,-7.928698E-05
271.0073,-7.924836E-05
271.1073,-7.920505E-05
271.2073,-7.922294E-05
271.3073,-7.916549E-05
271.4073,-7.912594E-05
271.5074,-7.910993E-05
271.6074,-7.904589E-05
271.7074,-7.903648E-05
271.8074,-7.902895E-05
271.9074,-7.896961E-05
272.0074,-7.893948E-05
272.1074,-7.897527E-05
272.2074,-7.898845E-05
272.3074,-7.8931E-05
272.4074,-7.886509E-05
272.5074,-7.883589E-05
272.6074,-7.876996E-05
272.7074,-7.881517E-05
272.8074,-7.874925E-05
272.9074,-7.871912E-05
273.0074,-7.870876E-05
273.1075,-7.869558E-05
273.2075,-7.864754E-05
273.3075,-7.863624E-05
273.4075,-7.858068E-05
273.5075,-7.855808E-05
273.6075,-7.854396E-05
273.7075,-7.852418E-05
273.8075,-7.847709E-05
273.9075,-7.848462E-05
274.0075,-7.844507E-05
274.1075,-7.83848E-05
274.2075,-7.836502E-05
274.3075,-7.83556E-05
274.4075,-7.830947E-05
274.5075,-7.829533E-05
274.6075,-7.826049E-05
274.7076,-7.824731E-05
274.8076,-7.82492E-05
274.9076,-7.825578E-05
275.0076,-7.817856E-05
275.1076,-7.814371E-05
275.2076,-7.811358E-05
275.3076,-7.810039E-05
275.4076,-7.803824E-05
275.5076,-7.801281E-05
275.6076,-7.795631E-05
275.7076,-7.79516E-05
275.8076,-7.792806E-05
275.9076,-7.790263E-05
276.0076,-7.786214E-05
276.1076,-7.784048E-05
276.2076,-7.780375E-05
276.3076,-7.778868E-05
276.4077,-7.779057E-05
276.5077,-7.772935E-05
276.6077,-7.771146E-05
276.7077,-7.767944E-05
276.8077,-7.767191E-05
276.9077,-7.766626E-05
277.0077,-7.761258E-05
277.1077,-7.757303E-05
277.2077,-7.754384E-05
277.3077,-7.753724E-05
277.4077,-7.750146E-05
277.5077,-7.749204E-05
277.6077,-7.745437E-05
277.7077,-7.744495E-05
277.8077,-7.745437E-05
277.9077,-7.743365E-05
278.0078,-7.736961E-05
278.1078,-7.733948E-05
278.2078,-7.73197E-05
278.3078,-7.72858E-05
278.4078,-7.725189E-05
278.5078,-7.722835E-05
278.6078,-7.719351E-05
278.7078,-7.718221E-05
278.8078,-7.712006E-05
278.9078,-7.711251E-05
279.0078,-7.7121E-05
279.1078,-7.709275E-05
279.2078,-7.702777E-05
279.3078,-7.701835E-05
279.4078,-7.699386E-05
279.5078,-7.696373E-05
279.6078,-7.699574E-05
279.7079,-7.693736E-05
279.8079,-7.687332E-05
279.9079,-7.688932E-05
280.0079,-7.682623E-05
280.1079,-7.67961E-05
280.2079,-7.677914E-05
280.3079,-7.673489E-05
280.4079,-7.670098E-05
280.5079,-7.668403E-05
280.6079,-7.668968E-05
280.7079,-7.664731E-05
280.8079,-7.66153E-05
280.9079,-7.659175E-05
281.0079,-7.659833E-05
281.1079,-7.660681E-05
281.2079,-7.655219E-05
281.308,-7.648909E-05
281.408,-7.647309E-05
281.508,-7.647497E-05
281.608,-7.643353E-05
281.708,-7.64034E-05
281.808,-7.635348E-05
281.908,-7.632146E-05
282.008,-7.633654E-05
282.108,-7.631111E-05
282.208,-7.629133E-05
282.308,-7.626213E-05
282.408,-7.621976E-05
282.508,-7.621976E-05
282.608,-7.620658E-05
282.708,-7.615102E-05
282.808,-7.612558E-05
282.9081,-7.608227E-05
283.0081,-7.607285E-05
283.1081,-7.604365E-05
283.2081,-7.602199E-05
283.3081,-7.599185E-05
283.4081,-7.596549E-05
283.5081,-7.595702E-05
283.6081,-7.592123E-05
283.7081,-7.588357E-05
283.8081,-7.587602E-05
283.9081,-7.586473E-05
284.0081,-7.581858E-05
284.1081,-7.578279E-05
284.2081,-7.577244E-05
284.3081,-7.576866E-05
284.4081,-7.572347E-05
284.5081,-7.568579E-05
284.6082,-7.566508E-05
284.7082,-7.565283E-05
284.8082,-7.56453E-05
284.9082,-7.559539E-05
285.0082,-7.557562E-05
285.1082,-7.557278E-05
285.2082,-7.551251E-05
285.3082,-7.549934E-05
285.4082,-7.547862E-05
285.5082,-7.548144E-05
285.6082,-7.543813E-05
285.7082,-7.542493E-05
285.8082,-7.54127E-05
285.9082,-7.53835E-05
286.0082,-7.53722E-05
286.1082,-7.530063E-05
286.2083,-7.529498E-05
286.3083,-7.530063E-05
286.4083,-7.524413E-05
286.5083,-7.520645E-05
286.6083,-7.520645E-05
286.7083,-7.518668E-05
286.8083,-7.515372E-05
286.9083,-7.510663E-05
287.0083,-7.508968E-05
287.1083,-7.511322E-05
287.2083,-7.506707E-05
287.3083,-7.499645E-05
287.4083,-7.493712E-05
287.5083,-7.496255E-05
287.6083,-7.4939E-05
287.7083,-7.492676E-05
287.8083,-7.489003E-05
287.9084,-7.483071E-05
288.0084,-7.484672E-05
288.1084,-7.482977E-05
288.2084,-7.478362E-05
288.3084,-7.476667E-05
288.4084,-7.481375E-05
288.5084,-7.475536E-05
288.6084,-7.471676E-05
288.7084,-7.467249E-05
288.8084,-7.466401E-05
288.9084,-7.465931E-05
289.0084,-7.463012E-05
289.1084,-7.459433E-05
289.2084,-7.455383E-05
289.3084,-7.456326E-05
289.4084,-7.449638E-05
289.5085,-7.446908E-05
289.6085,-7.445966E-05
289.7085,-7.441446E-05
289.8085,-7.44041E-05
289.9085,-7.439656E-05
290.0085,-7.434948E-05
290.1085,-7.430804E-05
290.2085,-7.431652E-05
290.3085,-7.428356E-05
290.4085,-7.425248E-05
290.5085,-7.422612E-05
290.6085,-7.41715E-05
290.7085,-7.417621E-05
290.8085,-7.418467E-05
290.9085,-7.414041E-05
291.0085,-7.41018E-05
291.1086,-7.408391E-05
291.2086,-7.40293E-05
291.3086,-7.402364E-05
291.4086,-7.402647E-05
291.5086,-7.398503E-05
291.6086,-7.395961E-05
291.7086,-7.392193E-05
291.8086,-7.390216E-05
291.9086,-7.387956E-05
292.0086,-7.387202E-05
292.1086,-7.383058E-05
292.2086,-7.379762E-05
292.3086,-7.376843E-05
292.4086,-7.373829E-05
292.5086,-7.374301E-05
292.6086,-7.372229E-05
292.7086,-7.36526E-05
292.8087,-7.364412E-05
292.9087,-7.364131E-05
293.0087,-7.363E-05
293.1087,-7.359704E-05
293.2087,-7.356031E-05
293.3087,-7.353489E-05
293.4087,-7.35217E-05
293.5087,-7.349816E-05
293.6087,-7.345861E-05
293.7087,-7.342941E-05
293.8087,-7.344071E-05
293.9087,-7.340116E-05
294.0087,-7.33729E-05
294.1087,-7.33569E-05
294.2087,-7.332581E-05
294.3087,-7.330134E-05
294.4088,-7.327591E-05
294.5088,-7.32307E-05
294.6088,-7.321093E-05
294.7088,-7.320057E-05
294.8088,-7.318456E-05
294.9088,-7.317043E-05
295.0088,-7.313747E-05
295.1088,-7.309132E-05
295.2088,-7.305931E-05
295.3088,-7.304706E-05
295.4088,-7.302164E-05
295.5088,-7.298963E-05
295.6088,-7.298491E-05
295.7088,-7.293877E-05
295.8088,-7.293877E-05
295.9088,-7.294442E-05
296.0089,-7.289827E-05
296.1089,-7.283706E-05
296.2089,-7.284271E-05
296.3089,-7.282105E-05
296.4089,-7.281164E-05
296.5089,-7.27702E-05
296.6089,-7.270898E-05
296.7089,-7.269203E-05
296.8089,-7.270993E-05
296.9089,-7.26845E-05
297.0089,-7.264683E-05
297.1089,-7.262706E-05
297.2089,-7.259881E-05
297.3089,-7.259032E-05
297.4089,-7.255266E-05
297.5089,-7.251311E-05
297.6089,-7.251781E-05
297.709,-7.252629E-05
297.809,-7.2434E-05
297.909,-7.240198E-05
298.009,-7.238692E-05
298.109,-7.237467E-05
298.209,-7.236713E-05
298.309,-7.233417E-05
298.409,-7.228521E-05
298.509,-7.226449E-05
298.609,-7.226261E-05
298.709,-7.223812E-05
298.809,-7.220799E-05
298.909,-7.219386E-05
299.009,-7.215243E-05
299.109,-7.216466E-05
299.209,-7.214488E-05
299.3091,-7.208744E-05
299.4091,-7.205354E-05
299.5091,-7.208273E-05
299.6091,-7.206107E-05
299.7091,-7.20347E-05
299.8091,-7.201116E-05
299.9091,-7.194806E-05
300.0091,-7.195654E-05
300.1091,-7.194618E-05
300.2091,-7.191134E-05
300.3091,-7.187367E-05
300.4091,-7.188592E-05
300.5091,-7.184919E-05
300.6091,-7.183977E-05
300.7091,-7.180397E-05
300.8091,-7.177196E-05
300.9091,-7.1739E-05
301.0092,-7.172205E-05
301.1092,-7.170322E-05
301.2092,-7.169945E-05
301.3092,-7.168061E-05
301.4092,-7.163917E-05
301.5092,-7.159398E-05
301.6092,-7.159774E-05
301.7092,-7.157608E-05
301.8092,-7.156101E-05
301.9092,-7.153842E-05
302.0092,-7.148474E-05
302.1092,-7.149039E-05
302.2092,-7.150074E-05
302.3092,-7.142258E-05
302.4092,-7.141504E-05
302.5092,-7.140751E-05
302.6093,-7.140751E-05
302.7093,-7.137361E-05
302.8093,-7.133782E-05
302.9093,-7.130863E-05
303.0093,-7.129357E-05
303.1093,-7.126248E-05
303.2093,-7.125777E-05
303.3093,-7.126625E-05
303.4093,-7.123894E-05
303.5093,-7.122576E-05
303.6093,-7.119562E-05
303.7093,-7.116266E-05
303.8093,-7.116549E-05
303.9093,-7.111934E-05
304.0093,-7.108167E-05
304.1093,-7.104401E-05
304.2094,-7.102799E-05
304.3094,-7.101199E-05
304.4094,-7.095925E-05
304.5094,-7.095548E-05
304.6094,-7.097432E-05
304.7094,-7.093194E-05
304.8094,-7.088861E-05
304.9094,-7.088485E-05
305.0094,-7.083023E-05
305.1094,-7.084907E-05
305.2094,-7.085377E-05
305.3094,-7.077656E-05
305.4094,-7.075395E-05
305.5094,-7.079821E-05
305.6094,-7.075113E-05
305.7094,-7.070215E-05
305.8094,-7.067579E-05
305.9095,-7.067014E-05
306.0095,-7.063624E-05
306.1095,-7.06513E-05
306.2095,-7.059668E-05
306.3095,-7.055808E-05
306.4095,-7.057407E-05
306.5095,-7.053264E-05
306.6095,-7.050628E-05
306.7095,-7.04865E-05
306.8095,-7.045825E-05
306.9095,-7.045071E-05
307.0095,-7.043659E-05
307.1095,-7.041493E-05
307.2095,-7.037821E-05
307.3095,-7.036501E-05
307.4095,-7.035184E-05
307.5096,-7.030757E-05
307.6096,-7.030569E-05
307.7096,-7.02699E-05
307.8096,-7.026613E-05
307.9096,-7.023128E-05
308.0096,-7.018891E-05
308.1096,-7.019738E-05
308.2096,-7.018137E-05
308.3096,-7.014653E-05
308.4096,-7.012393E-05
308.5096,-7.009473E-05
308.6096,-7.006366E-05
308.7096,-7.005519E-05
308.8096,-7.003447E-05
308.9096,-6.998739E-05
309.0096,-6.995442E-05
309.1096,-6.997702E-05
309.2097,-6.99403E-05
309.3097,-6.991957E-05
309.4097,-6.987908E-05
309.5097,-6.984329E-05
309.6097,-6.985555E-05
309.7097,-6.985836E-05
309.8097,-6.979809E-05
309.9097,-6.978114E-05
310.0097,-6.981599E-05
310.1097,-6.97736E-05
310.2097,-6.973594E-05
310.3097,-6.971522E-05
310.4097,-6.970674E-05
310.5097,-6.964836E-05
310.6097,-6.966719E-05
310.7097,-6.962011E-05
310.8098,-6.958243E-05
310.9098,-6.957961E-05
311.0098,-6.955607E-05
311.1098,-6.952781E-05
311.2098,-6.951086E-05
311.3098,-6.948732E-05
311.4098,-6.943741E-05
311.5098,-6.943835E-05
311.6098,-6.940351E-05
311.7098,-6.939032E-05
311.8098,-6.937714E-05
311.9098,-6.934136E-05
312.0098,-6.931592E-05
312.1098,-6.931781E-05
312.2098,-6.929145E-05
312.3098,-6.930933E-05
312.4099,-6.927449E-05
312.5099,-6.919914E-05
312.6099,-6.920763E-05
312.7099,-6.920669E-05
312.8099,-6.916901E-05
312.9099,-6.914736E-05
313.0099,-6.911722E-05
313.1099,-6.909273E-05
313.2099,-6.908803E-05
313.3099,-6.908992E-05
313.4099,-6.902964E-05
313.5099,-6.902775E-05
313.6099,-6.902116E-05
313.7099,-6.899856E-05
313.8099,-6.897691E-05
313.9099,-6.894959E-05
314.0099,-6.891193E-05
314.11,-6.890722E-05
314.21,-6.889121E-05
314.31,-6.885731E-05
314.41,-6.882435E-05
314.51,-6.881681E-05
314.61,-6.881305E-05
314.71,-6.87895E-05
314.81,-6.876972E-05
314.91,-6.871698E-05
315.01,-6.872735E-05
315.11,-6.872075E-05
315.21,-6.86991E-05
315.31,-6.867178E-05
315.41,-6.863222E-05
315.51,-6.863317E-05
315.61,-6.861057E-05
315.7101,-6.858986E-05
315.8101,-6.854277E-05
315.9101,-6.853711E-05
316.0101,-6.85324E-05
316.1101,-6.849945E-05
316.2101,-6.848344E-05
316.3101,-6.846365E-05
316.4101,-6.844859E-05
316.5101,-6.843352E-05
316.6101,-6.843635E-05
316.7101,-6.83629E-05
316.8101,-6.834124E-05
316.9101,-6.835159E-05
317.0101,-6.833653E-05
317.1101,-6.833841E-05
317.2101,-6.829602E-05
317.3102,-6.825648E-05
317.4102,-6.824141E-05
317.5102,-6.823482E-05
317.6102,-6.822164E-05
317.7102,-6.818679E-05
317.8102,-6.817925E-05
317.9102,-6.812087E-05
318.0102,-6.811993E-05
318.1102,-6.810203E-05
318.2102,-6.805401E-05
318.3102,-6.805118E-05
318.4102,-6.802952E-05
318.5102,-6.801351E-05
318.6102,-6.800221E-05
318.7102,-6.799562E-05
318.8102,-6.791558E-05
318.9102,-6.791275E-05
319.0103,-6.790239E-05
319.1103,-6.788544E-05
319.2103,-6.78779E-05
319.3103,-6.782799E-05
319.4103,-6.780162E-05
319.5103,-6.780916E-05
319.6103,-6.781858E-05
319.7103,-6.773947E-05
319.8103,-6.773287E-05
319.9103,-6.773099E-05
320.0103,-6.772911E-05
320.1103,-6.769427E-05
320.2103,-6.765566E-05
320.3103,-6.766695E-05
320.4103,-6.765283E-05
320.5103,-6.760763E-05
320.6104,-6.759162E-05
320.7104,-6.757938E-05
320.8104,-6.755301E-05
320.9104,-6.750497E-05
321.0104,-6.752287E-05
321.1104,-6.750686E-05
321.2104,-6.748803E-05
321.3104,-6.745695E-05
321.4104,-6.743717E-05
321.5104,-6.742681E-05
321.6104,-6.742775E-05
321.7104,-6.738161E-05
321.8104,-6.733734E-05
321.9104,-6.734488E-05
322.0104,-6.733453E-05
322.1104,-6.729403E-05
322.2104,-6.728555E-05
322.3105,-6.72573E-05
322.4105,-6.722246E-05
322.5105,-6.723093E-05
322.6105,-6.718291E-05
322.7105,-6.714335E-05
322.8105,-6.714901E-05
322.9105,-6.713394E-05
323.0105,-6.708402E-05
323.1105,-6.705859E-05
323.2105,-6.706142E-05
323.3105,-6.705672E-05
323.4105,-6.706048E-05
323.5105,-6.703977E-05
323.6105,-6.699644E-05
323.7105,-6.699267E-05
323.8105,-6.699174E-05
323.9106,-6.694935E-05
324.0106,-6.693805E-05
324.1106,-6.690039E-05
324.2106,-6.688249E-05
324.3106,-6.687685E-05
324.4106,-6.683353E-05
324.5106,-6.681092E-05
324.6106,-6.68194E-05
324.7106,-6.679303E-05
324.8106,-6.676007E-05
324.9106,-6.675537E-05
325.0106,-6.674123E-05
325.1106,-6.671581E-05
325.2106,-6.670357E-05
325.3106,-6.667155E-05
325.4106,-6.664141E-05
325.5107,-6.663387E-05
325.6107,-6.661975E-05
325.7107,-6.659621E-05
325.8107,-6.658962E-05
325.9107,-6.654724E-05
326.0107,-6.65105E-05
326.1107,-6.649827E-05
326.2107,-6.649167E-05
326.3107,-6.646248E-05
326.4107,-6.645024E-05
326.5107,-6.642952E-05
326.6107,-6.638243E-05
326.7107,-6.639656E-05
326.8107,-6.637866E-05
326.9107,-6.635889E-05
327.0107,-6.632216E-05
327.1107,-6.63005E-05
327.2108,-6.628167E-05
327.3108,-6.629485E-05
327.4108,-6.627037E-05
327.5108,-6.62327E-05
327.6108,-6.622799E-05
327.7108,-6.61762E-05
327.8108,-6.617054E-05
327.9108,-6.618279E-05
328.0108,-6.6147E-05
328.1108,-6.611122E-05
328.2108,-6.609991E-05
328.3108,-6.608956E-05
328.4108,-6.606884E-05
328.5108,-6.60679E-05
328.6108,-6.606036E-05
328.7108,-6.600669E-05
328.8109,-6.600669E-05
328.9109,-6.59709E-05
329.0109,-6.596524E-05
329.1109,-6.595865E-05
329.2109,-6.59304E-05
329.3109,-6.587672E-05
329.4109,-6.590498E-05
329.5109,-6.588425E-05
329.6109,-6.583717E-05
329.7109,-6.583246E-05
329.8109,-6.581834E-05
329.9109,-6.577973E-05
330.0109,-6.577973E-05
330.1109,-6.575336E-05
330.2109,-6.572416E-05
330.3109,-6.571098E-05
330.4109,-6.566389E-05
330.511,-6.563941E-05
330.611,-6.565259E-05
330.711,-6.564317E-05
330.811,-6.559608E-05
330.911,-6.559421E-05
331.011,-6.557442E-05
331.111,-6.551886E-05
331.211,-6.551509E-05
331.311,-6.551133E-05
331.411,-6.547931E-05
331.511,-6.545859E-05
331.611,-6.54567E-05
331.711,-6.541151E-05
331.811,-6.539361E-05
331.911,-6.537289E-05
332.011,-6.535407E-05
332.1111,-6.536631E-05
332.2111,-6.533429E-05
332.3111,-6.531545E-05
332.4111,-6.530321E-05
332.5111,-6.527307E-05
332.6111,-6.526271E-05
332.7111,-6.525518E-05
332.8111,-6.520621E-05
332.9111,-6.518268E-05
333.0111,-6.517513E-05
333.1111,-6.51563E-05
333.2111,-6.51111E-05
333.3111,-6.51111E-05
333.4111,-6.510168E-05
333.5111,-6.508096E-05
333.6111,-6.503105E-05
333.7112,-6.500656E-05
333.8112,-6.502916E-05
333.9112,-6.500091E-05
334.0112,-6.498584E-05
334.1112,-6.495477E-05
334.2112,-6.49397E-05
334.3112,-6.494535E-05
334.4112,-6.492464E-05
334.5112,-6.489544E-05
334.6112,-6.487661E-05
334.7112,-6.48314E-05
334.8112,-6.483234E-05
334.9112,-6.486436E-05
335.0112,-6.482104E-05
335.1112,-6.477301E-05
335.2112,-6.477113E-05
335.3112,-6.475606E-05
335.4113,-6.475417E-05
335.5113,-6.471462E-05
335.6113,-6.467601E-05
335.7113,-6.467413E-05
335.8113,-6.466095E-05
335.9113,-6.461951E-05
336.0113,-6.462234E-05
336.1113,-6.461103E-05
336.2113,-6.456867E-05
336.3113,-6.454794E-05
336.4113,-6.453382E-05
336.5113,-6.452157E-05
336.6113,-6.44952E-05
336.7113,-6.449802E-05
336.8113,-6.445188E-05
336.9113,-6.449332E-05
337.0114,-6.44905E-05
337.1114,-6.444059E-05
337.2114,-6.440763E-05
337.3114,-6.441139E-05
337.4114,-6.439349E-05
337.5114,-6.436524E-05
337.6114,-6.435018E-05
337.7114,-6.429744E-05
337.8114,-6.42965E-05
337.9114,-6.430592E-05
338.0114,-6.426637E-05
338.1114,-6.423528E-05
338.2114,-6.423811E-05
338.3114,-6.419761E-05
338.4114,-6.419385E-05
338.5114,-6.418725E-05
338.6115,-6.415336E-05
338.7115,-6.412323E-05
338.8115,-6.413169E-05
338.9115,-6.411663E-05
339.0115,-6.410533E-05
339.1115,-6.409968E-05
339.2115,-6.408273E-05
339.3115,-6.404694E-05
339.4115,-6.409026E-05
339.5115,-6.40347E-05
339.6115,-6.400927E-05
339.7115,-6.397632E-05
339.8115,-6.396406E-05
339.9115,-6.392734E-05
340.0115,-6.395276E-05
340.1115,-6.39038E-05
340.2115,-6.387271E-05
340.3116,-6.388496E-05
340.4116,-6.385953E-05
340.5116,-6.387366E-05
340.6116,-6.381904E-05
340.7116,-6.378608E-05
340.8116,-6.375689E-05
340.9116,-6.378326E-05
341.0116,-6.375123E-05
341.1116,-6.371733E-05
341.2116,-6.372581E-05
341.3116,-6.369191E-05
341.4116,-6.36872E-05
341.5116,-6.366271E-05
341.6116,-6.362786E-05
341.7116,-6.360526E-05
341.8116,-6.365706E-05
341.9117,-6.360433E-05
342.0117,-6.356572E-05
342.1117,-6.358266E-05
342.2117,-6.354688E-05
342.3117,-6.352239E-05
342.4117,-6.351392E-05
342.5117,-6.348379E-05
342.6117,-6.347061E-05
342.7117,-6.349226E-05
342.8117,-6.344423E-05
342.9117,-6.34301E-05
343.0117,-6.340562E-05
343.1117,-6.338867E-05
343.2117,-6.337549E-05
343.3117,-6.337549E-05
343.4117,-6.335854E-05
343.5117,-6.32992E-05
343.6118,-6.330298E-05
343.7118,-6.327189E-05
343.8118,-6.324742E-05
343.9118,-6.325118E-05
344.0118,-6.323987E-05
344.1118,-6.321445E-05
344.2118,-6.320221E-05
344.3118,-6.316642E-05
344.4118,-6.314665E-05
344.5118,-6.31636E-05
344.6118,-6.3141E-05
344.7118,-6.310992E-05
344.8118,-6.309109E-05
344.9118,-6.30487E-05
345.0118,-6.304117E-05
345.1118,-6.303834E-05
345.2119,-6.305341E-05
345.3119,-6.301574E-05
345.4119,-6.300445E-05
345.5119,-6.296866E-05
345.6119,-6.294135E-05
345.7119,-6.292816E-05
345.8119,-6.29244E-05
345.9119,-6.289897E-05
346.0119,-6.289143E-05
346.1119,-6.285754E-05
346.2119,-6.282646E-05
346.3119,-6.28387E-05
346.4119,-6.282551E-05
346.5119,-6.277749E-05
346.6119,-6.27483E-05
346.7119,-6.274641E-05
346.812,-6.273981E-05
346.912,-6.274736E-05
347.012,-6.270591E-05
347.112,-6.265412E-05
347.212,-6.268331E-05
347.312,-6.266636E-05
347.412,-6.263528E-05
347.512,-6.262586E-05
347.612,-6.257502E-05
347.712,-6.255523E-05
347.812,-6.256371E-05
347.912,-6.255147E-05
348.012,-6.251004E-05
348.112,-6.250344E-05
348.212,-6.249497E-05
348.312,-6.24573E-05
348.412,-6.247331E-05
348.5121,-6.245635E-05
348.6121,-6.240739E-05
348.7121,-6.239985E-05
348.8121,-6.238479E-05
348.9121,-6.236407E-05
349.0121,-6.238102E-05
349.1121,-6.234334E-05
349.2121,-6.228496E-05
349.3121,-6.229815E-05
349.4121,-6.22746E-05
349.5121,-6.225483E-05
349.6121,-6.227272E-05
349.7121,-6.223787E-05
349.8121,-6.219738E-05
349.9121,-6.219361E-05
350.0121,-6.217195E-05
350.1122,-6.215406E-05
350.2122,-6.213145E-05
350.3122,-6.213145E-05
350.4122,-6.207966E-05
350.5122,-6.206836E-05
350.6122,-6.204293E-05
350.7122,-6.204011E-05
350.8122,-6.20467E-05
350.9122,-6.199679E-05
351.0122,-6.197231E-05
351.1122,-6.197231E-05
351.2122,-6.196383E-05
351.3122,-6.193652E-05
351.4122,-6.193464E-05
351.5122,-6.190639E-05
351.6122,-6.18753E-05
351.7122,-6.186777E-05
351.8123,-6.1848E-05
351.9123,-6.184329E-05
352.0123,-6.183387E-05
352.1123,-6.180279E-05
352.2123,-6.177172E-05
352.3123,-6.177642E-05
352.4123,-6.17557E-05
352.5123,-6.171992E-05
352.6123,-6.17218E-05
352.7123,-6.169732E-05
352.8123,-6.168414E-05
352.9123,-6.166342E-05
353.0123,-6.162575E-05
353.1123,-6.160692E-05
353.2123,-6.162386E-05
353.3123,-6.164081E-05
353.4124,-6.156924E-05
353.5124,-6.154947E-05
353.6124,-6.154099E-05
353.7124,-6.151839E-05
353.8124,-6.151933E-05
353.9124,-6.148731E-05
354.0124,-6.145529E-05
354.1124,-6.146283E-05
354.2124,-6.144399E-05
354.3124,-6.140349E-05
354.4124,-6.138184E-05
354.5124,-6.139031E-05
354.6124,-6.13743E-05
354.7124,-6.138184E-05
354.8124,-6.133004E-05
354.9124,-6.129708E-05
355.0125,-6.131498E-05
355.1125,-6.13065E-05
355.2125,-6.127731E-05
355.3125,-6.126224E-05
355.4125,-6.123305E-05
355.5125,-6.120856E-05
355.6125,-6.120762E-05
355.7125,-6.121045E-05
355.8125,-6.115111E-05
355.9125,-6.115017E-05
356.0125,-6.111627E-05
356.1125,-6.111345E-05
356.2125,-6.109932E-05
356.3125,-6.10673E-05
356.4125,-6.103999E-05
356.5125,-6.106542E-05
356.6125,-6.105789E-05
356.7126,-6.101927E-05
356.8126,-6.098914E-05
356.9126,-6.096748E-05
357.0126,-6.096466E-05
357.1126,-6.096748E-05
357.2126,-6.092793E-05
357.3126,-6.090627E-05
357.4126,-6.091286E-05
357.5126,-6.089967E-05
357.6126,-6.086295E-05
357.7126,-6.086012E-05
357.8126,-6.084128E-05
357.9126,-6.080927E-05
358.0126,-6.081398E-05
358.1126,-6.079232E-05
358.2126,-6.075747E-05
358.3127,-6.075182E-05
358.4127,-6.072357E-05
358.5127,-6.069343E-05
358.6127,-6.06972E-05
358.7127,-6.069531E-05
358.8127,-6.065953E-05
358.9127,-6.065294E-05
359.0127,-6.064352E-05
359.1127,-6.061715E-05
359.2127,-6.060491E-05
359.3127,-6.056818E-05
359.4127,-6.0555E-05
359.5127,-6.055406E-05
359.6127,-6.054181E-05
359.7127,-6.049661E-05
359.8127,-6.049944E-05
359.9128,-6.051733E-05
360.0128,-6.04467E-05
360.1128,-6.044105E-05
360.2128,-6.047495E-05
360.3128,-6.047307E-05
360.4128,-6.042881E-05
360.5128,-6.040338E-05
360.6128,-6.039114E-05
360.7128,-6.036665E-05
360.8128,-6.03836E-05
360.9128,-6.03384E-05
361.0128,-6.033369E-05
361.1128,-6.030639E-05
361.2128,-6.027625E-05
361.3128,-6.026871E-05
361.4128,-6.026306E-05
361.5128,-6.024046E-05
361.6129,-6.019997E-05
361.7129,-6.020373E-05
361.8129,-6.017736E-05
361.9129,-6.018301E-05
362.0129,-6.018019E-05
362.1129,-6.012557E-05
362.2129,-6.009732E-05
362.3129,-6.01105E-05
362.4129,-6.009638E-05
362.5129,-6.009732E-05
362.6129,-6.007189E-05
362.7129,-6.002293E-05
362.8129,-6.002669E-05
362.9129,-6.003611E-05
363.0129,-6.000974E-05
363.1129,-5.998996E-05
363.213,-5.999844E-05
363.313,-5.995889E-05
363.413,-5.996265E-05
363.513,-5.993722E-05
363.613,-5.990238E-05
363.713,-5.990238E-05
363.813,-5.989014E-05
363.913,-5.987319E-05
364.013,-5.98374E-05
364.113,-5.982233E-05
364.213,-5.980538E-05
364.313,-5.981197E-05
364.413,-5.980256E-05
364.513,-5.975453E-05
364.613,-5.973193E-05
364.713,-5.974793E-05
364.813,-5.973193E-05
364.9131,-5.972251E-05
365.0131,-5.970273E-05
365.1131,-5.964906E-05
365.2131,-5.965565E-05
365.3131,-5.967354E-05
365.4131,-5.963399E-05
365.5131,-5.961704E-05
365.6131,-5.958784E-05
365.7131,-5.957654E-05
365.8131,-5.957277E-05
365.9131,-5.956806E-05
366.0131,-5.952851E-05
366.1131,-5.951344E-05
366.2131,-5.950214E-05
366.3131,-5.948048E-05
366.4131,-5.950308E-05
366.5132,-5.947483E-05
366.6132,-5.943245E-05
366.7132,-5.943057E-05
366.8132,-5.940891E-05
366.9132,-5.939667E-05
367.0132,-5.940138E-05
367.1132,-5.935994E-05
367.2132,-5.93185E-05
367.3132,-5.935994E-05
367.4132,-5.934016E-05
367.5132,-5.930155E-05
367.6132,-5.929025E-05
367.7132,-5.928084E-05
367.8132,-5.924788E-05
367.9132,-5.926577E-05
368.0132,-5.925541E-05
368.1133,-5.919608E-05
368.2133,-5.918478E-05
368.3133,-5.917819E-05
368.4133,-5.91829E-05
368.5133,-5.916124E-05
368.6133,-5.913298E-05
368.7133,-5.910379E-05
368.8133,-5.911509E-05
368.9133,-5.910379E-05
369.0133,-5.905765E-05
369.1133,-5.904352E-05
369.2133,-5.90407E-05
369.3133,-5.906047E-05
369.4133,-5.905388E-05
369.5133,-5.90228E-05
369.6133,-5.899455E-05
369.7133,-5.89889E-05
369.8134,-5.89889E-05
369.9134,-5.894558E-05
370.0134,-5.893899E-05
370.1134,-5.892486E-05
370.2134,-5.890226E-05
370.3134,-5.890697E-05
370.4134,-5.888625E-05
370.5134,-5.883634E-05
370.6134,-5.881939E-05
370.7134,-5.881468E-05
370.8134,-5.88015E-05
370.9134,-5.878643E-05
371.0134,-5.876665E-05
371.1134,-5.874405E-05
371.2134,-5.874782E-05
371.3134,-5.873275E-05
371.4135,-5.867813E-05
371.5135,-5.869132E-05
371.6135,-5.87045E-05
371.7135,-5.866589E-05
371.8135,-5.864611E-05
371.9135,-5.863292E-05
372.0135,-5.860373E-05
372.1135,-5.861692E-05
372.2135,-5.861692E-05
372.3135,-5.855476E-05
372.4135,-5.854911E-05
372.5135,-5.85444E-05
372.6135,-5.852933E-05
372.7135,-5.853593E-05
372.8135,-5.850014E-05
372.9135,-5.847283E-05
373.0135,-5.846247E-05
373.1136,-5.846153E-05
373.2136,-5.844176E-05
373.3136,-5.844458E-05
373.4136,-5.841162E-05
373.5136,-5.835888E-05
373.6136,-5.838996E-05
373.7136,-5.839561E-05
373.8136,-5.836547E-05
373.9136,-5.835982E-05
374.0136,-5.831744E-05
374.1136,-5.831556E-05
374.2136,-5.830991E-05
374.3136,-5.829202E-05
374.4136,-5.826377E-05
374.5136,-5.827601E-05
374.6136,-5.823269E-05
374.7137,-5.820255E-05
374.8137,-5.82261E-05
374.9137,-5.82082E-05
375.0137,-5.817901E-05
375.1137,-5.814134E-05
375.2137,-5.815924E-05
375.3137,-5.814134E-05
375.4137,-5.81112E-05
375.5137,-5.80839E-05
375.6137,-5.810085E-05
375.7137,-5.809425E-05
375.8137,-5.807542E-05
375.9137,-5.803022E-05
376.0137,-5.804529E-05
376.1137,-5.802363E-05
376.2137,-5.798313E-05
376.3138,-5.799725E-05
376.4138,-5.798125E-05
376.5138,-5.795582E-05
376.6138,-5.793793E-05
376.7138,-5.794735E-05
376.8138,-5.790967E-05
376.9138,-5.789743E-05
377.0138,-5.789273E-05
377.1138,-5.787013E-05
377.2138,-5.786448E-05
377.3138,-5.78607E-05
377.4138,-5.779855E-05
377.5138,-5.782304E-05
377.6138,-5.781832E-05
377.7138,-5.777406E-05
377.8138,-5.775618E-05
377.9138,-5.777501E-05
378.0139,-5.777312E-05
378.1139,-5.776277E-05
378.2139,-5.773734E-05
378.3139,-5.76959E-05
378.4139,-5.768931E-05
378.5139,-5.77185E-05
378.6139,-5.768837E-05
378.7139,-5.768272E-05
378.8139,-5.765352E-05
378.9139,-5.761303E-05
379.0139,-5.760361E-05
379.1139,-5.761398E-05
379.2139,-5.757913E-05
379.3139,-5.75537E-05
379.4139,-5.753204E-05
379.5139,-5.754052E-05
379.614,-5.751038E-05
379.714,-5.751697E-05
379.814,-5.747836E-05
379.914,-5.746424E-05
380.014,-5.745576E-05
380.114,-5.743598E-05
380.214,-5.742186E-05
380.314,-5.741527E-05
380.414,-5.739079E-05
380.514,-5.737948E-05
380.614,-5.736064E-05
380.714,-5.73371E-05
380.814,-5.735311E-05
380.914,-5.735029E-05
381.014,-5.728437E-05
381.114,-5.730603E-05
381.2141,-5.732298E-05
381.3141,-5.731356E-05
381.4141,-5.725329E-05
381.5141,-5.724293E-05
381.6141,-5.723822E-05
381.7141,-5.723069E-05
381.8141,-5.721844E-05
381.9141,-5.718078E-05
382.0141,-5.717325E-05
382.1141,-5.717795E-05
382.2141,-5.713181E-05
382.3141,-5.71431E-05
382.4141,-5.711486E-05
382.5141,-5.709037E-05
382.6141,-5.708189E-05
382.7141,-5.706118E-05
382.8141,-5.706494E-05
382.9142,-5.703198E-05
383.0142,-5.703198E-05
383.1142,-5.69849E-05
383.2142,-5.701126E-05
383.3142,-5.701315E-05
383.4142,-5.697359E-05
383.5142,-5.693875E-05
383.6142,-5.695664E-05
383.7142,-5.693687E-05
383.8142,-5.693121E-05
383.9142,-5.692933E-05
384.0142,-5.691897E-05
384.1142,-5.69218E-05
384.2142,-5.692933E-05
384.3142,-5.688319E-05
384.4142,-5.684929E-05
384.5143,-5.684552E-05
384.6143,-5.680314E-05
384.7143,-5.681821E-05
384.8143,-5.678901E-05
384.9143,-5.674193E-05
385.0143,-5.674475E-05
385.1143,-5.676359E-05
385.2143,-5.675888E-05
385.3143,-5.670614E-05
385.4143,-5.669861E-05
385.5143,-5.668637E-05
385.6143,-5.667224E-05
385.7143,-5.66826E-05
385.8143,-5.663928E-05
385.9143,-5.663269E-05
386.0143,-5.663928E-05
386.1143,-5.65969E-05
386.2144,-5.658937E-05
386.3144,-5.65969E-05
386.4144,-5.655829E-05
386.5144,-5.656017E-05
386.6144,-5.654229E-05
386.7144,-5.651403E-05
386.8144,-5.652062E-05
386.9144,-5.652345E-05
387.0144,-5.646318E-05
387.1144,-5.645847E-05
387.2144,-5.644152E-05
387.3144,-5.643681E-05
387.4144,-5.642362E-05
387.5144,-5.641986E-05
387.6144,-5.640291E-05
387.7144,-5.638313E-05
387.8145,-5.638218E-05
387.9145,-5.634075E-05
388.0145,-5.634546E-05
388.1145,-5.636712E-05
388.2145,-5.632663E-05
388.3145,-5.630214E-05
388.4145,-5.630214E-05
388.5145,-5.627106E-05
388.6145,-5.629084E-05
388.7145,-5.625882E-05
388.8145,-5.623057E-05
388.9145,-5.622115E-05
389.0145,-5.62334E-05
389.1145,-5.618349E-05
389.2145,-5.618537E-05
389.3145,-5.618631E-05
389.4146,-5.615994E-05
389.5146,-5.614675E-05
389.6146,-5.615429E-05
389.7146,-5.614393E-05
389.8146,-5.613074E-05
389.9146,-5.609684E-05
390.0146,-5.609967E-05
390.1146,-5.608648E-05
390.2146,-5.60507E-05
390.3146,-5.604034E-05
390.4146,-5.605258E-05
390.5146,-5.603186E-05
390.6146,-5.600173E-05
390.7146,-5.598007E-05
390.8146,-5.599796E-05
390.9146,-5.598195E-05
391.0146,-5.597348E-05
391.1147,-5.593769E-05
391.2147,-5.591415E-05
391.3147,-5.592168E-05
391.4147,-5.591886E-05
391.5147,-5.588496E-05
391.6147,-5.586989E-05
391.7147,-5.585859E-05
391.8147,-5.582939E-05
391.9147,-5.581715E-05
392.0147,-5.580961E-05
392.1147,-5.580585E-05
392.2147,-5.579643E-05
392.3147,-5.57889E-05
392.4147,-5.575311E-05
392.5147,-5.575123E-05
392.6147,-5.576253E-05
392.7148,-5.573051E-05
392.8148,-5.568719E-05
392.9148,-5.569849E-05
393.0148,-5.569001E-05
393.1148,-5.568154E-05
393.2148,-5.567401E-05
393.3148,-5.5658E-05
393.4148,-5.564669E-05
393.5148,-5.563351E-05
393.6148,-5.559678E-05
393.7148,-5.559584E-05
393.8148,-5.559208E-05
393.9148,-5.557324E-05
394.0148,-5.557324E-05
394.1148,-5.554122E-05
394.2148,-5.553934E-05
394.3148,-5.554687E-05
394.4149,-5.552427E-05
394.5149,-5.547248E-05
394.6149,-5.548754E-05
394.7149,-5.549414E-05
394.8149,-5.546118E-05
394.9149,-5.544611E-05
395.0149,-5.542915E-05
395.1149,-5.542162E-05
395.2149,-5.542445E-05
395.3149,-5.541315E-05
395.4149,-5.535476E-05
395.5149,-5.535852E-05
395.6149,-5.537077E-05
395.7149,-5.534064E-05
395.8149,-5.534911E-05
395.9149,-5.531521E-05
396.015,-5.528883E-05
396.115,-5.528319E-05
396.215,-5.528036E-05
396.315,-5.528036E-05
396.415,-5.52361E-05
396.515,-5.524457E-05
396.615,-5.520408E-05
396.715,-5.521821E-05
396.815,-5.521162E-05
396.915,-5.519655E-05
397.015,-5.520408E-05
397.115,-5.518337E-05
397.215,-5.515982E-05
397.315,-5.515794E-05
397.415,-5.514287E-05
397.515,-5.509013E-05
397.6151,-5.510143E-05
397.7151,-5.50939E-05
397.8151,-5.502892E-05
397.9151,-5.504399E-05
398.0151,-5.504776E-05
398.1151,-5.504587E-05
398.2151,-5.502798E-05
398.3151,-5.501385E-05
398.4151,-5.50195E-05
398.5151,-5.498654E-05
398.6151,-5.498089E-05
398.7151,-5.494605E-05
398.8151,-5.494322E-05
398.9151,-5.492627E-05
399.0151,-5.491779E-05
399.1151,-5.493851E-05
399.2151,-5.491215E-05
399.3152,-5.486318E-05
399.4152,-5.48547E-05
399.5152,-5.486318E-05
399.6152,-5.483869E-05
399.7152,-5.482645E-05
399.8152,-5.482456E-05
399.9152,-5.477842E-05
400.0152,-5.477842E-05
400.1152,-5.478313E-05
400.2152,-5.475958E-05
400.3152,-5.472286E-05
400.4152,-5.470685E-05
400.5152,-5.469084E-05
400.6152,-5.471061E-05
400.7152,-5.468801E-05
400.8152,-5.463904E-05
400.9153,-5.465976E-05
401.0153,-5.465411E-05
401.1153,-5.465034E-05
401.2153,-5.464281E-05
401.3153,-5.457783E-05
401.4153,-5.4575E-05
401.5153,-5.457783E-05
401.6153,-5.457218E-05
401.7153,-5.454958E-05
401.8153,-5.453168E-05
401.9153,-5.449778E-05
402.0153,-5.448272E-05
402.1153,-5.451191E-05
402.2153,-5.449967E-05
402.3153,-5.447047E-05
402.4153,-5.446577E-05
402.5154,-5.443751E-05
402.6154,-5.44102E-05
402.7154,-5.44328E-05
402.8154,-5.44281E-05
402.9154,-5.436594E-05
403.0154,-5.438384E-05
403.1154,-5.437253E-05
403.2154,-5.436218E-05
403.3154,-5.434522E-05
403.4154,-5.434146E-05
403.5154,-5.433015E-05
403.6154,-5.430755E-05
403.7154,-5.428307E-05
403.8154,-5.427177E-05
403.9154,-5.428119E-05
404.0154,-5.427742E-05
404.1154,-5.422563E-05
404.2155,-5.421809E-05
404.3155,-5.421432E-05
404.4155,-5.419078E-05
404.5155,-5.418325E-05
404.6155,-5.416253E-05
404.7155,-5.414557E-05
404.8155,-5.415217E-05
404.9155,-5.414934E-05
405.0155,-5.408907E-05
405.1155,-5.409096E-05
405.2155,-5.410226E-05
405.3155,-5.407683E-05
405.4155,-5.406835E-05
405.5155,-5.403634E-05
405.6155,-5.401185E-05
405.7155,-5.401562E-05
405.8156,-5.402786E-05
405.9156,-5.399302E-05
406.0156,-5.398548E-05
406.1156,-5.397136E-05
406.2156,-5.399961E-05
406.3156,-5.399396E-05
406.4156,-5.394122E-05
406.5156,-5.392427E-05
406.6156,-5.392709E-05
406.7156,-5.391014E-05
406.8156,-5.391391E-05
406.9156,-5.387624E-05
407.0156,-5.385176E-05
407.1156,-5.383951E-05
407.2156,-5.383857E-05
407.3156,-5.382727E-05
407.4156,-5.378489E-05
407.5157,-5.379525E-05
407.6157,-5.379619E-05
407.7157,-5.378207E-05
407.8157,-5.37444E-05
407.9157,-5.374251E-05
408.0157,-5.371144E-05
408.1157,-5.372933E-05
408.2157,-5.372557E-05
408.3157,-5.367754E-05
408.4157,-5.369449E-05
408.5157,-5.364363E-05
408.6157,-5.364175E-05
408.7157,-5.364552E-05
408.8157,-5.364552E-05
408.9157,-5.361538E-05
409.0157,-5.360973E-05
409.1158,-5.358807E-05
409.2158,-5.35683E-05
409.3158,-5.360408E-05
409.4158,-5.356924E-05
409.5158,-5.352686E-05
409.6158,-5.355134E-05
409.7158,-5.352309E-05
409.8158,-5.353628E-05
409.9158,-5.353345E-05
410.0158,-5.350331E-05
410.1158,-5.347506E-05
410.2158,-5.34713E-05
410.3158,-5.346188E-05
410.4158,-5.344775E-05
410.5158,-5.343457E-05
410.6158,-5.340443E-05
410.7159,-5.340161E-05
410.8159,-5.339031E-05
410.9159,-5.336959E-05
411.0159,-5.335735E-05
411.1159,-5.336206E-05
411.2159,-5.335829E-05
411.3159,-5.331309E-05
411.4159,-5.332721E-05
411.5159,-5.331309E-05
411.6159,-5.327447E-05
411.7159,-5.328389E-05
411.8159,-5.328672E-05
411.9159,-5.325658E-05
412.0159,-5.32368E-05
412.1159,-5.321703E-05
412.2159,-5.320949E-05
412.3159,-5.322268E-05
412.416,-5.322268E-05
412.516,-5.318784E-05
412.616,-5.316711E-05
412.716,-5.317277E-05
412.816,-5.316241E-05
412.916,-5.31464E-05
413.016,-5.314263E-05
413.116,-5.311627E-05
413.216,-5.311532E-05
413.316,-5.308801E-05
413.416,-5.309649E-05
413.516,-5.308142E-05
413.616,-5.305693E-05
413.716,-5.303339E-05
413.816,-5.303245E-05
413.916,-5.304469E-05
414.0161,-5.300796E-05
414.1161,-5.300985E-05
414.2161,-5.297312E-05
414.3161,-5.296559E-05
414.4161,-5.297689E-05
414.5161,-5.296088E-05
414.6161,-5.293922E-05
414.7161,-5.292321E-05
414.8161,-5.290061E-05
414.9161,-5.289778E-05
415.0161,-5.291473E-05
415.1161,-5.288271E-05
415.2161,-5.285917E-05
415.3161,-5.287707E-05
415.4161,-5.283092E-05
415.5161,-5.283092E-05
415.6161,-5.282715E-05
415.7162,-5.275558E-05
415.8162,-5.280172E-05
415.9162,-5.280172E-05
416.0162,-5.279419E-05
416.1162,-5.274616E-05
416.2162,-5.273675E-05
416.3162,-5.273298E-05
416.4162,-5.271508E-05
416.5162,-5.274428E-05
416.6162,-5.268495E-05
416.7162,-5.26793E-05
416.8162,-5.266706E-05
416.9162,-5.265952E-05
417.0162,-5.263975E-05
417.1162,-5.263786E-05
417.2162,-5.262468E-05
417.3163,-5.2571E-05
417.4163,-5.258701E-05
417.5163,-5.257759E-05
417.6163,-5.258325E-05
417.7163,-5.257665E-05
417.8163,-5.254746E-05
417.9163,-5.252862E-05
418.0163,-5.25371E-05
418.1163,-5.251073E-05
418.2163,-5.246835E-05
418.3163,-5.249849E-05
418.4163,-5.251073E-05
418.5163,-5.247589E-05
418.6163,-5.245328E-05
418.7163,-5.24467E-05
418.8163,-5.242692E-05
418.9164,-5.24467E-05
419.0164,-5.240808E-05
419.1164,-5.237983E-05
419.2164,-5.23836E-05
419.3164,-5.239019E-05
419.4164,-5.236664E-05
419.5164,-5.238736E-05
419.6164,-5.235911E-05
419.7164,-5.23318E-05
419.8164,-5.232521E-05
419.9164,-5.234122E-05
420.0164,-5.22979E-05
420.1164,-5.228283E-05
420.2164,-5.228189E-05
420.3164,-5.225458E-05
420.4164,-5.225646E-05
420.5164,-5.223857E-05
420.6165,-5.222915E-05
420.7165,-5.221314E-05
420.8165,-5.22122E-05
420.9165,-5.218301E-05
421.0165,-5.217736E-05
421.1165,-5.21557E-05
421.2165,-5.215005E-05
421.3165,-5.217736E-05
421.4165,-5.21378E-05
421.5165,-5.210013E-05
421.6165,-5.211803E-05
421.7165,-5.21265E-05
421.8165,-5.207565E-05
421.9165,-5.20813E-05
422.0165,-5.209543E-05
422.1165,-5.208036E-05
422.2166,-5.205588E-05
422.3166,-5.204928E-05
422.4166,-5.203327E-05
422.5166,-5.206341E-05
422.6166,-5.202197E-05
422.7166,-5.198336E-05
422.8166,-5.199184E-05
422.9166,-5.197488E-05
423.0166,-5.195793E-05
423.1166,-5.196547E-05
423.2166,-5.194381E-05
423.3166,-5.19212E-05
423.4166,-5.19212E-05
423.5166,-5.191179E-05
423.6166,-5.188071E-05
423.7166,-5.190237E-05
423.8167,-5.186753E-05
423.9167,-5.183269E-05
424.0167,-5.183928E-05
424.1167,-5.182609E-05
424.2167,-5.184587E-05
424.3167,-5.181761E-05
424.4167,-5.179407E-05
424.5167,-5.174604E-05
424.6167,-5.17856E-05
424.7167,-5.176959E-05
424.8167,-5.173945E-05
424.9167,-5.175169E-05
425.0167,-5.171403E-05
425.1167,-5.172344E-05
425.2167,-5.171497E-05
425.3167,-5.169143E-05
425.4167,-5.168106E-05
425.5168,-5.167918E-05
425.6168,-5.164246E-05
425.7168,-5.16547E-05
425.8168,-5.167918E-05
425.9168,-5.162927E-05
426.0168,-5.161514E-05
426.1168,-5.160761E-05
426.2168,-5.159725E-05
426.3168,-5.160573E-05
426.4168,-5.160479E-05
426.5168,-5.157559E-05
426.6168,-5.154357E-05
426.7168,-5.155958E-05
426.8168,-5.151626E-05
426.9168,-5.153981E-05
427.0168,-5.154169E-05
427.1169,-5.147859E-05
427.2169,-5.148707E-05
427.3169,-5.148047E-05
427.4169,-5.147671E-05
427.5169,-5.14899E-05
427.6169,-5.146164E-05
427.7169,-5.143056E-05
427.8169,-5.140984E-05
427.9169,-5.143716E-05
428.0169,-5.141173E-05
428.1169,-5.14089E-05
428.2169,-5.139572E-05
428.3169,-5.136464E-05
428.4169,-5.134016E-05
428.5169,-5.136558E-05
428.6169,-5.134675E-05
428.7169,-5.134016E-05
428.817,-5.132792E-05
428.917,-5.129119E-05
429.017,-5.129401E-05
429.117,-5.132603E-05
429.217,-5.128836E-05
429.317,-5.127518E-05
429.417,-5.1262E-05
429.517,-5.124975E-05
429.617,-5.12507E-05
429.717,-5.123845E-05
429.817,-5.120172E-05
429.917,-5.120926E-05
430.017,-5.120078E-05
430.117,-5.120737E-05
430.217,-5.116971E-05
430.317,-5.119513E-05
430.4171,-5.119042E-05
430.5171,-5.115464E-05
430.6171,-5.116217E-05
430.7171,-5.114051E-05
430.8171,-5.111979E-05
430.9171,-5.11358E-05
431.0171,-5.109343E-05
431.1171,-5.109154E-05
431.2171,-5.108024E-05
431.3171,-5.106329E-05
431.4171,-5.1068E-05
431.5171,-5.104822E-05
431.6171,-5.100866E-05
431.7171,-5.100584E-05
431.8171,-5.102562E-05
431.9171,-5.097477E-05
432.0172,-5.094463E-05
432.1172,-5.095876E-05
432.2172,-5.098889E-05
432.3172,-5.095782E-05
432.4172,-5.095876E-05
432.5172,-5.09192E-05
432.6172,-5.094275E-05
432.7172,-5.093709E-05
432.8172,-5.089849E-05
432.9172,-5.087965E-05
433.0172,-5.092862E-05
433.1172,-5.092391E-05
433.2172,-5.089001E-05
433.3172,-5.087212E-05
433.4172,-5.08401E-05
433.5172,-5.082597E-05
433.6172,-5.083727E-05
433.7173,-5.08109E-05
433.8173,-5.077324E-05
433.9173,-5.079019E-05
434.0173,-5.078548E-05
434.1173,-5.076853E-05
434.2173,-5.077229E-05
434.3173,-5.073745E-05
434.4173,-5.071108E-05
434.5173,-5.073086E-05
434.6173,-5.072144E-05
434.7173,-5.07092E-05
434.8173,-5.070637E-05
434.9173,-5.068377E-05
435.0173,-5.067153E-05
435.1173,-5.068094E-05
435.2173,-5.064233E-05
435.3174,-5.064705E-05
435.4174,-5.063198E-05
435.5174,-5.062632E-05
435.6174,-5.058677E-05
435.7174,-5.063198E-05
435.8174,-5.061502E-05
435.9174,-5.058677E-05
436.0174,-5.059713E-05
436.1174,-5.056511E-05
436.2174,-5.055663E-05
436.3174,-5.058206E-05
436.4174,-5.054063E-05
436.5174,-5.049072E-05
436.6174,-5.05265E-05
436.7174,-5.05152E-05
436.8174,-5.046623E-05
436.9174,-5.047659E-05
437.0175,-5.047848E-05
437.1175,-5.046812E-05
437.2175,-5.046812E-05
437.3175,-5.043233E-05
437.4175,-5.040314E-05
437.5175,-5.042385E-05
437.6175,-5.042574E-05
437.7175,-5.041632E-05
437.8175,-5.039278E-05
437.9175,-5.039372E-05
438.0175,-5.041443E-05
438.1175,-5.037394E-05
438.2175,-5.035699E-05
438.3175,-5.03504E-05
438.4175,-5.037206E-05
438.5175,-5.033062E-05
438.6176,-5.03052E-05
438.7176,-5.030331E-05
438.8176,-5.029766E-05
438.9176,-5.027412E-05
439.0176,-5.027883E-05
439.1176,-5.025623E-05
439.2176,-5.028354E-05
439.3176,-5.02939E-05
439.4176,-5.026282E-05
439.5176,-5.023362E-05
439.6176,-5.024586E-05
439.7176,-5.022891E-05
439.8176,-5.020066E-05
439.9176,-5.021008E-05
440.0176,-5.019878E-05
440.1176,-5.014981E-05
440.2177,-5.015734E-05
440.3177,-5.017994E-05
440.4177,-5.014605E-05
440.5177,-5.009802E-05
440.6177,-5.015169E-05
440.7177,-5.013945E-05
440.8177,-5.010272E-05
440.9177,-5.006693E-05
441.0177,-5.005093E-05
441.1177,-5.008483E-05
441.2177,-5.00594E-05
441.3177,-5.000196E-05
441.4177,-5.003586E-05
441.5177,-5.003115E-05
441.6177,-5.001326E-05
441.7177,-4.998689E-05
441.8177,-5.00255E-05
441.9178,-5.003115E-05
442.0178,-5.000667E-05
442.1178,-4.999442E-05
442.2178,-4.996147E-05
442.3178,-4.994451E-05
442.4178,-4.995676E-05
442.5178,-4.993321E-05
442.6178,-4.991532E-05
442.7178,-4.990402E-05
442.8178,-4.985693E-05
442.9178,-4.988424E-05
443.0178,-4.9872E-05
443.1178,-4.98541E-05
443.2178,-4.985222E-05
443.3178,-4.983151E-05
443.4178,-4.982021E-05
443.5179,-4.981361E-05
443.6179,-4.984375E-05
443.7179,-4.981267E-05
443.8179,-4.981173E-05
443.9179,-4.979195E-05
444.0179,-4.978442E-05
444.1179,-4.977971E-05
444.2179,-4.978253E-05
444.3179,-4.974863E-05
444.4179,-4.975334E-05
444.5179,-4.973263E-05
444.6179,-4.971002E-05
444.7179,-4.971661E-05
444.8179,-4.969778E-05
444.9179,-4.967612E-05
445.0179,-4.968083E-05
445.118,-4.966294E-05
445.218,-4.962997E-05
445.318,-4.961773E-05
445.418,-4.963468E-05
445.518,-4.95989E-05
445.618,-4.96149E-05
445.718,-4.959702E-05
445.818,-4.954616E-05
445.918,-4.955558E-05
446.018,-4.957912E-05
446.118,-4.955464E-05
446.218,-4.953392E-05
446.318,-4.95245E-05
446.418,-4.950755E-05
446.518,-4.952074E-05
446.618,-4.951602E-05
446.718,-4.946329E-05
446.8181,-4.946329E-05
446.9181,-4.949531E-05
447.0181,-4.943409E-05
447.1181,-4.946235E-05
447.2181,-4.943975E-05
447.3181,-4.943692E-05
447.4181,-4.944163E-05
447.5181,-4.942374E-05
447.6181,-4.939925E-05
447.7181,-4.938795E-05
447.8181,-4.940208E-05
447.9181,-4.936629E-05
448.0181,-4.938136E-05
448.1181,-4.936818E-05
448.2181,-4.932768E-05
448.3181,-4.933521E-05
448.4182,-4.93305E-05
448.5182,-4.927871E-05
448.6182,-4.929001E-05
448.7182,-4.929943E-05
448.8182,-4.928154E-05
448.9182,-4.926835E-05
449.0182,-4.925046E-05
449.1182,-4.923539E-05
449.2182,-4.924386E-05
449.3182,-4.926741E-05
449.4182,-4.920808E-05
449.5182,-4.919489E-05
449.6182,-4.92062E-05
449.7182,-4.917982E-05
449.8182,-4.917794E-05
449.9182,-4.91657E-05
450.0182,-4.914969E-05
450.1183,-4.914687E-05
450.2183,-4.911861E-05
450.3183,-4.910637E-05
450.4183,-4.912897E-05
450.5183,-4.911108E-05
450.6183,-4.908942E-05
450.7183,-4.907718E-05
450.8183,-4.907624E-05
450.9183,-4.905646E-05
451.0183,-4.906211E-05
451.1183,-4.906211E-05
451.2183,-4.901973E-05
451.3183,-4.90235E-05
451.4183,-4.902067E-05
451.5183,-4.898206E-05
451.6183,-4.897736E-05
451.7184,-4.896229E-05
451.8184,-4.898583E-05
451.9184,-4.894816E-05
452.0184,-4.894628E-05
452.1184,-4.891049E-05
452.2184,-4.893121E-05
452.3184,-4.891709E-05
452.4184,-4.890861E-05
452.5184,-4.888129E-05
452.6184,-4.887E-05
452.7184,-4.887753E-05
452.8184,-4.885775E-05
452.9184,-4.885022E-05
453.0184,-4.883139E-05
453.1184,-4.884646E-05
453.2184,-4.882009E-05
453.3185,-4.876829E-05
453.4185,-4.88069E-05
453.5185,-4.88248E-05
453.6185,-4.878806E-05
453.7185,-4.876641E-05
453.8185,-4.875134E-05
453.9185,-4.875417E-05
454.0185,-4.875887E-05
454.1185,-4.877205E-05
454.2185,-4.870614E-05
454.3185,-4.870896E-05
454.4185,-4.870425E-05
454.5185,-4.869295E-05
454.6185,-4.867883E-05
454.7185,-4.86826E-05
454.8185,-4.866375E-05
454.9185,-4.865246E-05
455.0186,-4.864492E-05
455.1186,-4.862044E-05
455.2186,-4.863645E-05
455.3186,-4.864398E-05
455.4186,-4.859596E-05
455.5186,-4.860349E-05
455.6186,-4.859124E-05
455.7186,-4.856017E-05
455.8186,-4.858653E-05
455.9186,-4.8579E-05
456.0186,-4.855358E-05
456.1186,-4.853474E-05
456.2186,-4.852438E-05
456.3186,-4.85046E-05
456.4186,-4.851779E-05
456.5186,-4.852061E-05
456.6187,-4.847447E-05
456.7187,-4.845846E-05
456.8187,-4.847918E-05
456.9187,-4.844622E-05
457.0187,-4.846223E-05
457.1187,-4.844433E-05
457.2187,-4.840855E-05
457.3187,-4.843963E-05
457.4187,-4.84368E-05
457.5187,-4.84142E-05
457.6187,-4.839348E-05
457.7187,-4.838595E-05
457.8187,-4.838218E-05
457.9187,-4.838218E-05
458.0187,-4.835487E-05
458.1187,-4.834263E-05
458.2188,-4.833698E-05
458.3188,-4.835016E-05
458.4188,-4.831532E-05
458.5188,-4.830213E-05
458.6188,-4.83059E-05
458.7188,-4.829742E-05
458.8188,-4.829742E-05
458.9188,-4.825976E-05
459.0188,-4.822679E-05
459.1188,-4.825317E-05
459.2188,-4.825787E-05
459.3188,-4.823998E-05
459.4188,-4.822302E-05
459.5188,-4.821832E-05
459.6188,-4.821361E-05
459.7188,-4.819572E-05
459.8188,-4.819948E-05
459.9189,-4.816841E-05
460.0189,-4.819101E-05
460.1189,-4.818818E-05
460.2189,-4.815899E-05
460.3189,-4.816088E-05
460.4189,-4.814392E-05
460.5189,-4.812415E-05
460.6189,-4.81232E-05
460.7189,-4.812038E-05
460.8189,-4.812509E-05
460.9189,-4.808836E-05
461.0189,-4.80893E-05
461.1189,-4.805352E-05
461.2189,-4.805163E-05
461.3189,-4.807329E-05
461.4189,-4.803751E-05
461.519,-4.801585E-05
461.619,-4.802809E-05
461.719,-4.80036E-05
461.819,-4.800643E-05
461.919,-4.80149E-05
462.019,-4.800455E-05
462.119,-4.798759E-05
462.219,-4.798759E-05
462.319,-4.793392E-05
462.419,-4.795181E-05
462.519,-4.797252E-05
462.619,-4.792356E-05
462.719,-4.790943E-05
462.819,-4.791508E-05
462.919,-4.790284E-05
463.019,-4.787176E-05
463.119,-4.78727E-05
463.2191,-4.788306E-05
463.3191,-4.784633E-05
463.4191,-4.785387E-05
463.5191,-4.785858E-05
463.6191,-4.784351E-05
463.7191,-4.783975E-05
463.8191,-4.781526E-05
463.9191,-4.780961E-05
464.0191,-4.78162E-05
464.1191,-4.779266E-05
464.2191,-4.776346E-05
464.3191,-4.779737E-05
464.4191,-4.77823E-05
464.5191,-4.775499E-05
464.6191,-4.774463E-05
464.7191,-4.771355E-05
464.8192,-4.770131E-05
464.9192,-4.771732E-05
465.0192,-4.770602E-05
465.1192,-4.767117E-05
465.2192,-4.766646E-05
465.3192,-4.764386E-05
465.4192,-4.765233E-05
465.5192,-4.766741E-05
465.6192,-4.763539E-05
465.7192,-4.759866E-05
465.8192,-4.762785E-05
465.9192,-4.759866E-05
466.0192,-4.760902E-05
466.1192,-4.760525E-05
466.2192,-4.757323E-05
466.3192,-4.757512E-05
466.4193,-4.757418E-05
466.5193,-4.752897E-05
466.6193,-4.75318E-05
466.7193,-4.753274E-05
466.8193,-4.751956E-05
466.9193,-4.752426E-05
467.0193,-4.753556E-05
467.1193,-4.749695E-05
467.2193,-4.747153E-05
467.3193,-4.749224E-05
467.4193,-4.745928E-05
467.5193,-4.744422E-05
467.6193,-4.745645E-05
467.7193,-4.744233E-05
467.8193,-4.743197E-05
467.9193,-4.74009E-05
468.0193,-4.739524E-05
468.1194,-4.741314E-05
468.2194,-4.73943E-05
468.3194,-4.7383E-05
468.4194,-4.735004E-05
468.5194,-4.736982E-05
468.6194,-4.736794E-05
468.7194,-4.735192E-05
468.8194,-4.73378E-05
468.9194,-4.731143E-05
469.0194,-4.731614E-05
469.1194,-4.732179E-05
469.2194,-4.732838E-05
469.3194,-4.729542E-05
469.4194,-4.72926E-05
469.5194,-4.728977E-05
469.6194,-4.727659E-05
469.7195,-4.726906E-05
469.8195,-4.72408E-05
469.9195,-4.725304E-05
470.0195,-4.724363E-05
470.1195,-4.721349E-05
470.2195,-4.719842E-05
470.3195,-4.720973E-05
470.4195,-4.723703E-05
470.5195,-4.720784E-05
470.6195,-4.720502E-05
470.7195,-4.716546E-05
470.8195,-4.718336E-05
470.9195,-4.719654E-05
471.0195,-4.715699E-05
471.1195,-4.711744E-05
471.2195,-4.713345E-05
471.3195,-4.71325E-05
471.4196,-4.712403E-05
471.5196,-4.710614E-05
471.6196,-4.708071E-05
471.7196,-4.706281E-05
471.8196,-4.70873E-05
471.9196,-4.707976E-05
472.0196,-4.706093E-05
472.1196,-4.704963E-05
472.2196,-4.701102E-05
472.3196,-4.702138E-05
472.4196,-4.702326E-05
472.5196,-4.701855E-05
472.6196,-4.70016E-05
472.7196,-4.699312E-05
472.8196,-4.69677E-05
472.9196,-4.69677E-05
473.0197,-4.698089E-05
473.1197,-4.695734E-05
473.2197,-4.694604E-05
473.3197,-4.69498E-05
473.4197,-4.695075E-05
473.5197,-4.694415E-05
473.6197,-4.692155E-05
473.7197,-4.688954E-05
473.8197,-4.688765E-05
473.9197,-4.694321E-05
474.0197,-4.688671E-05
474.1197,-4.688012E-05
474.2197,-4.687541E-05
474.3197,-4.68481E-05
474.4197,-4.683491E-05
474.5197,-4.687541E-05
474.6198,-4.683586E-05
474.7198,-4.68255E-05
474.8198,-4.680384E-05
474.9198,-4.680007E-05
475.0198,-4.6785E-05
475.1198,-4.680572E-05
475.2198,-4.6769E-05
475.3198,-4.675864E-05
475.4198,-4.674451E-05
475.5198,-4.67285E-05
475.6198,-4.674828E-05
475.7198,-4.675299E-05
475.8198,-4.671437E-05
475.9198,-4.669648E-05
476.0198,-4.669837E-05
476.1198,-4.669271E-05
476.2198,-4.668989E-05
476.3199,-4.66833E-05
476.4199,-4.663903E-05
476.5199,-4.664375E-05
476.6199,-4.665881E-05
476.7199,-4.666164E-05
476.8199,-4.66315E-05
476.9199,-4.66315E-05
477.0199,-4.659477E-05
477.1199,-4.662868E-05
477.2199,-4.661455E-05
477.3199,-4.659666E-05
477.4199,-4.657123E-05
477.5199,-4.658724E-05
477.6199,-4.658819E-05
477.7199,-4.656841E-05
477.8199,-4.654298E-05
477.92,-4.655522E-05
478.02,-4.654581E-05
478.12,-4.653545E-05
478.22,-4.650719E-05
478.32,-4.649872E-05
478.42,-4.650719E-05
478.52,-4.650343E-05
478.62,-4.649683E-05
478.72,-4.647424E-05
478.82,-4.647235E-05
478.92,-4.646199E-05
479.02,-4.645163E-05
479.12,-4.64328E-05
479.22,-4.643186E-05
479.32,-4.642809E-05
479.42,-4.637723E-05
479.5201,-4.638948E-05
479.6201,-4.641679E-05
479.7201,-4.6381E-05
479.8201,-4.63518E-05
479.9201,-4.637064E-05
480.0201,-4.638195E-05
480.1201,-4.638006E-05
480.2201,-4.637064E-05
480.3201,-4.631508E-05
480.4201,-4.633203E-05
480.5201,-4.635745E-05
480.6201,-4.633014E-05
480.7201,-4.631131E-05
480.8201,-4.631319E-05
480.9201,-4.628588E-05
481.0201,-4.629719E-05
481.1201,-4.628118E-05
481.2202,-4.625104E-05
481.3202,-4.624257E-05
481.4202,-4.625387E-05
481.5202,-4.624068E-05
481.6202,-4.62049E-05
481.7202,-4.623127E-05
481.8202,-4.619831E-05
481.9202,-4.619454E-05
482.0202,-4.619077E-05
482.1202,-4.616534E-05
482.2202,-4.616723E-05
482.3202,-4.618889E-05
482.4202,-4.614463E-05
482.5202,-4.613709E-05
482.6202,-4.613426E-05
482.7202,-4.613426E-05
482.8203,-4.613992E-05
482.9203,-4.61192E-05
483.0203,-4.609942E-05
483.1203,-4.608907E-05
483.2203,-4.609848E-05
483.3203,-4.609E-05
483.4203,-4.609566E-05
483.5203,-4.606835E-05
483.6203,-4.607117E-05
483.7203,-4.605516E-05
483.8203,-4.606552E-05
483.9203,-4.604198E-05
484.0203,-4.60448E-05
484.1203,-4.601938E-05
484.2203,-4.599206E-05
484.3203,-4.598736E-05
484.4203,-4.600713E-05
484.5204,-4.596758E-05
484.6204,-4.597323E-05
484.7204,-4.596193E-05
484.8204,-4.591861E-05
484.9204,-4.595722E-05
485.0204,-4.596853E-05
485.1204,-4.59139E-05
485.2204,-4.59139E-05
485.3204,-4.590261E-05
485.4204,-4.591296E-05
485.5204,-4.592144E-05
485.6204,-4.590449E-05
485.7204,-4.587058E-05
485.8204,-4.588094E-05
485.9204,-4.586399E-05
486.0204,-4.583762E-05
486.1205,-4.585363E-05
486.2205,-4.585269E-05
486.3205,-4.582915E-05
486.4205,-4.582632E-05
486.5205,-4.58235E-05
486.6205,-4.579524E-05
486.7205,-4.580278E-05
486.8205,-4.582255E-05
486.9205,-4.578017E-05
487.0205,-4.576699E-05
487.1205,-4.576605E-05
487.2205,-4.576793E-05
487.3205,-4.578112E-05
487.4205,-4.574628E-05
487.5205,-4.574062E-05
487.6205,-4.573874E-05
487.7206,-4.574345E-05
487.8206,-4.570578E-05
487.9206,-4.570766E-05
488.0206,-4.56973E-05
488.1206,-4.569165E-05
488.2206,-4.570107E-05
488.3206,-4.568789E-05
488.4206,-4.567187E-05
488.5206,-4.565399E-05
488.6206,-4.563892E-05
488.7206,-4.562761E-05
488.8206,-4.564739E-05
488.9206,-4.562668E-05
489.0206,-4.561255E-05
489.1206,-4.562008E-05
489.2206,-4.560408E-05
489.3206,-4.560219E-05
489.4207,-4.561161E-05
489.5207,-4.558806E-05
489.6207,-4.554663E-05
489.7207,-4.555134E-05
489.8207,-4.555792E-05
489.9207,-4.553627E-05
490.0207,-4.555604E-05
490.1207,-4.552026E-05
490.2207,-4.548541E-05
490.3207,-4.550802E-05
490.4207,-4.552214E-05
490.5207,-4.548071E-05
490.6207,-4.548071E-05
490.7207,-4.545246E-05
490.8207,-4.545999E-05
490.9207,-4.547411E-05
491.0208,-4.544115E-05
491.1208,-4.541384E-05
491.2208,-4.544303E-05
491.3208,-4.541761E-05
491.4208,-4.540819E-05
491.5208,-4.539972E-05
491.6208,-4.543833E-05
491.7208,-4.541949E-05
491.8208,-4.538936E-05
491.9208,-4.538371E-05
492.0208,-4.536205E-05
492.1208,-4.537429E-05
492.2208,-4.537994E-05
492.3208,-4.533662E-05
492.4208,-4.534886E-05
492.5208,-4.533568E-05
492.6208,-4.530177E-05
492.7209,-4.529519E-05
492.8209,-4.533473E-05
492.9209,-4.527541E-05
493.0209,-4.526128E-05
493.1209,-4.529519E-05
493.2209,-4.528294E-05
493.3209,-4.527729E-05
493.4209,-4.527447E-05
493.5209,-4.525469E-05
493.6209,-4.52594E-05
493.7209,-4.527635E-05
493.8209,-4.524151E-05
493.9209,-4.523868E-05
494.0209,-4.523679E-05
494.1209,-4.523585E-05
494.2209,-4.521702E-05
494.321,-4.520949E-05
494.421,-4.519725E-05
494.521,-4.522738E-05
494.621,-4.520384E-05
494.721,-4.516711E-05
494.821,-4.518123E-05
494.921,-4.516711E-05
495.021,-4.512662E-05
495.121,-4.515487E-05
495.221,-4.517088E-05
495.321,-4.513227E-05
495.421,-4.51285E-05
495.521,-4.512662E-05
495.621,-4.511626E-05
495.721,-4.510496E-05
495.821,-4.513509E-05
495.9211,-4.507199E-05
496.0211,-4.508706E-05
496.1211,-4.509365E-05
496.2211,-4.507764E-05
496.3211,-4.508612E-05
496.4211,-4.50541E-05
496.5211,-4.502868E-05
496.6211,-4.502585E-05
496.7211,-4.503997E-05
496.8211,-4.502397E-05
496.9211,-4.499948E-05
497.0211,-4.49797E-05
497.1211,-4.495899E-05
497.2211,-4.496934E-05
497.3211,-4.497782E-05
497.4211,-4.495239E-05
497.5211,-4.494109E-05
497.6212,-4.492885E-05
497.7212,-4.491849E-05
497.8212,-4.493638E-05
497.9212,-4.494298E-05
498.0212,-4.490437E-05
498.1212,-4.491284E-05
498.2212,-4.49006E-05
498.3212,-4.491567E-05
498.4212,-4.490625E-05
498.5212,-4.487612E-05
498.6212,-4.484974E-05
498.7212,-4.485634E-05
498.8212,-4.485728E-05
498.9212,-4.483939E-05
499.0212,-4.48488E-05
499.1212,-4.483374E-05
499.2213,-4.480549E-05
499.3213,-4.484504E-05
499.4213,-4.483656E-05
499.5213,-4.48149E-05
499.6213,-4.481679E-05
499.7213,-4.481396E-05
499.8213,-4.479418E-05
499.9213,-4.481584E-05
500.0213,-4.481208E-05
500.1213,-4.477629E-05
500.2213,-4.477535E-05
500.3213,-4.476782E-05
500.4213,-4.478759E-05
500.5213,-4.47923E-05
500.6213,-4.476405E-05
500.7213,-4.474239E-05
500.8214,-4.474804E-05
500.9214,-4.475369E-05
501.0214,-4.470566E-05
501.1214,-4.471414E-05
501.2214,-4.47066E-05
501.3214,-4.469907E-05
501.4214,-4.47066E-05
501.5214,-4.469624E-05
501.6214,-4.467364E-05
501.7214,-4.467081E-05
501.8214,-4.466893E-05
501.9214,-4.464633E-05
502.0214,-4.465293E-05
502.1214,-4.465481E-05
502.2214,-4.461808E-05
502.3214,-4.462091E-05
502.4214,-4.46162E-05
502.5215,-4.464256E-05
502.6215,-4.464162E-05
502.7215,-4.461525E-05
502.8215,-4.459736E-05
502.9215,-4.459359E-05
503.0215,-4.459359E-05
503.1215,-4.457099E-05
503.2215,-4.459077E-05
503.3215,-4.459171E-05
503.4215,-4.455687E-05
503.5215,-4.456252E-05
503.6215,-4.456346E-05
503.7215,-4.456157E-05
503.8215,-4.45757E-05
503.9215,-4.45305E-05
504.0215,-4.451731E-05
504.1216,-4.452014E-05
504.2216,-4.452673E-05
504.3216,-4.449848E-05
504.4216,-4.452014E-05
504.5216,-4.449188E-05
504.6216,-4.4474E-05
504.7216,-4.449566E-05
504.8216,-4.450413E-05
504.9216,-4.44561E-05
505.0216,-4.44853E-05
505.1216,-4.445328E-05
505.2216,-4.444762E-05
505.3216,-4.444197E-05
505.4216,-4.446552E-05
505.5216,-4.441466E-05
505.6216,-4.442409E-05
505.7216,-4.440713E-05
505.8217,-4.439206E-05
505.9217,-4.441184E-05
506.0217,-4.440619E-05
506.1217,-4.438076E-05
506.2217,-4.437323E-05
506.3217,-4.437794E-05
506.4217,-4.436475E-05
506.5217,-4.437605E-05
506.6217,-4.435346E-05
506.7217,-4.432803E-05
506.8217,-4.435251E-05
506.9217,-4.436381E-05
507.0217,-4.433274E-05
507.1217,-4.431578E-05
507.2217,-4.431296E-05
507.3217,-4.431296E-05
507.4218,-4.433933E-05
507.5218,-4.431484E-05
507.6218,-4.427811E-05
507.7218,-4.429695E-05
507.8218,-4.428282E-05
507.9218,-4.427999E-05
508.0218,-4.429601E-05
508.1218,-4.426493E-05
508.2218,-4.424516E-05
508.3218,-4.424139E-05
508.4218,-4.425269E-05
508.5218,-4.42348E-05
508.6218,-4.42574E-05
508.7218,-4.42395E-05
508.8218,-4.41943E-05
508.9218,-4.420654E-05
509.0219,-4.42056E-05
509.1219,-4.419524E-05
509.2219,-4.420842E-05
509.3219,-4.417923E-05
509.4219,-4.415757E-05
509.5219,-4.416699E-05
509.6219,-4.418582E-05
509.7219,-4.416134E-05
509.8219,-4.415381E-05
509.9219,-4.412367E-05
510.0219,-4.416605E-05
510.1219,-4.418206E-05
510.2219,-4.415475E-05
510.3219,-4.410484E-05
510.4219,-4.41265E-05
510.5219,-4.413027E-05
510.6219,-4.409918E-05
510.722,-4.411425E-05
510.822,-4.409071E-05
510.922,-4.407847E-05
511.022,-4.410201E-05
511.122,-4.408412E-05
511.222,-4.405492E-05
511.322,-4.407941E-05
511.422,-4.409824E-05
511.522,-4.40521E-05
511.622,-4.408223E-05
511.722,-4.405964E-05
511.822,-4.404739E-05
511.922,-4.406528E-05
512.022,-4.402573E-05
512.122,-4.402761E-05
512.222,-4.403044E-05
512.322,-4.401537E-05
512.4219,-4.400878E-05
512.5219,-4.400124E-05
512.6219,-4.400219E-05
512.7219,-4.39617E-05
512.8218,-4.397017E-05
512.9218,-4.39843E-05
513.0218,-4.398053E-05
513.1218,-4.399559E-05
513.2217,-4.396075E-05
513.3217,-4.394097E-05
513.4217,-4.394851E-05
513.5217,-4.395698E-05
513.6216,-4.390707E-05
513.7216,-4.39099E-05
513.8216,-4.392779E-05
513.9216,-4.389483E-05
514.0215,-4.387129E-05
514.1215,-4.390896E-05
514.2215,-4.389671E-05
514.3215,-4.39212E-05
514.4214,-4.387976E-05
514.5214,-4.387411E-05
514.6214,-4.386281E-05
514.7214,-4.388165E-05
514.8214,-4.385528E-05
514.9213,-4.386564E-05
515.0213,-4.384492E-05
515.1213,-4.382326E-05
515.2213,-4.382043E-05
515.3212,-4.382797E-05
515.4212,-4.380819E-05
515.5212,-4.381478E-05
515.6212,-4.378842E-05
515.7211,-4.376111E-05
515.8211,-4.378088E-05
515.9211,-4.379218E-05
516.0211,-4.37724E-05
516.121,-4.375639E-05
516.221,-4.374133E-05
516.321,-4.372814E-05
516.421,-4.373473E-05
516.5209,-4.373662E-05
516.6209,-4.371213E-05
516.7209,-4.37272E-05
516.8209,-4.369235E-05
516.9208,-4.369519E-05
517.0208,-4.370178E-05
517.1208,-4.370083E-05
517.2208,-4.367447E-05
517.3207,-4.366693E-05
517.4207,-4.368765E-05
517.5207,-4.364621E-05
517.6207,-4.366034E-05
517.7206,-4.363585E-05
517.8206,-4.361231E-05
517.9206,-4.366693E-05
518.0206,-4.364715E-05
518.1205,-4.362456E-05
518.2205,-4.362738E-05
518.3205,-4.361608E-05
518.4205,-4.35963E-05
518.5204,-4.360195E-05
518.6204,-4.358218E-05
518.7204,-4.359536E-05
518.8204,-4.360666E-05
518.9203,-4.358783E-05
519.0203,-4.355015E-05
519.1203,-4.355958E-05
519.2203,-4.356428E-05
519.3203,-4.356522E-05
519.4202,-4.356334E-05
519.5202,-4.352473E-05
519.6202,-4.352096E-05
519.7202,-4.351814E-05
519.8201,-4.352755E-05
519.9201,-4.35219E-05
520.0201,-4.351625E-05
520.1201,-4.348141E-05
520.22,-4.348329E-05
520.32,-4.347764E-05
520.42,-4.34993E-05
520.52,-4.345222E-05
520.6199,-4.346917E-05
520.7199,-4.34993E-05
520.8199,-4.344939E-05
520.9199,-4.344186E-05
521.0198,-4.345316E-05
521.1198,-4.344751E-05
521.2198,-4.342679E-05
521.3198,-4.342679E-05
521.4197,-4.342114E-05
521.5197,-4.341832E-05
521.6197,-4.344092E-05
521.7197,-4.343244E-05
521.8196,-4.340701E-05
521.9196,-4.342302E-05
522.0196,-4.341549E-05
522.1196,-4.337123E-05
522.2195,-4.338253E-05
522.3195,-4.337876E-05
522.4195,-4.338818E-05
522.5195,-4.335616E-05
522.6194,-4.331943E-05
522.7194,-4.334392E-05
522.8194,-4.338441E-05
522.9194,-4.335051E-05
523.0193,-4.333356E-05
523.1193,-4.330343E-05
523.2193,-4.331284E-05
523.3193,-4.330248E-05
523.4193,-4.329683E-05
523.5192,-4.329118E-05
523.6192,-4.328458E-05
523.7192,-4.326858E-05
523.8192,-4.325634E-05
523.9191,-4.325727E-05
524.0191,-4.327235E-05
524.1191,-4.325822E-05
524.2191,-4.324409E-05
524.319,-4.324692E-05
524.419,-4.319983E-05
524.519,-4.321867E-05
524.619,-4.323374E-05
524.7189,-4.319136E-05
524.8189,-4.318853E-05
524.9189,-4.318476E-05
525.0189,-4.318006E-05
525.1188,-4.320172E-05
525.2188,-4.31857E-05
525.3188,-4.316122E-05
525.4188,-4.315181E-05
525.5187,-4.317723E-05
525.6187,-4.315557E-05
525.7187,-4.313862E-05
525.8187,-4.313485E-05
525.9186,-4.313673E-05
526.0186,-4.315934E-05
526.1186,-4.313956E-05
526.2186,-4.310566E-05
526.3185,-4.308871E-05
526.4185,-4.31292E-05
526.5185,-4.310566E-05
526.6185,-4.31179E-05
526.7184,-4.313579E-05
526.8184,-4.307458E-05
526.9184,-4.31066E-05
527.0184,-4.30953E-05
527.1183,-4.307176E-05
527.2183,-4.308212E-05
527.3183,-4.306422E-05
527.4183,-4.306799E-05
527.5182,-4.305858E-05
527.6182,-4.305669E-05
527.7182,-4.303032E-05
527.8182,-4.30209E-05
527.9182,-4.306046E-05
528.0181,-4.30322E-05
528.1181,-4.30275E-05
528.2181,-4.30096E-05
528.3181,-4.298606E-05
528.418,-4.299548E-05
528.518,-4.301055E-05
528.618,-4.298229E-05
528.718,-4.296629E-05
528.8179,-4.294556E-05
528.9179,-4.295969E-05
529.0179,-4.297005E-05
529.1179,-4.297005E-05
529.2178,-4.290601E-05
529.3178,-4.300301E-05
529.4178,-4.297947E-05
529.5178,-4.29418E-05
529.6177,-4.293521E-05
529.7177,-4.295592E-05
529.8177,-4.292673E-05
529.9177,-4.292297E-05
530.0176,-4.291072E-05
530.1176,-4.289942E-05
530.2176,-4.287305E-05
530.3176,-4.289188E-05
530.4175,-4.287588E-05
530.5175,-4.288435E-05
530.6175,-4.28787E-05
530.7175,-4.285704E-05
530.8174,-4.28448E-05
530.9174,-4.286552E-05
531.0174,-4.283821E-05
531.1174,-4.284009E-05
531.2173,-4.283444E-05
531.3173,-4.282785E-05
531.4173,-4.28109E-05
531.5173,-4.282031E-05
531.6172,-4.281655E-05
531.7172,-4.282219E-05
531.8172,-4.27883E-05
531.9172,-4.277888E-05
532.0172,-4.279018E-05
532.1171,-4.279583E-05
532.2171,-4.277228E-05
532.3171,-4.273085E-05
532.4171,-4.276381E-05
532.517,-4.279489E-05
532.617,-4.276475E-05
532.717,-4.277323E-05
532.817,-4.276098E-05
532.9169,-4.272991E-05
533.0169,-4.27591E-05
533.1169,-4.275251E-05
533.2169,-4.273933E-05
533.3168,-4.272332E-05
533.4168,-4.272426E-05
533.5168,-4.271767E-05
533.6168,-4.272049E-05
533.7167,-4.27073E-05
533.8167,-4.269036E-05
533.9167,-4.268941E-05
534.0167,-4.268188E-05
534.1166,-4.267623E-05
534.2166,-4.266304E-05
534.3166,-4.263573E-05
534.4166,-4.264516E-05
534.5165,-4.265457E-05
534.6165,-4.263668E-05
534.7165,-4.26395E-05
534.8165,-4.262349E-05
534.9164,-4.259712E-05
535.0164,-4.262443E-05
535.1164,-4.262161E-05
535.2164,-4.260937E-05
535.3163,-4.260089E-05
535.4163,-4.260748E-05
535.5163,-4.259618E-05
535.6163,-4.258582E-05
535.7162,-4.258017E-05
535.8162,-4.254344E-05
535.9162,-4.256699E-05
536.0162,-4.255946E-05
536.1161,-4.253968E-05
536.2161,-4.251143E-05
536.3161,-4.255004E-05
536.4161,-4.255192E-05
536.5161,-4.252932E-05
536.616,-4.251708E-05
536.716,-4.251519E-05
536.816,-4.249636E-05
536.916,-4.25199E-05
537.0159,-4.24973E-05
537.1159,-4.250954E-05
537.2159,-4.249353E-05
537.3159,-4.2486E-05
537.4158,-4.250295E-05
537.5158,-4.252367E-05
537.6158,-4.248506E-05
537.7158,-4.24634E-05
537.8157,-4.247376E-05
537.9157,-4.248506E-05
538.0157,-4.248317E-05
538.1157,-4.248317E-05
538.2156,-4.243797E-05
538.3156,-4.244362E-05
538.4156,-4.245963E-05
538.5156,-4.243609E-05
538.6155,-4.241349E-05
538.7155,-4.242573E-05
538.8155,-4.243985E-05
538.9155,-4.242573E-05
539.0154,-4.242385E-05
539.1154,-4.238712E-05
539.2154,-4.238053E-05
539.3154,-4.241537E-05
539.4153,-4.239842E-05
539.5153,-4.236923E-05
539.6153,-4.238053E-05
539.7153,-4.235886E-05
539.8152,-4.237016E-05
539.9152,-4.239183E-05
540.0152,-4.234757E-05
540.1152,-4.232308E-05
540.2151,-4.237394E-05
540.3151,-4.234285E-05
540.4151,-4.233062E-05
540.5151,-4.233627E-05
540.6151,-4.23212E-05
540.715,-4.231743E-05
540.815,-4.232873E-05
540.915,-4.228541E-05
541.015,-4.230425E-05
541.1149,-4.233532E-05
541.2149,-4.230236E-05
541.3149,-4.226564E-05
541.4149,-4.229106E-05
541.5148,-4.229294E-05
541.6148,-4.225904E-05
541.7148,-4.229765E-05
541.8148,-4.227034E-05
541.9147,-4.225057E-05
542.0147,-4.224868E-05
542.1147,-4.224868E-05
542.2147,-4.225716E-05
542.3146,-4.224303E-05
542.4146,-4.223079E-05
542.5146,-4.223833E-05
542.6146,-4.223739E-05
542.7145,-4.220631E-05
542.8145,-4.21903E-05
542.9145,-4.221855E-05
543.0145,-4.220254E-05
543.1144,-4.217335E-05
543.2144,-4.219783E-05
543.3144,-4.22242E-05
543.4144,-4.219877E-05
543.5143,-4.220254E-05
543.6143,-4.219218E-05
543.7143,-4.215639E-05
543.8143,-4.219971E-05
543.9142,-4.216958E-05
544.0142,-4.215545E-05
544.1142,-4.223833E-05
544.2142,-4.224303E-05
544.3141,-4.217994E-05
544.4141,-4.216864E-05
544.5141,-4.218653E-05
544.6141,-4.214792E-05
544.7141,-4.217523E-05
544.814,-4.215451E-05
544.914,-4.210837E-05
545.014,-4.213285E-05
545.114,-4.213473E-05
545.2139,-4.214227E-05
545.3139,-4.210271E-05
545.4139,-4.20933E-05
545.5139,-4.211778E-05
545.6138,-4.211684E-05
545.7138,-4.207823E-05
545.8138,-4.206881E-05
545.9138,-4.210837E-05
546.0137,-4.209424E-05
546.1137,-4.204621E-05
546.2137,-4.205563E-05
546.3137,-4.205845E-05
546.4136,-4.206787E-05
546.5136,-4.20933E-05
546.6136,-4.207635E-05
546.7136,-4.202644E-05
546.8135,-4.203962E-05
546.9135,-4.205751E-05
547.0135,-4.20189E-05
547.1135,-4.202644E-05
547.2134,-4.201419E-05
547.3134,-4.201137E-05
547.4134,-4.202078E-05
547.5134,-4.201608E-05
547.6133,-4.199442E-05
547.7133,-4.199442E-05
547.8133,-4.201419E-05
547.9133,-4.198029E-05
548.0132,-4.199818E-05
548.1132,-4.196993E-05
548.2132,-4.194827E-05
548.3132,-4.197464E-05
548.4131,-4.199065E-05
548.5131,-4.195675E-05
548.6131,-4.195581E-05
548.7131,-4.193132E-05
548.813,-4.195204E-05
548.913,-4.197746E-05
549.013,-4.194545E-05
549.113,-4.190307E-05
549.213,-4.192096E-05
549.3129,-4.191814E-05
549.4129,-4.189459E-05
549.5129,-4.190213E-05
549.6129,-4.189742E-05
549.7128,-4.187952E-05
549.8128,-4.189365E-05
549.9128,-4.192002E-05
550.0128,-4.188141E-05
550.1127,-4.188894E-05
550.2127,-4.187482E-05
550.3127,-4.185316E-05
550.4127,-4.185786E-05
550.5126,-4.187576E-05
550.6126,-4.183903E-05
550.7126,-4.183809E-05
550.8126,-4.18315E-05
550.9125,-4.182208E-05
551.0125,-4.183338E-05
551.1125,-4.185598E-05
551.2125,-4.180513E-05
551.3124,-4.181078E-05
551.4124,-4.179665E-05
551.5124,-4.179948E-05
551.6124,-4.179854E-05
551.7123,-4.179571E-05
551.8123,-4.177123E-05
551.9123,-4.178158E-05
552.0123,-4.177782E-05
552.1122,-4.176934E-05
552.2122,-4.178441E-05
552.3122,-4.178629E-05
552.4122,-4.176087E-05
552.5121,-4.177405E-05
552.6121,-4.175616E-05
552.7121,-4.175521E-05
552.8121,-4.17571E-05
552.912,-4.174297E-05
553.012,-4.174862E-05
553.112,-4.174015E-05
553.212,-4.172696E-05
553.312,-4.173827E-05
553.4119,-4.174956E-05
553.5119,-4.170625E-05
553.6119,-4.167799E-05
553.7119,-4.172508E-05
553.8118,-4.172696E-05
553.9118,-4.168647E-05
554.0118,-4.169495E-05
554.1118,-4.167046E-05
554.2117,-4.165727E-05
554.3117,-4.167423E-05
554.4117,-4.167988E-05
554.5117,-4.165257E-05
554.6116,-4.164692E-05
554.7116,-4.167329E-05
554.8116,-4.16601E-05
554.9116,-4.165633E-05
555.0115,-4.163279E-05
555.1115,-4.16375E-05
555.2115,-4.165068E-05
555.3115,-4.164786E-05
555.4114,-4.158947E-05
555.5114,-4.16036E-05
555.6114,-4.163091E-05
555.7114,-4.161772E-05
555.8113,-4.159983E-05
555.9113,-4.159041E-05
556.0113,-4.161679E-05
556.1113,-4.161396E-05
556.2112,-4.160925E-05
556.3112,-4.157911E-05
556.4112,-4.156781E-05
556.5112,-4.160925E-05
556.6111,-4.158194E-05
556.7111,-4.157629E-05
556.8111,-4.158288E-05
556.9111,-4.156216E-05
557.011,-4.156781E-05
557.111,-4.156781E-05
557.211,-4.153579E-05
557.311,-4.151413E-05
557.4109,-4.154144E-05
557.5109,-4.155463E-05
557.6109,-4.151131E-05
557.7109,-4.153674E-05
557.8109,-4.150848E-05
557.9108,-4.150283E-05
558.0108,-4.151225E-05
558.1108,-4.149341E-05
558.2108,-4.150378E-05
558.3107,-4.148776E-05
558.4107,-4.146328E-05
558.5107,-4.151131E-05
558.6107,-4.15179E-05
558.7106,-4.14953E-05
558.8106,-4.145574E-05
558.9106,-4.148023E-05
559.0106,-4.146893E-05
559.1105,-4.145669E-05
559.2105,-4.144916E-05
559.3105,-4.143503E-05
559.4105,-4.145386E-05
559.5104,-4.147552E-05
559.6104,-4.142279E-05
559.7104,-4.137664E-05
559.8104,-4.145386E-05
559.9103,-4.145763E-05
560.0103,-4.143126E-05
560.1103,-4.142749E-05
560.2103,-4.141148E-05
560.3102,-4.14096E-05
560.4102,-4.143597E-05
560.5102,-4.140113E-05
560.6102,-4.137099E-05
560.7101,-4.140207E-05
560.8101,-4.13983E-05
560.9101,-4.137193E-05
561.0101,-4.135498E-05
561.11,-4.136534E-05
561.21,-4.136252E-05
561.31,-4.138417E-05
561.41,-4.134839E-05
561.5099,-4.131731E-05
561.6099,-4.141055E-05
561.7099,-4.140866E-05
561.8099,-4.136722E-05
561.9099,-4.134274E-05
562.0098,-4.134462E-05
562.1098,-4.133991E-05
562.2098,-4.137005E-05
562.3098,-4.132485E-05
562.4097,-4.131072E-05
562.5097,-4.131448E-05
562.6097,-4.128529E-05
562.7097,-4.130318E-05
562.8096,-4.13126E-05
562.9096,-4.130884E-05
563.0096,-4.125798E-05
563.1096,-4.127493E-05
563.2095,-4.127211E-05
563.3095,-4.126646E-05
563.4095,-4.127305E-05
563.5095,-4.123632E-05
563.6094,-4.119959E-05
563.7094,-4.125516E-05
563.8094,-4.128153E-05
563.9094,-4.124668E-05
564.0093,-4.122973E-05
564.1093,-4.122785E-05
564.2093,-4.122219E-05
564.3093,-4.125704E-05
564.4092,-4.122314E-05
564.5092,-4.118359E-05
564.6092,-4.12448E-05
564.7092,-4.124856E-05
564.8091,-4.120713E-05
564.9091,-4.122408E-05
565.0091,-4.12043E-05
565.1091,-4.117417E-05
565.209,-4.118547E-05
565.309,-4.120524E-05
565.409,-4.119771E-05
565.509,-4.118547E-05
565.6089,-4.115816E-05
565.7089,-4.115721E-05
565.8089,-4.118924E-05
565.9089,-4.123444E-05
566.0089,-4.117793E-05
566.1088,-4.116664E-05
566.2088,-4.115721E-05
566.3088,-4.113933E-05
566.4088,-4.116569E-05
566.5087,-4.114686E-05
566.6087,-4.112049E-05
566.7087,-4.113462E-05
566.8087,-4.113933E-05
566.9086,-4.11073E-05
567.0086,-4.110636E-05
567.1086,-4.111202E-05
567.2086,-4.11186E-05
567.3085,-4.113838E-05
567.4085,-4.111295E-05
567.5085,-4.110919E-05
567.6085,-4.11186E-05
567.7084,-4.109318E-05
567.8084,-4.109224E-05
567.9084,-4.110354E-05
568.0084,-4.111202E-05
568.1083,-4.109883E-05
568.2083,-4.109224E-05
568.3083,-4.105928E-05
568.4083,-4.104138E-05
568.5082,-4.10621E-05
568.6082,-4.108753E-05
568.7082,-4.103856E-05
568.8082,-4.10056E-05
568.9081,-4.103856E-05
569.0081,-4.104327E-05
569.1081,-4.104986E-05
569.2081,-4.104986E-05
569.308,-4.101125E-05
569.408,-4.103573E-05
569.508,-4.102255E-05
569.608,-4.101125E-05
569.7079,-4.100183E-05
569.8079,-4.101878E-05
569.9079,-4.099618E-05
570.0079,-4.102726E-05
570.1078,-4.099524E-05
570.2078,-4.097546E-05
570.3078,-4.09717E-05
570.4078,-4.099241E-05
570.5078,-4.09604E-05
570.6077,-4.099335E-05
570.7077,-4.095286E-05
570.8077,-4.092084E-05
570.9077,-4.094344E-05
571.0076,-4.09717E-05
571.1076,-4.095098E-05
571.2076,-4.094721E-05
571.3076,-4.094627E-05
571.4075,-4.091425E-05
571.5075,-4.093309E-05
571.6075,-4.095474E-05
571.7075,-4.091236E-05
571.8074,-4.091896E-05
571.9074,-4.091425E-05
572.0074,-4.090389E-05
572.1074,-4.090671E-05
572.2073,-4.091896E-05
572.3073,-4.090766E-05
572.4073,-4.089541E-05
572.5073,-4.087658E-05
572.6072,-4.087376E-05
572.7072,-4.089165E-05
572.8072,-4.088883E-05
572.9072,-4.085398E-05
573.0071,-4.083797E-05
573.1071,-4.08634E-05
573.2071,-4.084174E-05
573.3071,-4.08521E-05
573.407,-4.085021E-05
573.507,-4.081631E-05
573.607,-4.084927E-05
573.707,-4.084079E-05
573.8069,-4.08229E-05
573.9069,-4.080972E-05
574.0069,-4.082196E-05
574.1069,-4.082102E-05
574.2068,-4.081537E-05
574.3068,-4.080407E-05
574.4068,-4.078523E-05
574.5068,-4.080972E-05
574.6068,-4.082573E-05
574.7067,-4.077582E-05
574.8067,-4.076451E-05
574.9067,-4.0789E-05
575.0067,-4.077299E-05
575.1066,-4.078052E-05
575.2066,-4.078241E-05
575.3066,-4.078994E-05
575.4066,-4.078712E-05
575.5065,-4.077394E-05
575.6065,-4.075039E-05
575.7065,-4.075981E-05
575.8065,-4.078147E-05
575.9064,-4.076075E-05
576.0064,-4.075604E-05
576.1064,-4.07551E-05
576.2064,-4.073061E-05
576.3063,-4.073626E-05
576.4063,-4.074756E-05
576.5063,-4.072496E-05
576.6063,-4.076169E-05
576.7062,-4.071178E-05
576.8062,-4.069294E-05
576.9062,-4.07212E-05
577.0062,-4.071743E-05
577.1061,-4.068259E-05
577.2061,-4.07146E-05
577.3061,-4.07033E-05
577.4061,-4.067222E-05
577.506,-4.069294E-05
577.606,-4.070236E-05
577.706,-4.06694E-05
577.806,-4.068918E-05
577.9059,-4.067882E-05
578.0059,-4.065527E-05
578.1059,-4.066375E-05
578.2059,-4.067034E-05
578.3058,-4.065716E-05
578.4058,-4.06581E-05
578.5058,-4.066281E-05
578.6058,-4.063173E-05
578.7057,-4.064021E-05
578.8057,-4.063832E-05
578.9057,-4.06355E-05
579.0057,-4.067787E-05
579.1057,-4.065716E-05
579.2056,-4.063079E-05
579.3056,-4.064209E-05
579.4056,-4.062232E-05
579.5056,-4.062326E-05
579.6055,-4.062985E-05
579.7055,-4.061384E-05
579.8055,-4.060536E-05
579.9055,-4.062326E-05
580.0054,-4.061195E-05
580.1054,-4.057711E-05
580.2054,-4.05903E-05
580.3054,-4.059783E-05
580.4053,-4.05724E-05
580.5053,-4.059689E-05
580.6053,-4.057523E-05
580.7053,-4.056299E-05
580.8052,-4.057146E-05
580.9052,-4.057428E-05
581.0052,-4.055828E-05
581.1052,-4.058464E-05
581.2051,-4.054791E-05
581.3051,-4.052344E-05
581.4051,-4.055169E-05
581.5051,-4.057523E-05
581.605,-4.053756E-05
581.705,-4.053567E-05
581.805,-4.053473E-05
581.905,-4.051213E-05
582.0049,-4.054038E-05
582.1049,-4.052532E-05
582.2049,-4.049047E-05
582.3049,-4.050837E-05
582.4048,-4.050648E-05
582.5048,-4.049989E-05
582.6048,-4.052437E-05
582.7048,-4.050459E-05
582.8047,-4.048482E-05
582.9047,-4.050459E-05
583.0047,-4.04754E-05
583.1047,-4.047823E-05
583.2047,-4.048388E-05
583.3046,-4.048859E-05
583.4046,-4.04528E-05
583.5046,-4.046975E-05
583.6046,-4.046316E-05
583.7045,-4.04528E-05
583.8045,-4.04707E-05
583.9045,-4.044903E-05
584.0045,-4.043397E-05
584.1044,-4.044244E-05
584.2044,-4.04302E-05
584.3044,-4.041514E-05
584.4044,-4.045375E-05
584.5043,-4.04302E-05
584.6043,-4.038782E-05
584.7043,-4.041231E-05
584.8043,-4.040854E-05
584.9042,-4.038971E-05
585.0042,-4.040759E-05
585.1042,-4.038029E-05
585.2042,-4.036899E-05
585.3041,-4.037276E-05
585.4041,-4.042737E-05
585.5041,-4.040101E-05
585.6041,-4.038594E-05
585.704,-4.03558E-05
585.804,-4.038688E-05
585.904,-4.042455E-05
586.004,-4.039536E-05
586.1039,-4.035769E-05
586.2039,-4.038029E-05
586.3039,-4.035863E-05
586.4039,-4.034639E-05
586.5038,-4.037558E-05
586.6038,-4.035204E-05
586.7038,-4.032661E-05
586.8038,-4.033226E-05
586.9037,-4.034545E-05
587.0037,-4.03219E-05
587.1037,-4.03398E-05
587.2037,-4.03511E-05
587.3036,-4.031719E-05
587.4036,-4.033038E-05
587.5036,-4.032096E-05
587.6036,-4.030495E-05
587.7036,-4.031625E-05
587.8035,-4.03106E-05
587.9035,-4.029365E-05
588.0035,-4.030777E-05
588.1035,-4.029742E-05
588.2034,-4.027199E-05
588.3034,-4.02927E-05
588.4034,-4.028612E-05
588.5034,-4.028047E-05
588.6033,-4.025787E-05
588.7033,-4.028235E-05
588.8033,-4.025221E-05
588.9033,-4.027105E-05
589.0032,-4.024186E-05
589.1032,-4.023714E-05
589.2032,-4.029648E-05
589.3032,-4.028706E-05
589.4031,-4.025221E-05
589.5031,-4.025504E-05
589.6031,-4.024186E-05
589.7031,-4.022302E-05
589.803,-4.027952E-05
589.903,-4.023526E-05
590.003,-4.019383E-05
590.103,-4.023714E-05
590.2029,-4.025127E-05
590.3029,-4.019948E-05
590.4029,-4.023056E-05
590.5029,-4.021643E-05
590.6028,-4.019006E-05
590.7028,-4.021549E-05
590.8028,-4.021266E-05
590.9028,-4.018912E-05
591.0027,-4.021549E-05
591.1027,-4.021549E-05
591.2027,-4.018723E-05
591.3027,-4.018818E-05
591.4026,-4.019006E-05
591.5026,-4.018064E-05
591.6026,-4.019665E-05
591.7026,-4.01797E-05
591.8026,-4.018158E-05
591.9025,-4.019194E-05
592.0025,-4.016557E-05
592.1025,-4.016369E-05
592.2025,-4.016746E-05
592.3024,-4.015333E-05
592.4024,-4.013826E-05
592.5024,-4.014203E-05
592.6024,-4.017405E-05
592.7023,-4.013356E-05
592.8023,-4.013261E-05
592.9023,-4.013356E-05
593.0023,-4.013732E-05
593.1022,-4.016369E-05
593.2022,-4.011755E-05
593.3022,-4.009871E-05
593.4022,-4.010342E-05
593.5021,-4.012885E-05
593.6021,-4.011661E-05
593.7021,-4.011849E-05
593.8021,-4.010342E-05
593.902,-4.007329E-05
594.002,-4.009871E-05
594.102,-4.009683E-05
594.202,-4.008364E-05
594.3019,-4.008835E-05
594.4019,-4.010624E-05
594.5019,-4.008364E-05
594.6019,-4.007988E-05
594.7018,-4.00827E-05
594.8018,-4.006104E-05
594.9018,-4.008176E-05
595.0018,-4.008176E-05
595.1017,-4.004126E-05
595.2017,-4.009212E-05
595.3017,-4.006481E-05
595.4017,-4.00262E-05
595.5016,-4.005633E-05
595.6016,-4.006481E-05
595.7016,-4.00422E-05
595.8016,-4.004503E-05
595.9016,-4.005257E-05
596.0015,-4.007329E-05
596.1015,-4.006575E-05
596.2015,-4.003467E-05
596.3015,-4.002525E-05
596.4014,-4.003844E-05
596.5014,-4.003938E-05
596.6014,-4.001867E-05
596.7014,-4.002243E-05
596.8013,-4.002808E-05
596.9013,-3.999794E-05
597.0013,-4.00083E-05
597.1013,-3.998759E-05
597.2012,-3.998759E-05
597.3012,-3.999606E-05
597.4012,-3.999229E-05
597.5012,-3.996875E-05
597.6011,-3.9997E-05
597.7011,-3.998099E-05
597.8011,-3.994332E-05
597.9011,-3.996781E-05
598.001,-3.997158E-05
598.101,-3.995368E-05
598.201,-3.996969E-05
598.301,-3.99631E-05
598.4009,-3.993108E-05
598.5009,-3.993391E-05
598.6009,-3.994898E-05
598.7009,-3.993579E-05
598.8008,-3.994803E-05
598.9008,-3.99179E-05
599.0008,-3.992731E-05
599.1008,-3.997158E-05
599.2007,-3.996781E-05
599.3007,-3.989059E-05
599.4007,-3.991037E-05
599.5007,-3.993673E-05
599.6006,-3.991978E-05
599.7006,-3.993391E-05
599.8006,-3.991225E-05
599.9006,-3.990283E-05
600.0005,-3.990472E-05
