EXPID. 0987
[电化学]: i-t : @ 0(V) X 600(sec)
起始电位 (V),0
静置时间 (秒),0
运行时间 (秒),600
记录间隔,0.1
电解液 信息:
HNO3,0.4
0.1,-0.01005814
0.2,-0.01005814
0.3,-0.01005814
0.4,-0.01005814
0.5,-0.01005814
0.6,-0.01005814
0.7,-0.01005814
0.8000001,-0.01005814
0.9000001,-0.01005814
1,-0.01005814
1.1,-0.01005814
1.2,-0.01005814
1.3,-0.01005814
1.4,-0.01005814
1.5,-0.01005814
1.6,-0.01005814
1.7,-0.01005814
1.8,-0.01005814
1.9,-0.01005814
2,-0.01005814
2.1,-0.01005814
2.2,-0.01005814
2.3,-0.01005814
2.4,-0.01005814
2.5,-0.01005814
2.6,-0.01005814
2.7,-0.01005814
2.799999,-0.01005814
2.899999,-0.01005814
2.999999,-0.01005814
3.099999,-0.01005814
3.199999,-0.01005814
3.299999,-0.01005814
3.399999,-0.01005814
3.499999,-0.01005814
3.599999,-0.01005814
3.699999,-0.01005814
3.799999,-0.01005814
3.899998,-0.01005814
3.999998,-0.01005814
4.099998,-0.01005814
4.199998,-0.01005814
4.299998,-0.01005814
4.399998,-0.01005814
4.499998,-0.01005814
4.599998,-0.01005814
4.699998,-0.01005814
4.799998,-0.01005814
4.899998,-0.01005814
4.999998,-0.01005814
5.099998,-0.01005814
5.199997,-0.01005814
5.299997,-0.01005814
5.399997,-0.01005814
5.499997,-0.01005814
5.599997,-0.01005814
5.699997,-0.01005814
5.799997,-0.01005814
5.899997,-0.01005814
5.999997,-0.01005814
6.099997,-0.01005814
6.199996,-0.01005814
6.299996,-0.01005814
6.399996,-0.01005814
6.499996,-0.01005814
6.599996,-0.01005814
6.699996,-0.01005814
6.799996,-0.01005814
6.899996,-0.01005814
6.999996,-0.01005814
7.099996,-0.01005814
7.199996,-0.01005814
7.299995,-0.01005814
7.399995,-0.01005814
7.499995,-0.01005814
7.599995,-0.01005814
7.699995,-0.01005814
7.799995,-0.01005814
7.899995,-0.01005814
7.999995,-0.01005814
8.099995,-0.01005814
8.199995,-0.01005814
8.299995,-0.01005814
8.399996,-0.01005814
8.499996,-0.01005814
8.599997,-0.01005814
8.699997,-0.01005814
8.799997,-0.01005814
8.899998,-0.01005814
8.999998,-0.01005814
9.099998,-0.01005814
9.199999,-0.01005814
9.299999,-0.01005814
9.4,-0.01005814
9.5,-0.01005814
9.6,-0.01005814
9.700001,-0.01005814
9.800001,-0.01005814
9.900002,-0.01005814
10,-0.01005814
10.1,-0.003824795
10.2,-0.000682449
10.3,-0.00404873
10.4,-0.006418974
10.5,-0.007458869
10.6,-0.008236452
10.7,-0.008850539
10.8,-0.009271866
10.90001,-0.009496422
11.00001,-0.009575548
11.10001,-0.009566993
11.20001,-0.009506833
11.30001,-0.009422464
11.40001,-0.009325236
11.50001,-0.009230242
11.60001,-0.009123093
11.70001,-0.009025712
11.80001,-0.008932019
11.90001,-0.008828419
12.00001,-0.008743341
12.10001,-0.008650871
12.20001,-0.008562423
12.30001,-0.008480985
12.40001,-0.008399363
12.50001,-0.008319564
12.60001,-0.008241574
12.70001,-0.008164789
12.80001,-0.008089207
12.90001,-0.00801906
13.00001,-0.007947464
13.10001,-0.007879893
13.20001,-0.007813366
13.30001,-0.007744568
13.40001,-0.007681126
13.50002,-0.007621507
13.60002,-0.007553875
13.70002,-0.007496607
13.80002,-0.007436493
13.90002,-0.007378153
14.00002,-0.007320249
14.10002,-0.007261201
14.20002,-0.007209634
14.30002,-0.007149639
14.40002,-0.007091638
14.50002,-0.007042697
14.60002,-0.006989964
14.70002,-0.006931473
14.80002,-0.006883985
14.90002,-0.006833066
15.00002,-0.006776873
15.10002,-0.006727496
15.20002,-0.006683234
15.30002,-0.006625493
15.40002,-0.006577997
15.50002,-0.006531937
15.60002,-0.006479869
15.70002,-0.006434591
15.80002,-0.006383847
15.90002,-0.006333145
16.00002,-0.006287496
16.10003,-0.00624062
16.20003,-0.00619251
16.30003,-0.006147027
16.40003,-0.006098707
16.50003,-0.006050809
16.60003,-0.006006699
16.70003,-0.005960339
16.80003,-0.00591319
16.90003,-0.005871764
17.00003,-0.005820962
17.10003,-0.005779051
17.20003,-0.005732435
17.30003,-0.005687367
17.40003,-0.005642796
17.50003,-0.005597517
17.60003,-0.005551558
17.70003,-0.00550732
17.80003,-0.005462334
17.90003,-0.005417146
18.00003,-0.005371327
18.10003,-0.005328421
18.20003,-0.005282681
18.30003,-0.005239531
18.40003,-0.005192286
18.50003,-0.005149812
18.60003,-0.005106501
18.70004,-0.005061149
18.80004,-0.005021011
18.90004,-0.00497734
19.00004,-0.00493274
19.10004,-0.004891731
19.20004,-0.004850183
19.30004,-0.004807179
19.40004,-0.004766372
19.50004,-0.004726884
19.60004,-0.004684722
19.70004,-0.004645629
19.80004,-0.004607764
19.90004,-0.004566949
20.00004,-0.004530117
20.10004,-0.004492241
20.20004,-0.004455276
20.30004,-0.004418742
20.40004,-0.004382801
20.50004,-0.004348343
20.60004,-0.004314406
20.70004,-0.004279858
20.80004,-0.004247148
20.90004,-0.004214268
21.00004,-0.00418179
21.10004,-0.004150281
21.20004,-0.00411933
21.30005,-0.004088446
21.40005,-0.004058367
21.50005,-0.004028627
21.60005,-0.003998672
21.70005,-0.003971004
21.80005,-0.003941632
21.90005,-0.00391383
22.00005,-0.003885817
22.10005,-0.003858014
22.20005,-0.003830658
22.30005,-0.00380471
22.40005,-0.003777567
22.50005,-0.003751597
22.60005,-0.003725899
22.70005,-0.003700215
22.80005,-0.003674657
22.90005,-0.003649677
23.00005,-0.003625658
23.10005,-0.003601246
23.20005,-0.003577854
23.30005,-0.003553338
23.40005,-0.003530151
23.50005,-0.003506859
23.60005,-0.003483879
23.70005,-0.003461218
23.80005,-0.003438501
23.90005,-0.00341584
24.00006,-0.003394064
24.10006,-0.00337251
24.20006,-0.003350391
24.30006,-0.003329086
24.40006,-0.003308289
24.50006,-0.003286921
24.60006,-0.003266147
24.70006,-0.003246083
24.80006,-0.003225261
24.90006,-0.003205016
25.00006,-0.003185764
25.10006,-0.003165612
25.20006,-0.003145768
25.30006,-0.003127037
25.40006,-0.003107297
25.50006,-0.003088241
25.60006,-0.003069853
25.70006,-0.003050766
25.80006,-0.003032554
25.90006,-0.003014165
26.00006,-0.002995923
26.10006,-0.002977965
26.20006,-0.002960421
26.30006,-0.002942581
26.40006,-0.002925631
26.50006,-0.002907789
26.60007,-0.002890851
26.70007,-0.00287369
26.80007,-0.002856862
26.90007,-0.002839938
27.00007,-0.002823889
27.10007,-0.002806854
27.20007,-0.00279088
27.30007,-0.00277494
27.40007,-0.002758928
27.50007,-0.002743003
27.60007,-0.002727767
27.70007,-0.002711524
27.80007,-0.002696557
27.90007,-0.002681236
28.00007,-0.002665726
28.10007,-0.002650904
28.20007,-0.002636218
28.30007,-0.002621273
28.40007,-0.002607037
28.50007,-0.002592002
28.60007,-0.002578424
28.70007,-0.002563745
28.80007,-0.002549195
28.90007,-0.002535754
29.00007,-0.002521686
29.10007,-0.002507593
29.20008,-0.002493945
29.30008,-0.002480559
29.40008,-0.002467005
29.50008,-0.002453496
29.60008,-0.002440613
29.70008,-0.002427118
29.80008,-0.002413981
29.90008,-0.002401639
30.00008,-0.002388484
30.10008,-0.002376022
30.20008,-0.00236329
30.30008,-0.0023506
30.40008,-0.002338504
30.50008,-0.002326145
30.60008,-0.002313413
30.70008,-0.002302295
30.80008,-0.002290342
30.90008,-0.002277954
31.00008,-0.002266568
31.10008,-0.002254743
31.20008,-0.002242786
31.30008,-0.0022316
31.40008,-0.002220282
31.50008,-0.00220833
31.60008,-0.002197462
31.70008,-0.002186585
31.80009,-0.002175058
31.90009,-0.002164331
32.00008,-0.002153533
32.10008,-0.002142505
32.20008,-0.002131789
32.30008,-0.002121065
32.40008,-0.002110534
32.50008,-0.00210015
32.60007,-0.002089804
32.70007,-0.002079179
32.80007,-0.002069359
32.90007,-0.002059223
33.00007,-0.002048703
33.10007,-0.00203895
33.20007,-0.002029004
33.30006,-0.002018997
33.40006,-0.00200964
33.50006,-0.00200004
33.60006,-0.001990477
33.70006,-0.001980661
33.80006,-0.001971414
33.90005,-0.001961871
34.00005,-0.001952411
34.10005,-0.001943174
34.20005,-0.001934051
34.30005,-0.001924787
34.40005,-0.001915821
34.50005,-0.001906977
34.60004,-0.001897826
34.70004,-0.001889023
34.80004,-0.00188015
34.90004,-0.001871147
35.00004,-0.001862781
35.10004,-0.001854312
35.20004,-0.001845399
35.30003,-0.001837129
35.40003,-0.001828679
35.50003,-0.00182046
35.60003,-0.001812371
35.70003,-0.001803739
35.80003,-0.001795673
35.90002,-0.001787583
36.00002,-0.00177947
36.10002,-0.001771409
36.20002,-0.001763759
36.30002,-0.001755672
36.40002,-0.001747833
36.50002,-0.001740571
36.60001,-0.001732481
36.70001,-0.001724676
36.80001,-0.00171738
36.90001,-0.001709848
37.00001,-0.001702061
37.10001,-0.001695013
37.2,-0.001687588
37.3,-0.001680029
37.4,-0.001672936
37.5,-0.001665712
37.6,-0.001658507
37.7,-0.001651069
37.8,-0.001644176
37.89999,-0.001637283
37.99999,-0.001630202
38.09999,-0.001623006
38.19999,-0.001616209
38.29999,-0.001609138
38.39999,-0.001602442
38.49998,-0.001595765
38.59998,-0.001588956
38.69998,-0.001581929
38.79998,-0.001575482
38.89998,-0.001568902
38.99998,-0.001562084
39.09998,-0.001555819
39.19997,-0.001549364
39.29997,-0.001542542
39.39997,-0.001536521
39.49997,-0.001530151
39.59997,-0.001523831
39.69997,-0.001517601
39.79996,-0.001511428
39.89996,-0.001505009
39.99996,-0.001498856
40.09996,-0.001492819
40.19996,-0.00148667
40.29996,-0.001480722
40.39996,-0.001474678
40.49995,-0.00146869
40.59995,-0.00146293
40.69995,-0.001456909
40.79995,-0.001450998
40.89995,-0.001445347
40.99995,-0.001439549
41.09995,-0.001433844
41.19994,-0.001428294
41.29994,-0.00142236
41.39994,-0.001416687
41.49994,-0.001411265
41.59994,-0.001405509
41.69994,-0.001400117
41.79993,-0.001394815
41.89993,-0.001389131
41.99993,-0.001383803
42.09993,-0.00137857
42.19993,-0.001373209
42.29993,-0.001367896
42.39993,-0.001362611
42.49992,-0.001357257
42.59992,-0.00135215
42.69992,-0.001346986
42.79992,-0.001341624
42.89992,-0.001336517
42.99992,-0.001331463
43.09991,-0.001326297
43.19991,-0.001321232
43.29991,-0.001316445
43.39991,-0.00131127
43.49991,-0.00130635
43.59991,-0.001301523
43.69991,-0.001296474
43.7999,-0.001291728
43.8999,-0.001286922
43.9999,-0.001281998
44.0999,-0.001277284
44.1999,-0.001272566
44.2999,-0.001267853
44.39989,-0.00126322
44.49989,-0.001258333
44.59989,-0.001253737
44.69989,-0.001249146
44.79989,-0.001244474
44.89989,-0.001239848
44.99989,-0.001235602
45.09988,-0.001230792
45.19988,-0.001226334
45.29988,-0.00122214
45.39988,-0.001217625
45.49988,-0.001213006
45.59988,-0.001208961
45.69987,-0.001204502
45.79987,-0.001199938
45.89987,-0.001195846
45.99987,-0.001191538
46.09987,-0.001187115
46.19987,-0.00118281
46.29987,-0.00117865
46.39986,-0.001174351
46.49986,-0.001170249
46.59986,-0.00116608
46.69986,-0.001161875
46.79986,-0.001157832
46.89986,-0.001153618
46.99986,-0.001149593
47.09985,-0.001145778
47.19985,-0.001141451
47.29985,-0.001137636
47.39985,-0.001133648
47.49985,-0.001129607
47.59985,-0.001125743
47.69984,-0.001121931
47.79984,-0.00111786
47.89984,-0.001114041
47.99984,-0.001110295
48.09984,-0.00110612
48.19984,-0.001102477
48.29984,-0.00109872
48.39983,-0.001094775
48.49983,-0.001091189
48.59983,-0.001087329
48.69983,-0.001083855
48.79983,-0.001080092
48.89983,-0.001076306
48.99982,-0.001072742
49.09982,-0.001069242
49.19982,-0.00106542
49.29982,-0.001061955
49.39982,-0.001058415
49.49982,-0.001054686
49.59982,-0.001051136
49.69981,-0.001047781
49.79981,-0.001044081
49.89981,-0.001040638
49.99981,-0.001037218
50.09981,-0.001033565
50.19981,-0.001030138
50.2998,-0.001026753
50.3998,-0.001023207
50.4998,-0.001019864
50.5998,-0.00101654
50.6998,-0.001012983
50.7998,-0.00100977
50.8998,-0.001006581
50.99979,-0.001002999
51.09979,-0.0009998577
51.19979,-0.0009966408
51.29979,-0.0009933483
51.39979,-0.0009900015
51.49979,-0.0009867835
51.59978,-0.0009835205
51.69978,-0.0009803883
51.79978,-0.000977273
51.89978,-0.000973976
51.99978,-0.0009709258
52.09978,-0.000967674
52.19978,-0.00096457
52.29977,-0.0009614944
52.39977,-0.0009583283
52.49977,-0.0009552356
52.59977,-0.0009521006
52.69977,-0.0009490116
52.79977,-0.0009459445
52.89977,-0.0009429855
52.99976,-0.0009399042
53.09976,-0.0009368634
53.19976,-0.0009338753
53.29976,-0.0009308608
53.39976,-0.0009281128
53.49976,-0.0009251567
53.59975,-0.0009220368
53.69975,-0.0009192633
53.79975,-0.0009162394
53.89975,-0.0009135121
53.99975,-0.0009106606
54.09975,-0.0009078401
54.19975,-0.0009049094
54.29974,-0.0009021512
54.39974,-0.0008992581
54.49974,-0.0008965158
54.59974,-0.000893717
54.69974,-0.0008908852
54.79974,-0.0008881231
54.89973,-0.0008855748
54.99973,-0.0008825613
55.09973,-0.0008799706
55.19973,-0.0008773761
55.29973,-0.0008744256
55.39973,-0.0008716748
55.49973,-0.0008691058
55.59972,-0.0008663409
55.69972,-0.0008637511
55.79972,-0.0008611886
55.89972,-0.0008584576
55.99972,-0.0008557803
56.09972,-0.0008532659
56.19971,-0.0008505668
56.29971,-0.0008480119
56.39971,-0.0008454646
56.49971,-0.0008427712
56.59971,-0.0008402945
56.69971,-0.0008378224
56.79971,-0.0008351545
56.8997,-0.0008325892
56.9997,-0.0008301737
57.0997,-0.0008275076
57.1997,-0.0008251542
57.2997,-0.0008227396
57.3997,-0.0008201988
57.49969,-0.000817804
57.59969,-0.0008153687
57.69969,-0.0008128844
57.79969,-0.0008104566
57.89969,-0.000807961
57.99969,-0.0008057047
58.09969,-0.0008033597
58.19968,-0.0008009537
58.29968,-0.0007985522
58.39968,-0.0007961959
58.49968,-0.0007937899
58.59968,-0.0007914431
58.69968,-0.0007891094
58.79967,-0.0007868587
58.89967,-0.0007844422
58.99967,-0.0007821812
59.09967,-0.0007798946
59.19967,-0.000777528
59.29967,-0.000775251
59.39967,-0.0007730595
59.49966,-0.0007707627
59.59966,-0.0007684366
59.69966,-0.0007664231
59.79966,-0.000763985
59.89966,-0.0007618492
59.99966,-0.0007597274
60.09966,-0.0007573891
60.19965,-0.0007553202
60.29965,-0.0007532342
60.39965,-0.0007509853
60.49965,-0.000748857
60.59965,-0.0007467287
60.69965,-0.0007444479
60.79964,-0.0007424646
60.89964,-0.0007403711
60.99964,-0.0007380733
61.09964,-0.0007360984
61.19964,-0.0007339673
61.29964,-0.0007317967
61.39964,-0.0007298416
61.49963,-0.0007277105
61.59963,-0.0007256801
61.69963,-0.0007236563
61.79963,-0.0007215544
61.89963,-0.0007194599
61.99963,-0.0007175115
62.09962,-0.0007153531
62.19962,-0.000713383
62.29962,-0.0007114778
62.39962,-0.0007093165
62.49962,-0.0007074415
62.59962,-0.0007054432
62.69962,-0.0007034251
62.79961,-0.0007015152
62.89961,-0.0006994726
62.99961,-0.0006975911
63.09961,-0.000695718
63.19961,-0.0006937856
63.29961,-0.0006918173
63.3996,-0.0006899602
63.4996,-0.0006880485
63.5996,-0.0006860972
63.6996,-0.0006843014
63.7996,-0.0006823952
63.8996,-0.0006804544
63.9996,-0.0006787979
64.09959,-0.0006767806
64.19959,-0.0006749076
64.29959,-0.0006731945
64.39959,-0.000671296
64.49959,-0.0006694258
64.59959,-0.0006676902
64.69958,-0.0006658321
64.79958,-0.0006639986
64.89958,-0.0006623421
64.99958,-0.0006604351
65.09958,-0.0006585799
65.19958,-0.00065701
65.29958,-0.000655134
65.39957,-0.0006533683
65.49957,-0.0006516845
65.59957,-0.0006498293
65.69957,-0.0006481351
65.79957,-0.0006463929
65.89957,-0.0006446507
65.99957,-0.0006429547
66.09956,-0.0006412916
66.19956,-0.0006393949
66.29956,-0.0006377478
66.39956,-0.0006360159
66.49956,-0.0006343105
66.59956,-0.000632653
66.69955,-0.0006309194
66.79955,-0.0006292213
66.89955,-0.0006276196
66.99955,-0.0006259027
67.09955,-0.0006243084
67.19955,-0.0006227272
67.29955,-0.0006210039
67.39954,-0.0006194556
67.49954,-0.0006178886
67.59954,-0.0006162387
67.69954,-0.0006145934
67.79954,-0.0006130179
67.89954,-0.0006114161
67.99953,-0.0006097925
68.09953,-0.0006081586
68.19953,-0.0006066047
68.29953,-0.0006049643
68.39953,-0.000603465
68.49953,-0.000601963
68.59953,-0.0006002763
68.69952,-0.0005987648
68.79952,-0.0005972986
68.89952,-0.0005957899
68.99952,-0.0005942803
69.09952,-0.000592814
69.19952,-0.0005913403
69.29951,-0.0005896601
69.39951,-0.0005882739
69.49951,-0.0005867577
69.59951,-0.000585203
69.69951,-0.000583716
69.79951,-0.0005822572
69.89951,-0.0005806366
69.9995,-0.0005793755
70.0995,-0.0005781805
70.1995,-0.0005764919
70.2995,-0.0005749739
70.3995,-0.0005737289
70.4995,-0.0005721684
70.59949,-0.0005707276
70.69949,-0.0005694544
70.79949,-0.000567991
70.89949,-0.0005665285
70.99949,-0.0005652741
71.09949,-0.0005638247
71.19949,-0.0005623867
71.29948,-0.0005611248
71.39948,-0.0005596227
71.49948,-0.0005581734
71.59948,-0.0005570132
71.69948,-0.0005555139
71.79948,-0.0005541079
71.89948,-0.0005528629
71.99947,-0.0005515464
72.09947,-0.0005502327
72.19947,-0.000548934
72.29947,-0.0005476439
72.39947,-0.0005462351
72.49947,-0.0005449797
72.59946,-0.0005436811
72.69946,-0.0005424502
72.79946,-0.0005411299
72.89946,-0.0005399103
72.99946,-0.0005385835
73.09946,-0.0005373838
73.19946,-0.0005359005
73.29945,-0.0005348655
73.39945,-0.0005335
73.49945,-0.0005320752
73.59945,-0.0005308255
73.69945,-0.0005295193
73.79945,-0.0005282536
73.89944,-0.0005270058
73.99944,-0.0005256715
74.09944,-0.0005243982
74.19944,-0.0005230553
74.29944,-0.0005220636
74.39944,-0.0005206831
74.49944,-0.0005193204
74.59943,-0.0005182534
74.69943,-0.0005170216
74.79943,-0.0005156486
74.89943,-0.0005144921
74.99943,-0.0005133291
75.09943,-0.0005120154
75.19942,-0.0005109955
75.29942,-0.0005098918
75.39942,-0.0005084198
75.49942,-0.0005071796
75.59942,-0.0005060928
75.69942,-0.0005047885
75.79942,-0.000503635
75.89941,-0.0005024822
75.99941,-0.0005012137
76.09941,-0.0005000752
76.19941,-0.000498914
76.29941,-0.0004977434
76.39941,-0.0004966256
76.4994,-0.0004954004
76.5994,-0.0004941375
76.6994,-0.0004930781
76.7994,-0.0004919499
76.8994,-0.0004907445
76.9994,-0.0004896775
77.0994,-0.0004884485
77.19939,-0.0004873062
77.29939,-0.0004861375
77.39939,-0.0004851016
77.49939,-0.0004838237
77.59939,-0.0004827558
77.69939,-0.0004816511
77.79939,-0.0004804476
77.89938,-0.0004793316
77.99938,-0.00047821
78.09938,-0.0004770969
78.19938,-0.0004760224
78.29938,-0.0004748537
78.39938,-0.000473814
78.49937,-0.0004727235
78.59937,-0.0004716
78.69937,-0.0004705472
78.79937,-0.0004694859
78.89937,-0.0004684019
78.99937,-0.0004673716
79.09937,-0.0004662303
79.19936,-0.0004652207
79.29936,-0.0004641189
79.39936,-0.0004630821
79.49936,-0.0004619991
79.59936,-0.000460901
79.69936,-0.0004598915
79.79935,-0.0004588772
79.89935,-0.0004578555
79.99935,-0.0004567037
80.09935,-0.0004557281
80.19935,-0.0004547572
80.29935,-0.0004537005
80.39935,-0.0004527004
80.49934,-0.0004517596
80.59934,-0.0004505928
80.69934,-0.0004497358
80.79934,-0.0004486915
80.89934,-0.0004475746
80.99934,-0.0004466978
81.09933,-0.0004457636
81.19933,-0.0004446279
81.29933,-0.0004437059
81.39933,-0.0004427256
81.49933,-0.0004417047
81.59933,-0.0004408911
81.69933,-0.0004399136
81.79932,-0.0004389173
81.89932,-0.0004379623
81.99932,-0.0004369923
82.09932,-0.0004361485
82.19932,-0.0004352341
82.29932,-0.0004341483
82.39931,-0.0004333337
82.49931,-0.0004324089
82.59931,-0.0004314324
82.69931,-0.0004305415
82.79931,-0.0004297702
82.89931,-0.0004287522
82.99931,-0.0004278491
83.0993,-0.0004270175
83.1993,-0.0004261587
83.2993,-0.000425118
83.3993,-0.0004244343
83.4993,-0.0004235171
83.5993,-0.0004226055
83.6993,-0.0004218192
83.79929,-0.0004209697
83.89929,-0.0004200788
83.99929,-0.0004191785
84.09929,-0.0004183903
84.19929,-0.000417474
84.29929,-0.000416617
84.39928,-0.0004157619
84.49928,-0.0004148758
84.59928,-0.0004139067
84.69928,-0.0004131628
84.79928,-0.0004124056
84.89928,-0.0004114027
84.99928,-0.0004106587
85.09927,-0.0004099025
85.19927,-0.0004089429
85.29927,-0.0004083618
85.39927,-0.0004075821
85.49927,-0.0004066403
85.59927,-0.0004060235
85.69926,-0.0004052654
85.79926,-0.0004043501
85.89926,-0.0004036014
85.99926,-0.0004028047
86.09926,-0.0004020032
86.19926,-0.0004012847
86.29926,-0.0004003157
86.39925,-0.0003995689
86.49925,-0.0003988032
86.59925,-0.00039795
86.69925,-0.0003970601
86.79925,-0.0003963001
86.89925,-0.000395397
86.99924,-0.0003945551
87.09924,-0.0003937791
87.19924,-0.0003929306
87.29924,-0.0003919154
87.39924,-0.0003913231
87.49924,-0.000390403
87.59924,-0.00038945
87.69923,-0.0003887361
87.79923,-0.0003879253
87.89923,-0.0003870231
87.99923,-0.0003861784
88.09923,-0.0003854579
88.19923,-0.0003846123
88.29922,-0.0003837939
88.39922,-0.0003830076
88.49922,-0.0003822796
88.59922,-0.0003814537
88.69922,-0.0003806608
88.79922,-0.0003798942
88.89922,-0.0003791069
88.99921,-0.0003783234
89.09921,-0.0003775663
89.19921,-0.0003767225
89.29921,-0.0003759333
89.39921,-0.0003752534
89.49921,-0.0003744294
89.59921,-0.0003736854
89.6992,-0.0003728953
89.7992,-0.0003721673
89.8992,-0.000371526
89.9992,-0.0003707952
90.0992,-0.0003697772
90.1992,-0.0003690907
90.29919,-0.0003683797
90.39919,-0.000367567
90.49919,-0.0003668296
90.59919,-0.0003660828
90.69919,-0.0003652701
90.79919,-0.0003645713
90.89919,-0.000363881
90.99918,-0.0003630476
91.09918,-0.0003622801
91.19918,-0.000361731
91.29918,-0.0003608713
91.39918,-0.0003601348
91.49918,-0.0003595434
91.59917,-0.0003588004
91.69917,-0.0003580884
91.79917,-0.000357369
91.89917,-0.0003566156
91.99917,-0.0003558697
92.09917,-0.0003552002
92.19917,-0.0003544571
92.29916,-0.0003538026
92.39916,-0.0003531603
92.49916,-0.0003523703
92.59916,-0.0003516281
92.69916,-0.0003509473
92.79916,-0.0003503465
92.89915,-0.0003496826
92.99915,-0.0003489461
93.09915,-0.0003482426
93.19915,-0.0003476371
93.29915,-0.0003469468
93.39915,-0.0003462622
93.49915,-0.0003455766
93.59914,-0.0003449325
93.69914,-0.0003443081
93.79914,-0.0003436611
93.89914,-0.0003430518
93.99914,-0.000342434
94.09914,-0.0003417353
94.19913,-0.0003411721
94.29913,-0.0003404988
94.39913,-0.0003398452
94.49913,-0.0003392369
94.59913,-0.0003386106
94.69913,-0.0003378779
94.79913,-0.0003374325
94.89912,-0.0003369353
94.99912,-0.0003361376
95.09912,-0.0003355839
95.19912,-0.0003350471
95.29912,-0.0003343088
95.39912,-0.0003338181
95.49911,-0.0003332974
95.59911,-0.0003325562
95.69911,-0.0003320929
95.79911,-0.0003316832
95.89911,-0.0003309459
95.99911,-0.0003303488
96.09911,-0.0003299533
96.1991,-0.0003292743
96.2991,-0.0003287196
96.3991,-0.0003282732
96.4991,-0.0003276573
96.5991,-0.0003269953
96.6991,-0.0003265329
96.7991,-0.0003259499
96.89909,-0.0003254169
96.99909,-0.0003247935
97.09909,-0.0003241004
97.19909,-0.0003235222
97.29909,-0.0003229722
97.39909,-0.0003223535
97.49908,-0.0003218035
97.59908,-0.0003211773
97.69908,-0.0003206264
97.79908,-0.0003201084
97.89908,-0.00031942
97.99908,-0.0003188531
98.09908,-0.0003182626
98.19907,-0.0003177004
98.29907,-0.000317044
98.39907,-0.000316478
98.49907,-0.000315929
98.59907,-0.0003152585
98.69907,-0.0003147377
98.79906,-0.0003141689
98.89906,-0.0003135408
98.99906,-0.0003130172
99.09906,-0.0003123834
99.19906,-0.0003118711
99.29906,-0.000311258
99.39906,-0.0003106506
99.49905,-0.0003101308
99.59905,-0.0003095516
99.69905,-0.0003090289
99.79905,-0.0003084667
99.89905,-0.0003078678
99.99905,-0.0003073781
100.099,-0.0003067989
100.199,-0.0003061237
100.299,-0.0003056773
100.399,-0.000305149
100.499,-0.0003045237
100.599,-0.0003040698
100.699,-0.0003036243
100.799,-0.0003029623
100.899,-0.0003023634
100.999,-0.0003018916
101.099,-0.0003013105
101.199,-0.0003007295
101.299,-0.0003002548
101.399,-0.0002997124
101.499,-0.0002991408
101.599,-0.0002986586
101.699,-0.000298102
101.799,-0.0002975379
101.899,-0.0002970209
101.999,-0.0002965115
102.099,-0.0002959624
102.199,-0.0002954784
102.299,-0.0002948945
102.399,-0.0002944547
102.499,-0.0002938614
102.599,-0.0002933143
102.699,-0.0002928283
102.799,-0.0002923217
102.899,-0.0002917858
102.999,-0.0002913027
103.099,-0.0002908112
103.199,-0.000290215
103.299,-0.0002897281
103.399,-0.0002892714
103.499,-0.0002886885
103.599,-0.0002882252
103.699,-0.0002877326
103.799,-0.0002871365
103.899,-0.0002866722
103.999,-0.0002862456
104.099,-0.0002856749
104.199,-0.0002852747
104.299,-0.0002847972
104.399,-0.0002842058
104.499,-0.0002838094
104.599,-0.0002833677
104.699,-0.000282782
104.799,-0.0002823723
104.899,-0.0002819052
104.999,-0.0002813552
105.099,-0.0002809277
105.199,-0.0002804738
105.299,-0.0002798965
105.399,-0.0002794708
105.499,-0.0002790358
105.599,-0.0002785385
105.699,-0.0002780469
105.799,-0.0002775657
105.899,-0.0002771608
105.999,-0.0002766814
106.099,-0.000276236
106.199,-0.0002756898
106.299,-0.0002752773
106.3989,-0.0002748074
106.4989,-0.0002743026
106.5989,-0.0002738779
106.6989,-0.000273503
106.7989,-0.0002730322
106.8989,-0.0002725227
106.9989,-0.0002720528
107.0989,-0.0002716271
107.1989,-0.0002711478
107.2989,-0.0002707344
107.3989,-0.0002702701
107.4989,-0.000269786
107.5989,-0.0002693896
107.6989,-0.0002690035
107.7989,-0.0002684591
107.8989,-0.000267992
107.9989,-0.0002675984
108.0989,-0.0002671586
108.1989,-0.0002666802
108.2989,-0.0002663459
108.3989,-0.0002658938
108.4989,-0.0002654673
108.5989,-0.0002650529
108.6989,-0.0002645981
108.7989,-0.0002642129
108.8989,-0.0002637957
108.9989,-0.0002633738
109.0989,-0.0002629396
109.1989,-0.0002625319
109.2989,-0.000262078
109.3989,-0.000261689
109.4989,-0.00026127
109.5989,-0.0002608114
109.6989,-0.0002604375
109.7989,-0.0002600382
109.8989,-0.0002596172
109.9989,-0.0002592001
110.0989,-0.0002587979
110.1989,-0.0002583591
110.2989,-0.0002579786
110.3989,-0.0002575624
110.4989,-0.0002570811
110.5989,-0.0002568043
110.6989,-0.0002563438
110.7989,-0.0002558908
110.8989,-0.0002555838
110.9989,-0.0002551826
111.0989,-0.0002547212
111.1989,-0.0002543247
111.2989,-0.0002540168
111.3989,-0.0002535497
111.4989,-0.0002531664
111.5989,-0.0002528499
111.6989,-0.0002524431
111.7989,-0.0002520401
111.8989,-0.000251685
111.9989,-0.0002512264
112.0989,-0.0002508356
112.1989,-0.0002505352
112.2989,-0.0002502771
112.3989,-0.0002498948
112.4989,-0.0002494475
112.5989,-0.0002490699
112.6989,-0.0002486103
112.7989,-0.0002482185
112.8988,-0.0002478324
112.9988,-0.0002475433
113.0988,-0.0002470998
113.1988,-0.0002467117
113.2988,-0.0002464236
113.3988,-0.0002459734
113.4988,-0.0002455459
113.5988,-0.0002453057
113.6988,-0.0002449931
113.7988,-0.0002446155
113.8988,-0.0002442284
113.9988,-0.0002438395
114.0988,-0.0002434694
114.1988,-0.0002431558
114.2988,-0.0002428196
114.3988,-0.0002423609
114.4988,-0.0002420634
114.5988,-0.0002417451
114.6988,-0.0002413995
114.7988,-0.0002410698
114.8988,-0.0002406611
114.9988,-0.0002403202
115.0988,-0.0002400066
115.1988,-0.0002396506
115.2988,-0.0002393003
115.3988,-0.0002390046
115.4988,-0.0002386081
115.5988,-0.0002382258
115.6988,-0.0002379348
115.7988,-0.0002375704
115.8988,-0.0002372125
115.9988,-0.0002369046
116.0988,-0.000236558
116.1988,-0.0002362218
116.2988,-0.0002358611
116.3988,-0.0002355918
116.4988,-0.0002352226
116.5988,-0.0002349194
116.6988,-0.0002345672
116.7988,-0.0002341924
116.8988,-0.0002338939
116.9988,-0.0002335435
117.0988,-0.0002332572
117.1988,-0.0002329088
117.2988,-0.0002325425
117.3988,-0.0002322129
117.4988,-0.0002318644
117.5988,-0.0002316299
117.6988,-0.0002313173
117.7988,-0.0002309076
117.8988,-0.0002306336
117.9988,-0.0002303492
118.0988,-0.0002298924
118.1988,-0.0002296664
118.2988,-0.0002293754
118.3988,-0.0002289789
118.4988,-0.000228768
118.5988,-0.0002284374
118.6988,-0.0002280626
118.7988,-0.0002278121
118.8988,-0.0002275004
118.9988,-0.0002271068
119.0988,-0.0002268535
119.1988,-0.0002265549
119.2988,-0.0002261933
119.3988,-0.0002259315
119.4987,-0.0002256678
119.5987,-0.0002252949
119.6987,-0.000225019
119.7987,-0.0002247204
119.8987,-0.0002243475
119.9987,-0.0002241036
120.0987,-0.0002238013
120.1987,-0.0002234566
120.2987,-0.0002231835
120.3987,-0.0002228709
120.4987,-0.0002225337
120.5987,-0.0002222474
120.6987,-0.0002219904
120.7987,-0.0002216796
120.8987,-0.0002214112
120.9987,-0.0002210618
121.0987,-0.0002207435
121.1987,-0.000220445
121.2987,-0.0002201191
121.3987,-0.0002197688
121.4987,-0.0002195353
121.5987,-0.0002192141
121.6987,-0.0002188779
121.7987,-0.0002185427
121.8987,-0.0002183091
121.9987,-0.0002180012
122.0987,-0.0002177441
122.1987,-0.0002174305
122.2987,-0.0002171386
122.3987,-0.0002168014
122.4987,-0.000216549
122.5987,-0.0002162383
122.6987,-0.0002159548
122.7987,-0.0002156544
122.8987,-0.0002153794
122.9987,-0.0002150799
123.0987,-0.0002147758
123.1987,-0.000214546
123.2987,-0.0002141787
123.3987,-0.0002139075
123.4987,-0.0002136127
123.5987,-0.000213366
123.6987,-0.0002130646
123.7987,-0.0002127397
123.8987,-0.0002124817
123.9987,-0.0002122896
124.0987,-0.0002119487
124.1987,-0.0002116021
124.2987,-0.0002113874
124.3987,-0.0002110842
124.4987,-0.0002108073
124.5987,-0.0002105351
124.6987,-0.0002102526
124.7987,-0.0002099004
124.8987,-0.0002096819
124.9987,-0.0002094098
125.0987,-0.0002090887
125.1987,-0.0002088297
125.2987,-0.000208565
125.3987,-0.0002082496
125.4987,-0.0002080038
125.5987,-0.0002077241
125.6987,-0.0002074255
125.7987,-0.0002071694
125.8987,-0.0002068972
125.9986,-0.0002066571
126.0986,-0.0002064857
126.1986,-0.0002061627
126.2986,-0.0002058001
126.3986,-0.0002055675
126.4986,-0.0002053245
126.5986,-0.0002050307
126.6986,-0.0002047426
126.7986,-0.000204477
126.8986,-0.0002042293
126.9986,-0.0002039628
127.0986,-0.0002037631
127.1986,-0.0002034543
127.2986,-0.0002032066
127.3986,-0.000202974
127.4986,-0.0002026717
127.5986,-0.0002024664
127.6986,-0.0002022074
127.7986,-0.0002019211
127.8986,-0.0002016979
127.9986,-0.000201487
128.0986,-0.0002012195
128.1986,-0.0002009643
128.2986,-0.0002006799
128.3986,-0.0002004558
128.4986,-0.0002002656
128.5986,-0.0001999661
128.6987,-0.0001997175
128.7987,-0.0001995065
128.8987,-0.000199207
128.9987,-0.0001989283
129.0987,-0.0001987418
129.1987,-0.0001984734
129.2987,-0.0001982314
129.3987,-0.0001980167
129.4987,-0.0001977342
129.5987,-0.0001974357
129.6987,-0.0001972501
129.7987,-0.0001970345
129.8987,-0.0001967463
129.9987,-0.0001964864
130.0987,-0.0001962434
130.1987,-0.0001960381
130.2988,-0.0001958319
130.3988,-0.000195556
130.4988,-0.0001953027
130.5988,-0.0001950512
130.6988,-0.0001948365
130.7988,-0.0001945511
130.8988,-0.0001943543
130.9988,-0.0001940567
131.0988,-0.0001938382
131.1988,-0.0001935887
131.2988,-0.000193357
131.3988,-0.0001931725
131.4988,-0.0001928918
131.5988,-0.0001926959
131.6988,-0.0001924934
131.7988,-0.00019221
131.8988,-0.0001921441
131.9989,-0.0001919049
132.0989,-0.0001915687
132.1989,-0.0001914048
132.2989,-0.0001912475
132.3989,-0.0001909066
132.4989,-0.0001907503
132.5989,-0.0001905629
132.6989,-0.0001903877
132.7989,-0.0001902644
132.8989,-0.0001900798
132.9989,-0.0001897775
133.0989,-0.0001896042
133.1989,-0.0001894083
133.2989,-0.0001891541
133.3989,-0.0001889488
133.4989,-0.000188768
133.599,-0.000188492
133.699,-0.0001883621
133.799,-0.0001881634
133.899,-0.0001878761
133.999,-0.0001876803
134.099,-0.0001874721
134.199,-0.000187281
134.299,-0.0001870173
134.399,-0.000186796
134.499,-0.0001866105
134.599,-0.0001864127
134.699,-0.0001862375
134.799,-0.0001859334
134.899,-0.0001857817
134.999,-0.0001855152
135.099,-0.0001852713
135.1991,-0.0001850707
135.2991,-0.0001848202
135.3991,-0.0001846573
135.4991,-0.0001844172
135.5991,-0.0001842156
135.6991,-0.0001839962
135.7991,-0.000183725
135.8991,-0.0001835545
135.9991,-0.0001833229
136.0991,-0.0001831082
136.1991,-0.0001828925
136.2991,-0.0001826524
136.3991,-0.0001824442
136.4991,-0.0001822286
136.5991,-0.0001820355
136.6991,-0.000181818
136.7991,-0.0001815675
136.8992,-0.0001813961
136.9992,-0.0001811277
137.0992,-0.0001809619
137.1992,-0.0001807567
137.2992,-0.0001804657
137.3992,-0.0001802754
137.4992,-0.0001800974
137.5992,-0.0001798008
137.6992,-0.0001796275
137.7992,-0.0001794646
137.8992,-0.0001792235
137.9992,-0.0001789984
138.0992,-0.0001788138
138.1992,-0.0001785916
138.2992,-0.0001784061
138.3992,-0.0001782187
138.4993,-0.0001779296
138.5993,-0.0001777478
138.6993,-0.000177599
138.7993,-0.0001773344
138.8993,-0.0001771555
138.9993,-0.0001769521
139.0993,-0.0001767336
139.1993,-0.0001765641
139.2993,-0.0001763352
139.3993,-0.0001760979
139.4993,-0.0001759275
139.5993,-0.0001757335
139.6993,-0.0001755037
139.7993,-0.0001753135
139.8993,-0.000175078
139.9993,-0.000174819
140.0993,-0.000174658
140.1994,-0.000174512
140.2994,-0.0001742841
140.3994,-0.0001740892
140.4994,-0.0001738914
140.5994,-0.0001736899
140.6994,-0.0001735129
140.7994,-0.0001733113
140.8994,-0.0001730636
140.9994,-0.0001729083
141.0994,-0.0001726747
141.1994,-0.0001725052
141.2994,-0.000172331
141.3994,-0.0001721294
141.4994,-0.0001719421
141.5994,-0.0001717857
141.6994,-0.0001715861
141.7995,-0.0001713827
141.8995,-0.0001712357
141.9995,-0.0001710135
142.0995,-0.0001708383
142.1995,-0.0001706792
142.2995,-0.0001704268
142.3995,-0.0001702441
142.4995,-0.0001700624
142.5995,-0.0001698231
142.6995,-0.0001696339
142.7995,-0.0001694804
142.8995,-0.0001692835
142.9995,-0.0001691206
143.0995,-0.000168952
143.1995,-0.0001687373
143.2995,-0.0001685838
143.3996,-0.000168404
143.4996,-0.0001682081
143.5996,-0.0001680329
143.6996,-0.0001678229
143.7996,-0.0001676666
143.8996,-0.0001674905
143.9996,-0.0001673134
144.0996,-0.0001671015
144.1996,-0.0001668671
144.2996,-0.0001667785
144.3996,-0.0001666269
144.4996,-0.0001664329
144.5996,-0.0001661843
144.6996,-0.0001659913
144.7996,-0.0001658387
144.8996,-0.0001656833
144.9996,-0.0001654818
145.0997,-0.0001653047
145.1997,-0.0001651211
145.2997,-0.0001649553
145.3997,-0.0001648169
145.4997,-0.0001646154
145.5997,-0.0001644524
145.6997,-0.0001643752
145.7997,-0.0001641304
145.8997,-0.000164008
145.9997,-0.0001638431
146.0997,-0.0001636633
146.1997,-0.0001635757
146.2997,-0.0001634109
146.3997,-0.0001631717
146.4997,-0.0001630587
146.5997,-0.0001629193
146.6998,-0.0001627046
146.7998,-0.0001625897
146.8998,-0.0001624362
146.9998,-0.000162261
147.0998,-0.0001621057
147.1998,-0.0001619625
147.2998,-0.0001617921
147.3998,-0.0001616489
147.4998,-0.000161535
147.5998,-0.0001613372
147.6998,-0.0001611602
147.7998,-0.0001610227
147.8998,-0.0001608485
147.9998,-0.0001607241
148.0998,-0.0001605659
148.1998,-0.0001604444
148.2999,-0.0001603314
148.3999,-0.0001601346
148.4999,-0.0001599387
148.5999,-0.0001598078
148.6999,-0.0001596769
148.7999,-0.000159482
148.8999,-0.0001594029
148.9999,-0.0001592183
149.0999,-0.0001590469
149.1999,-0.0001589942
149.2999,-0.0001587851
149.3999,-0.0001586118
149.4999,-0.000158496
149.5999,-0.0001583754
149.6999,-0.0001581749
149.7999,-0.000158028
149.8999,-0.0001579093
150,-0.0001577153
150.1,-0.0001575976
150.2,-0.0001575034
150.3,-0.000157235
150.4,-0.0001570938
150.5,-0.0001569648
150.6,-0.0001568075
150.7,-0.0001566587
150.8,-0.0001565127
150.9,-0.0001562735
151,-0.0001561812
151.1,-0.0001560343
151.2,-0.0001558234
151.3,-0.0001556491
151.4,-0.0001555239
151.5,-0.0001553516
151.6001,-0.0001552404
151.7001,-0.0001550483
151.8001,-0.0001548835
151.9001,-0.0001547385
152.0001,-0.0001545888
152.1001,-0.0001544127
152.2001,-0.0001542883
152.3001,-0.000154132
152.4001,-0.0001539305
152.5001,-0.0001538109
152.6001,-0.0001536593
152.7001,-0.0001535133
152.8001,-0.0001533381
152.9001,-0.0001531639
153.0001,-0.0001530302
153.1001,-0.0001528663
153.2001,-0.0001527269
153.3002,-0.0001525659
153.4002,-0.0001523766
153.5002,-0.0001522749
153.6002,-0.0001521431
153.7002,-0.0001519444
153.8002,-0.0001518126
153.9002,-0.0001517061
154.0002,-0.0001514782
154.1002,-0.0001513492
154.2002,-0.0001511806
154.3002,-0.0001509791
154.4002,-0.0001508275
154.5002,-0.0001507079
154.6002,-0.0001505487
154.7002,-0.0001503717
154.8002,-0.0001501777
154.9003,-0.0001500506
155.0003,-0.0001499357
155.1003,-0.0001498293
155.2003,-0.0001496136
155.3003,-0.0001495335
155.4003,-0.0001493546
155.5003,-0.0001491446
155.6003,-0.0001490514
155.7003,-0.0001488951
155.8003,-0.0001487378
155.9003,-0.0001485588
156.0003,-0.0001484129
156.1003,-0.0001482613
156.2003,-0.0001481473
156.3003,-0.0001480032
156.4003,-0.0001478507
156.5004,-0.0001477009
156.6004,-0.0001475512
156.7004,-0.0001474184
156.8004,-0.0001472819
156.9004,-0.0001471453
157.0004,-0.0001470144
157.1004,-0.0001468656
157.2004,-0.0001467253
157.3004,-0.0001465426
157.4004,-0.0001464296
157.5004,-0.0001463345
157.6004,-0.000146165
157.7004,-0.0001459983
157.8004,-0.0001459192
157.9004,-0.000145728
158.0004,-0.0001456094
158.1004,-0.0001455547
158.2005,-0.0001453466
158.3005,-0.0001452166
158.4005,-0.000145131
158.5005,-0.000144968
158.6005,-0.0001448183
158.7005,-0.0001447119
158.8005,-0.0001445772
158.9005,-0.0001444331
159.0005,-0.0001443145
159.1005,-0.0001441666
159.2005,-0.0001440489
159.3005,-0.000143951
159.4005,-0.0001438078
159.5005,-0.0001436694
159.6005,-0.0001435507
159.7005,-0.000143434
159.8006,-0.0001433313
159.9006,-0.0001431618
160.0006,-0.0001430469
160.1006,-0.0001428906
160.2006,-0.0001427983
160.3006,-0.0001426824
160.4006,-0.0001425713
160.5006,-0.0001424574
160.6006,-0.0001423161
160.7006,-0.0001422078
160.8006,-0.0001420788
160.9006,-0.0001419281
161.0006,-0.0001418434
161.1006,-0.0001417322
161.2006,-0.0001416183
161.3006,-0.0001415109
161.4007,-0.0001414007
161.5007,-0.0001412934
161.6007,-0.0001411785
161.7007,-0.0001411173
161.8007,-0.0001409205
161.9007,-0.0001407848
162.0007,-0.000140734
162.1007,-0.0001406257
162.2007,-0.0001404609
162.3007,-0.0001403733
162.4007,-0.0001402236
162.5007,-0.0001400908
162.6007,-0.0001400324
162.7007,-0.0001399025
162.8007,-0.0001397292
162.9007,-0.0001396322
163.0007,-0.0001395427
163.1008,-0.0001393949
163.2008,-0.0001392988
163.3008,-0.0001391444
163.4008,-0.0001390323
163.5008,-0.0001390078
163.6008,-0.0001389475
163.7008,-0.0001387234
163.8008,-0.0001386321
163.9008,-0.0001385247
164.0008,-0.0001383477
164.1008,-0.000138262
164.2008,-0.0001381386
164.3008,-0.0001380331
164.4008,-0.000137986
164.5008,-0.0001379418
164.6008,-0.0001377289
164.7009,-0.0001376423
164.8009,-0.0001375708
164.9009,-0.000137404
165.0009,-0.0001373494
165.1009,-0.0001372675
165.2009,-0.0001370726
165.3009,-0.0001370189
165.4009,-0.0001369379
165.5009,-0.0001368013
165.6009,-0.0001367072
165.7009,-0.0001366102
165.8009,-0.0001364614
165.9009,-0.000136403
166.0009,-0.0001362721
166.1009,-0.0001361299
166.2009,-0.0001360668
166.3009,-0.0001359556
166.401,-0.0001358135
166.501,-0.0001357014
166.601,-0.0001355856
166.701,-0.0001354208
166.801,-0.0001353803
166.901,-0.0001352701
167.001,-0.0001350686
167.101,-0.0001349894
167.201,-0.0001348887
167.301,-0.0001347757
167.401,-0.0001346796
167.501,-0.0001345063
167.601,-0.0001343839
167.701,-0.0001342822
167.801,-0.0001341956
167.901,-0.000134027
168.0011,-0.0001339451
168.1011,-0.0001338076
168.2011,-0.0001336682
168.3011,-0.000133575
168.4011,-0.0001334987
168.5011,-0.0001333433
168.6011,-0.0001332331
168.7011,-0.0001331371
168.8011,-0.0001329854
168.9011,-0.0001329223
169.0011,-0.0001327811
169.1011,-0.0001326191
169.2011,-0.0001325607
169.3011,-0.0001324571
169.4011,-0.0001323131
169.5011,-0.0001322132
169.6012,-0.0001320814
169.7012,-0.0001319279
169.8012,-0.0001318544
169.9012,-0.0001317546
170.0012,-0.0001315785
170.1012,-0.000131473
170.2012,-0.0001313958
170.3012,-0.0001312847
170.4012,-0.0001311378
170.5012,-0.0001310314
170.6012,-0.0001309165
170.7012,-0.0001308214
170.8012,-0.0001306961
170.9012,-0.0001305294
171.0012,-0.0001304305
171.1012,-0.0001303203
171.2012,-0.000130181
171.3013,-0.0001301056
171.4013,-0.0001299813
171.5013,-0.0001298033
171.6013,-0.0001297073
171.7013,-0.0001296169
171.8013,-0.0001294935
171.9013,-0.0001293852
172.0013,-0.0001292581
172.1013,-0.0001291168
172.2013,-0.0001290556
172.3013,-0.0001289369
172.4013,-0.0001288126
172.5013,-0.0001287024
172.6013,-0.0001285885
172.7013,-0.0001285037
172.8013,-0.0001284105
172.9014,-0.000128305
173.0014,-0.0001281685
173.1014,-0.0001280621
173.2014,-0.0001280018
173.3014,-0.0001278699
173.4014,-0.0001277541
173.5014,-0.0001276458
173.6014,-0.0001275808
173.7014,-0.0001275102
173.8014,-0.0001273944
173.9014,-0.0001272861
174.0014,-0.0001272051
174.1014,-0.0001271232
174.2014,-0.0001269819
174.3014,-0.0001268943
174.4014,-0.0001267992
174.5014,-0.0001266768
174.6015,-0.0001265723
174.7015,-0.0001264988
174.8015,-0.0001264056
174.9015,-0.0001262991
175.0015,-0.000126188
175.1015,-0.0001260468
175.2015,-0.0001259432
175.3015,-0.0001260176
175.4015,-0.0001258368
175.5015,-0.0001257567
175.6015,-0.0001256719
175.7015,-0.000125574
175.8015,-0.0001254667
175.9015,-0.0001254139
176.0015,-0.0001254064
176.1015,-0.0001252623
176.2016,-0.000125235
176.3016,-0.0001252011
176.4016,-0.0001251276
176.5016,-0.0001251154
176.6016,-0.0001250683
176.7016,-0.000124944
176.8016,-0.0001249412
176.9016,-0.0001248724
177.0016,-0.0001247651
177.1016,-0.0001247396
177.2016,-0.0001247086
177.3016,-0.0001245739
177.4016,-0.000124492
177.5016,-0.0001245023
177.6016,-0.0001243724
177.7016,-0.0001242659
177.8017,-0.0001241972
177.9017,-0.0001241106
178.0017,-0.0001240625
178.1017,-0.0001239815
178.2017,-0.0001237998
178.3017,-0.0001237885
178.4017,-0.000123667
178.5017,-0.0001235229
178.6017,-0.0001234513
178.7017,-0.0001233751
178.8017,-0.0001233026
178.9017,-0.0001231481
179.0017,-0.0001230812
179.1017,-0.0001229861
179.2017,-0.0001228571
179.3017,-0.0001227931
179.4017,-0.000122697
179.5018,-0.0001225774
179.6018,-0.0001224625
179.7018,-0.0001224023
179.8018,-0.0001222902
179.9018,-0.0001221904
180.0018,-0.0001220792
180.1018,-0.0001219644
180.2018,-0.0001218721
180.3018,-0.0001217534
180.4018,-0.0001216527
180.5018,-0.0001215896
180.6018,-0.0001214662
180.7018,-0.0001213212
180.8018,-0.0001212901
180.9018,-0.0001211733
181.0018,-0.0001210659
181.1019,-0.0001209699
181.2019,-0.0001209614
181.3019,-0.0001207863
181.4019,-0.0001206827
181.5019,-0.0001205998
181.6019,-0.0001205254
181.7019,-0.0001204482
181.8019,-0.0001203484
181.9019,-0.0001202259
182.0019,-0.0001201722
182.1019,-0.0001200781
182.2019,-0.0001199773
182.3019,-0.0001199076
182.4019,-0.0001198153
182.5019,-0.0001196524
182.6019,-0.0001196392
182.702,-0.0001195206
182.802,-0.0001193812
182.902,-0.0001193106
183.002,-0.0001192305
183.102,-0.0001191081
183.202,-0.000119061
183.302,-0.0001189461
183.402,-0.0001187898
183.502,-0.0001187785
183.602,-0.0001186466
183.702,-0.0001185101
183.802,-0.0001184413
183.902,-0.0001183349
184.002,-0.0001182699
184.102,-0.0001181475
184.202,-0.0001180722
184.302,-0.0001179837
184.4021,-0.0001178537
184.5021,-0.0001177963
184.6021,-0.0001176889
184.7021,-0.0001176136
184.8021,-0.0001175213
184.9021,-0.0001174196
185.0021,-0.0001172868
185.1021,-0.0001172274
185.2021,-0.0001171691
185.3021,-0.0001170061
185.4021,-0.0001169412
185.5021,-0.0001168574
185.6021,-0.0001167189
185.7021,-0.0001166756
185.8021,-0.0001165569
185.9021,-0.0001163987
186.0022,-0.0001163554
186.1022,-0.0001162716
186.2022,-0.0001161134
186.3022,-0.0001160512
186.4022,-0.0001159928
186.5022,-0.0001159034
186.6022,-0.0001157301
186.7022,-0.0001157687
186.8022,-0.0001156717
186.9022,-0.0001155323
187.0022,-0.0001154702
187.1022,-0.0001153289
187.2022,-0.0001152385
187.3022,-0.0001152093
187.4022,-0.000115118
187.5022,-0.0001150238
187.6022,-0.0001149767
187.7023,-0.0001148816
187.8023,-0.0001148251
187.9023,-0.0001147422
188.0023,-0.000114649
188.1023,-0.000114601
188.2023,-0.0001145218
188.3023,-0.0001144117
188.4023,-0.00011439
188.5023,-0.0001143147
188.6023,-0.0001142045
188.7023,-0.0001141649
188.8023,-0.0001141066
188.9023,-0.0001140293
189.0023,-0.0001139352
189.1023,-0.0001138598
189.2023,-0.0001137478
189.3024,-0.0001137252
189.4024,-0.0001136413
189.5024,-0.0001135359
189.6024,-0.0001135067
189.7024,-0.0001134068
189.8024,-0.0001133268
189.9024,-0.0001132807
190.0024,-0.0001132072
190.1024,-0.0001130998
190.2024,-0.0001130273
190.3024,-0.0001129511
190.4024,-0.0001128597
190.5024,-0.0001128023
190.6024,-0.000112742
190.7024,-0.0001126422
190.8024,-0.0001125452
190.9025,-0.0001124811
191.0025,-0.0001124406
191.1025,-0.0001123625
191.2025,-0.0001122758
191.3025,-0.0001121619
191.4025,-0.0001121327
191.5025,-0.0001120451
191.6025,-0.0001119754
191.7025,-0.0001118803
191.8025,-0.0001117833
191.9025,-0.0001117183
192.0025,-0.0001116694
192.1025,-0.000111578
192.2025,-0.000111465
192.3025,-0.0001114311
192.4025,-0.0001113134
192.5025,-0.000111222
192.6026,-0.0001112352
192.7026,-0.000111158
192.8026,-0.0001110488
192.9026,-0.0001109414
193.0026,-0.0001108538
193.1026,-0.0001107917
193.2026,-0.0001106994
193.3026,-0.00011064
193.4026,-0.0001105233
193.5026,-0.0001104781
193.6026,-0.0001103754
193.7026,-0.0001102888
193.8026,-0.0001102257
193.9026,-0.000110204
194.0026,-0.0001101174
194.1026,-0.0001099865
194.2027,-0.000109929
194.3027,-0.0001098857
194.4027,-0.0001097906
194.5027,-0.0001097501
194.6027,-0.000109655
194.7027,-0.0001095834
194.8027,-0.0001095957
194.9027,-0.000109541
195.0027,-0.0001093536
195.1027,-0.0001092453
195.2027,-0.0001092274
195.3027,-0.0001091173
195.4027,-0.0001090278
195.5027,-0.0001089835
195.6027,-0.0001088583
195.7027,-0.0001087839
195.8027,-0.0001087669
195.9028,-0.0001086812
196.0028,-0.0001086342
196.1028,-0.000108524
196.2028,-0.0001084552
196.3028,-0.0001084223
196.4028,-0.0001083319
196.5028,-0.0001082245
196.6028,-0.0001082066
196.7028,-0.0001081539
196.8028,-0.0001080352
196.9028,-0.0001080098
197.0028,-0.0001079439
197.1028,-0.0001078224
197.2028,-0.0001077762
197.3028,-0.0001077263
197.4028,-0.0001076067
197.5029,-0.0001075691
197.6029,-0.0001075201
197.7029,-0.0001074297
197.8029,-0.000107393
197.9029,-0.0001073091
198.0029,-0.0001072131
198.1029,-0.0001071942
198.2029,-0.0001071349
198.3029,-0.0001069861
198.4029,-0.00010694
198.5029,-0.0001069249
198.6029,-0.0001068515
198.7029,-0.0001067968
198.8029,-0.000106714
198.9029,-0.0001066094
199.0029,-0.0001065567
199.103,-0.0001065209
199.203,-0.0001064333
199.303,-0.0001063721
199.403,-0.0001063053
199.503,-0.000106244
199.603,-0.0001061866
199.703,-0.0001061
199.803,-0.0001060095
199.903,-0.0001059888
200.003,-0.000105922
200.103,-0.0001058683
200.203,-0.0001057261
200.303,-0.0001057091
200.403,-0.0001056244
200.503,-0.0001055368
200.603,-0.0001054954
200.703,-0.0001054577
200.8031,-0.0001053729
200.9031,-0.0001053042
201.0031,-0.0001052458
201.1031,-0.0001052194
201.2031,-0.0001050989
201.3031,-0.0001050264
201.4031,-0.0001049708
201.5031,-0.0001049576
201.6031,-0.0001048766
201.7031,-0.0001047872
201.8031,-0.0001047401
201.9031,-0.0001046657
202.0031,-0.0001046356
202.1031,-0.0001045696
202.2031,-0.0001044585
202.3031,-0.0001043935
202.4032,-0.0001043587
202.5032,-0.0001042947
202.6032,-0.0001042024
202.7032,-0.0001041703
202.8032,-0.000104079
202.9032,-0.0001040178
203.0032,-0.0001039622
203.1032,-0.0001039085
203.2032,-0.0001038172
203.3032,-0.0001037607
203.4032,-0.0001037306
203.5032,-0.0001036402
203.6032,-0.0001035639
203.7032,-0.0001035215
203.8032,-0.000103433
203.9032,-0.0001033765
204.0033,-0.0001032936
204.1033,-0.0001032418
204.2033,-0.0001031815
204.3033,-0.0001031071
204.4033,-0.0001030582
204.5033,-0.0001029659
204.6033,-0.0001029197
204.7033,-0.0001028265
204.8033,-0.0001027851
204.9033,-0.0001027163
205.0033,-0.0001026344
205.1033,-0.0001025845
205.2033,-0.0001025261
205.3033,-0.0001024291
205.4033,-0.0001023867
205.5033,-0.0001023321
205.6033,-0.0001022407
205.7034,-0.0001021993
205.8034,-0.0001021042
205.9034,-0.0001020693
206.0034,-0.0001020241
206.1034,-0.0001019639
206.2034,-0.0001018659
206.3034,-0.0001018188
206.4034,-0.0001017793
206.5034,-0.0001016945
206.6034,-0.0001016418
206.7034,-0.0001015787
206.8034,-0.0001015043
206.9034,-0.00010146
207.0034,-0.0001014092
207.1034,-0.0001013141
207.2034,-0.0001012708
207.3035,-0.0001012218
207.4035,-0.0001011625
207.5035,-0.0001010881
207.6035,-0.0001010353
207.7035,-0.000100944
207.8035,-0.0001009374
207.9035,-0.0001008338
208.0035,-0.0001007632
208.1035,-0.0001007396
208.2035,-0.0001006972
208.3035,-0.0001005889
208.4035,-0.0001005249
208.5035,-0.0001004872
208.6035,-0.0001004223
208.7035,-0.0001003366
208.8035,-0.0001002829
208.9035,-0.0001002075
209.0036,-0.000100135
209.1036,-0.0001001388
209.2036,-0.0001000785
209.3036,-9.997022E-05
209.4036,-9.991843E-05
209.5036,-9.987323E-05
209.6036,-9.982143E-05
209.7036,-9.978659E-05
209.8036,-9.970936E-05
209.9036,-9.964815E-05
210.0036,-9.957846E-05
210.1036,-9.953044E-05
210.2036,-9.942496E-05
210.3036,-9.93807E-05
210.4036,-9.935433E-05
210.5036,-9.928465E-05
210.6037,-9.921873E-05
210.7037,-9.914809E-05
210.8037,-9.911795E-05
210.9037,-9.905392E-05
211.0037,-9.902191E-05
211.1037,-9.893243E-05
211.2037,-9.88976E-05
211.3037,-9.881754E-05
211.4037,-9.874221E-05
211.5037,-9.871112E-05
211.6037,-9.866687E-05
211.7037,-9.860283E-05
211.8037,-9.852937E-05
211.9037,-9.847946E-05
212.0037,-9.841919E-05
212.1037,-9.837493E-05
212.2038,-9.832125E-05
212.3038,-9.823556E-05
212.4038,-9.820542E-05
212.5038,-9.818E-05
212.6038,-9.812349E-05
212.7038,-9.804344E-05
212.8038,-9.797752E-05
212.9038,-9.792855E-05
213.0038,-9.788806E-05
213.1038,-9.781272E-05
213.2038,-9.772702E-05
213.3038,-9.767523E-05
213.4038,-9.765262E-05
213.5038,-9.761119E-05
213.6038,-9.756033E-05
213.7038,-9.750194E-05
213.8038,-9.741531E-05
213.9039,-9.739082E-05
214.0039,-9.734562E-05
214.1039,-9.727028E-05
214.2039,-9.719872E-05
214.3039,-9.722885E-05
214.4039,-9.720153E-05
214.5039,-9.707345E-05
214.6039,-9.702637E-05
214.7039,-9.696422E-05
214.8039,-9.690395E-05
214.9039,-9.68578E-05
215.0039,-9.681354E-05
215.1039,-9.672973E-05
215.2039,-9.667323E-05
215.3039,-9.662802E-05
215.4039,-9.656492E-05
215.504,-9.653572E-05
215.604,-9.649147E-05
215.704,-9.640483E-05
215.804,-9.635021E-05
215.904,-9.634456E-05
216.004,-9.629559E-05
216.104,-9.622214E-05
216.204,-9.617034E-05
216.304,-9.614773E-05
216.404,-9.610158E-05
216.504,-9.604698E-05
216.604,-9.595656E-05
216.704,-9.596692E-05
216.804,-9.594809E-05
216.904,-9.585769E-05
217.004,-9.582943E-05
217.104,-9.577481E-05
217.2041,-9.567875E-05
217.3041,-9.570324E-05
217.4041,-9.560154E-05
217.5041,-9.551866E-05
217.6041,-9.555633E-05
217.7041,-9.550547E-05
217.8041,-9.543674E-05
217.9041,-9.542731E-05
218.0041,-9.536892E-05
218.1041,-9.527381E-05
218.2041,-9.529453E-05
218.3041,-9.522954E-05
218.4041,-9.510713E-05
218.5041,-9.510147E-05
218.6041,-9.509018E-05
218.7041,-9.503367E-05
218.8042,-9.499882E-05
218.9042,-9.492631E-05
219.0042,-9.484062E-05
219.1042,-9.486133E-05
219.2042,-9.478976E-05
219.3042,-9.472478E-05
219.4042,-9.470783E-05
219.5042,-9.465226E-05
219.6042,-9.457787E-05
219.7042,-9.452985E-05
219.8042,-9.447899E-05
219.9042,-9.44046E-05
220.0042,-9.436787E-05
220.1042,-9.43415E-05
220.2042,-9.423697E-05
220.3042,-9.421059E-05
220.4043,-9.416633E-05
220.5043,-9.409194E-05
220.6043,-9.407687E-05
220.7043,-9.40053E-05
220.8043,-9.39309E-05
220.9043,-9.386121E-05
221.0043,-9.383014E-05
221.1043,-9.37548E-05
221.2043,-9.374255E-05
221.3043,-9.369077E-05
221.4043,-9.358435E-05
221.5043,-9.353066E-05
221.6043,-9.352031E-05
221.7043,-9.347793E-05
221.8043,-9.340353E-05
221.9043,-9.336021E-05
222.0043,-9.329524E-05
222.1044,-9.32538E-05
222.2044,-9.321613E-05
222.3044,-9.313891E-05
222.4044,-9.308993E-05
222.5044,-9.30438E-05
222.6044,-9.30146E-05
222.7044,-9.295809E-05
222.8044,-9.287804E-05
222.9044,-9.285921E-05
223.0044,-9.275374E-05
223.1044,-9.275656E-05
223.2044,-9.269064E-05
223.3044,-9.262095E-05
223.4044,-9.255126E-05
223.5044,-9.253054E-05
223.6044,-9.243638E-05
223.7045,-9.241942E-05
223.8045,-9.236574E-05
223.9045,-9.227533E-05
224.0045,-9.224049E-05
224.1045,-9.223296E-05
224.2045,-9.21548E-05
224.3045,-9.208888E-05
224.4045,-9.205686E-05
224.5045,-9.196551E-05
224.6045,-9.196175E-05
224.7045,-9.194008E-05
224.8045,-9.18346E-05
224.9045,-9.176492E-05
225.0045,-9.173007E-05
225.1045,-9.168957E-05
225.2045,-9.165568E-05
225.3046,-9.160859E-05
225.4046,-9.152101E-05
225.5046,-9.147298E-05
225.6046,-9.144473E-05
225.7046,-9.137975E-05
225.8046,-9.134961E-05
225.9046,-9.129404E-05
226.0046,-9.122437E-05
226.1046,-9.119046E-05
226.2046,-9.114714E-05
226.3046,-9.110948E-05
226.4046,-9.105862E-05
226.5046,-9.099553E-05
226.6046,-9.091548E-05
226.7046,-9.092018E-05
226.8046,-9.084296E-05
226.9046,-9.075538E-05
227.0047,-9.071019E-05
227.1047,-9.06678E-05
227.2047,-9.063767E-05
227.3047,-9.059058E-05
227.4047,-9.053313E-05
227.5047,-9.045403E-05
227.6047,-9.042295E-05
227.7047,-9.039565E-05
227.8047,-9.029864E-05
227.9047,-9.030147E-05
228.0047,-9.020918E-05
228.1047,-9.014608E-05
228.2047,-9.011124E-05
228.3047,-9.007169E-05
228.4047,-8.998223E-05
228.5047,-8.994644E-05
228.6048,-8.98937E-05
228.7048,-8.982025E-05
228.8048,-8.98033E-05
228.9048,-8.976845E-05
229.0048,-8.969122E-05
229.1048,-8.964509E-05
229.2048,-8.957068E-05
229.3048,-8.951983E-05
229.4048,-8.949816E-05
229.5048,-8.945391E-05
229.6048,-8.936351E-05
229.7048,-8.931266E-05
229.8048,-8.927592E-05
229.9048,-8.920153E-05
230.0048,-8.918551E-05
230.1048,-8.914314E-05
230.2048,-8.902071E-05
230.3049,-8.901035E-05
230.4049,-8.895197E-05
230.5049,-8.886533E-05
230.6049,-8.886533E-05
230.7049,-8.881824E-05
230.8049,-8.870524E-05
230.9049,-8.870335E-05
231.0049,-8.864496E-05
231.1049,-8.857151E-05
231.2049,-8.855927E-05
231.3049,-8.854514E-05
231.4049,-8.841989E-05
231.5049,-8.839729E-05
231.6049,-8.838128E-05
231.7049,-8.831536E-05
231.8049,-8.827957E-05
231.905,-8.82485E-05
232.005,-8.814019E-05
232.105,-8.812889E-05
232.205,-8.810253E-05
232.305,-8.800741E-05
232.405,-8.798858E-05
232.505,-8.799893E-05
232.605,-8.793961E-05
232.705,-8.792642E-05
232.805,-8.784731E-05
232.905,-8.78379E-05
233.005,-8.779552E-05
233.105,-8.774373E-05
233.205,-8.765897E-05
233.305,-8.765426E-05
233.405,-8.762412E-05
233.5051,-8.756857E-05
233.6051,-8.75422E-05
233.7051,-8.749228E-05
233.8051,-8.745085E-05
233.9051,-8.74452E-05
234.0051,-8.738964E-05
234.1051,-8.732654E-05
234.2051,-8.731242E-05
234.3051,-8.72964E-05
234.4051,-8.72738E-05
234.5051,-8.721164E-05
234.6051,-8.720412E-05
234.7051,-8.718622E-05
234.8051,-8.710994E-05
234.9051,-8.708451E-05
235.0051,-8.698658E-05
235.1051,-8.703178E-05
235.2052,-8.699693E-05
235.3052,-8.690276E-05
235.4052,-8.688016E-05
235.5052,-8.688487E-05
235.6052,-8.686697E-05
235.7052,-8.680388E-05
235.8052,-8.672478E-05
235.9052,-8.673137E-05
236.0052,-8.670877E-05
236.1052,-8.664284E-05
236.2052,-8.657126E-05
236.3052,-8.652795E-05
236.4052,-8.650817E-05
236.5052,-8.647051E-05
236.6052,-8.640929E-05
236.7052,-8.636786E-05
236.8053,-8.633207E-05
236.9053,-8.631135E-05
237.0053,-8.627275E-05
237.1053,-8.622378E-05
237.2053,-8.617951E-05
237.3053,-8.615126E-05
237.4053,-8.614372E-05
237.5053,-8.608252E-05
237.6053,-8.603166E-05
237.7053,-8.601659E-05
237.8053,-8.598363E-05
237.9053,-8.592148E-05
238.0053,-8.588099E-05
238.1053,-8.581977E-05
238.2053,-8.579435E-05
238.3053,-8.572559E-05
238.4053,-8.56785E-05
238.5054,-8.566062E-05
238.6054,-8.564837E-05
238.7054,-8.557304E-05
238.8054,-8.557209E-05
238.9054,-8.550429E-05
239.0054,-8.545531E-05
239.1054,-8.547415E-05
239.2054,-8.539034E-05
239.3054,-8.531406E-05
239.4054,-8.530182E-05
239.5054,-8.523778E-05
239.6054,-8.521329E-05
239.7054,-8.518599E-05
239.8054,-8.511441E-05
239.9054,-8.505132E-05
240.0054,-8.507298E-05
240.1055,-8.502401E-05
240.2055,-8.498634E-05
240.3055,-8.494678E-05
240.4055,-8.48931E-05
240.5055,-8.486862E-05
240.6055,-8.48253E-05
240.7055,-8.477257E-05
240.8055,-8.472453E-05
240.9055,-8.467651E-05
241.0055,-8.46652E-05
241.1055,-8.461434E-05
241.2055,-8.451359E-05
241.3055,-8.453713E-05
241.4055,-8.451829E-05
241.5055,-8.443919E-05
241.6055,-8.435538E-05
241.7056,-8.434784E-05
241.8056,-8.428852E-05
241.9056,-8.427533E-05
242.0056,-8.423107E-05
242.1056,-8.418963E-05
242.2056,-8.416044E-05
242.3056,-8.410111E-05
242.4056,-8.405496E-05
242.5056,-8.401447E-05
242.6056,-8.400788E-05
242.7056,-8.396173E-05
242.8056,-8.389299E-05
242.9056,-8.385249E-05
243.0056,-8.378469E-05
243.1056,-8.380823E-05
243.2056,-8.37263E-05
243.3056,-8.365473E-05
243.4057,-8.366603E-05
243.5057,-8.364437E-05
243.6057,-8.358034E-05
243.7057,-8.354831E-05
243.8057,-8.348239E-05
243.9057,-8.34532E-05
244.0057,-8.343624E-05
244.1057,-8.337221E-05
244.2057,-8.331288E-05
244.3057,-8.331853E-05
244.4057,-8.326297E-05
244.5057,-8.321777E-05
244.6057,-8.319893E-05
244.7057,-8.314807E-05
244.8057,-8.307557E-05
244.9057,-8.307745E-05
245.0058,-8.303036E-05
245.1058,-8.294467E-05
245.2058,-8.294654E-05
245.3058,-8.292112E-05
245.4058,-8.284295E-05
245.5058,-8.281565E-05
245.6058,-8.277797E-05
245.7058,-8.274314E-05
245.8058,-8.273277E-05
245.9058,-8.268663E-05
246.0058,-8.2616E-05
246.1058,-8.258304E-05
246.2058,-8.256138E-05
246.3058,-8.252088E-05
246.4058,-8.249452E-05
246.5058,-8.243048E-05
246.6059,-8.240505E-05
246.7059,-8.237868E-05
246.8059,-8.232501E-05
246.9059,-8.230428E-05
247.0059,-8.223271E-05
247.1059,-8.221576E-05
247.2059,-8.214325E-05
247.3059,-8.213666E-05
247.4059,-8.208863E-05
247.5059,-8.203966E-05
247.6059,-8.199445E-05
247.7059,-8.196996E-05
247.8059,-8.196903E-05
247.9059,-8.19144E-05
248.0059,-8.187392E-05
248.1059,-8.180894E-05
248.2059,-8.181835E-05
248.306,-8.177691E-05
248.406,-8.17223E-05
248.506,-8.167615E-05
248.606,-8.167145E-05
248.706,-8.162436E-05
248.806,-8.159987E-05
248.906,-8.153961E-05
249.006,-8.149816E-05
249.106,-8.147275E-05
249.206,-8.145485E-05
249.306,-8.139551E-05
249.406,-8.133242E-05
249.506,-8.138987E-05
249.606,-8.13795E-05
249.706,-8.125708E-05
249.806,-8.120528E-05
249.9061,-8.12034E-05
250.0061,-8.113276E-05
250.1061,-8.11356E-05
250.2061,-8.107156E-05
250.3061,-8.102259E-05
250.4061,-8.097174E-05
250.5061,-8.095949E-05
250.6061,-8.091335E-05
250.7061,-8.085214E-05
250.8061,-8.085025E-05
250.9061,-8.08333E-05
251.0061,-8.079375E-05
251.1061,-8.073253E-05
251.2061,-8.069298E-05
251.3061,-8.070334E-05
251.4061,-8.062424E-05
251.5061,-8.056867E-05
251.6062,-8.056396E-05
251.7062,-8.052347E-05
251.8062,-8.044248E-05
251.9062,-8.045943E-05
252.0062,-8.041423E-05
252.1062,-8.036714E-05
252.2062,-8.036055E-05
252.3062,-8.029934E-05
252.4062,-8.025508E-05
252.5062,-8.025225E-05
252.6062,-8.020988E-05
252.7062,-8.013453E-05
252.8062,-8.011946E-05
252.9062,-8.011758E-05
253.0062,-8.007897E-05
253.1062,-8.004413E-05
253.2063,-7.99735E-05
253.3063,-7.992452E-05
253.4063,-7.99283E-05
253.5063,-7.991793E-05
253.6063,-7.982565E-05
253.7063,-7.981246E-05
253.8063,-7.978892E-05
253.9063,-7.973713E-05
254.0063,-7.970229E-05
254.1063,-7.963824E-05
254.2063,-7.962601E-05
254.3063,-7.959398E-05
254.4063,-7.957515E-05
254.5063,-7.952994E-05
254.6063,-7.949227E-05
254.7063,-7.945555E-05
254.8064,-7.943578E-05
254.9064,-7.941317E-05
255.0064,-7.937079E-05
255.1064,-7.929545E-05
255.2064,-7.926908E-05
255.3064,-7.921729E-05
255.4064,-7.920599E-05
255.5064,-7.920693E-05
255.6064,-7.915043E-05
255.7064,-7.907885E-05
255.8064,-7.906285E-05
255.9064,-7.90685E-05
256.0064,-7.899692E-05
256.1064,-7.898091E-05
256.2064,-7.896396E-05
256.3064,-7.887262E-05
256.4064,-7.885096E-05
256.5064,-7.88227E-05
256.6064,-7.879445E-05
256.7065,-7.875679E-05
256.8065,-7.873512E-05
256.9065,-7.86871E-05
257.0065,-7.865507E-05
257.1065,-7.8624E-05
257.2065,-7.859387E-05
257.3065,-7.857408E-05
257.4065,-7.853266E-05
257.5065,-7.85044E-05
257.6065,-7.84592E-05
257.7065,-7.840458E-05
257.8065,-7.838103E-05
257.9065,-7.834336E-05
258.0065,-7.833772E-05
258.1065,-7.827556E-05
258.2065,-7.822376E-05
258.3065,-7.820775E-05
258.4066,-7.817856E-05
258.5066,-7.813807E-05
258.6066,-7.808721E-05
258.7066,-7.804861E-05
258.8066,-7.804578E-05
258.9066,-7.801187E-05
259.0066,-7.795442E-05
259.1066,-7.789604E-05
259.2066,-7.793088E-05
259.3066,-7.788756E-05
259.4066,-7.78094E-05
259.5066,-7.778962E-05
259.6066,-7.773971E-05
259.7066,-7.769169E-05
259.8066,-7.769357E-05
259.9066,-7.766344E-05
260.0067,-7.760694E-05
260.1067,-7.760034E-05
260.2067,-7.756926E-05
260.3067,-7.749486E-05
260.4067,-7.746285E-05
260.5067,-7.74732E-05
260.6067,-7.741481E-05
260.7067,-7.74167E-05
260.8067,-7.736019E-05
260.9067,-7.72924E-05
261.0067,-7.72971E-05
261.1067,-7.730463E-05
261.2067,-7.720764E-05
261.3067,-7.718315E-05
261.4067,-7.717185E-05
261.5067,-7.713417E-05
261.6068,-7.711723E-05
261.7068,-7.707203E-05
261.8068,-7.703625E-05
261.9068,-7.700328E-05
262.0068,-7.69948E-05
262.1068,-7.693265E-05
262.2068,-7.689592E-05
262.3068,-7.687521E-05
262.4068,-7.682906E-05
262.5068,-7.683094E-05
262.6068,-7.678103E-05
262.7068,-7.674147E-05
262.8068,-7.670098E-05
262.9068,-7.667368E-05
263.0068,-7.662376E-05
263.1068,-7.662E-05
263.2068,-7.66247E-05
263.3069,-7.656537E-05
263.4069,-7.654936E-05
263.5069,-7.648344E-05
263.6069,-7.644201E-05
263.7069,-7.642412E-05
263.8069,-7.638456E-05
263.9069,-7.635066E-05
264.0069,-7.632617E-05
264.1069,-7.62838E-05
264.2069,-7.623294E-05
264.3069,-7.623671E-05
264.4069,-7.619434E-05
264.5069,-7.612936E-05
264.6069,-7.612276E-05
264.7069,-7.611523E-05
264.8069,-7.610204E-05
264.907,-7.605214E-05
265.007,-7.600034E-05
265.107,-7.597115E-05
265.207,-7.597209E-05
265.307,-7.594007E-05
265.407,-7.588357E-05
265.507,-7.584025E-05
265.607,-7.580822E-05
265.707,-7.580635E-05
265.807,-7.577056E-05
265.907,-7.574607E-05
266.007,-7.570087E-05
266.107,-7.565849E-05
266.207,-7.564907E-05
266.307,-7.562364E-05
266.407,-7.56001E-05
266.507,-7.556055E-05
266.6071,-7.55144E-05
266.7071,-7.552664E-05
266.8071,-7.55323E-05
266.9071,-7.546166E-05
267.0071,-7.539387E-05
267.1071,-7.541175E-05
267.2071,-7.538539E-05
267.3071,-7.533641E-05
267.4071,-7.534112E-05
267.5071,-7.531192E-05
267.6071,-7.524507E-05
267.7071,-7.519139E-05
267.8071,-7.518951E-05
267.9071,-7.514335E-05
268.0071,-7.511887E-05
268.1071,-7.509628E-05
268.2072,-7.502376E-05
268.3072,-7.504448E-05
268.4072,-7.502564E-05
268.5072,-7.495596E-05
268.6072,-7.494936E-05
268.7072,-7.4939E-05
268.8072,-7.489663E-05
268.9072,-7.486837E-05
269.0072,-7.484954E-05
269.1072,-7.482318E-05
269.2072,-7.477608E-05
269.3072,-7.475254E-05
269.4072,-7.4713E-05
269.5072,-7.471487E-05
269.6072,-7.46659E-05
269.7072,-7.462824E-05
269.8073,-7.459716E-05
269.9073,-7.457926E-05
270.0073,-7.455854E-05
270.1073,-7.451711E-05
270.2073,-7.449074E-05
270.3073,-7.443236E-05
270.4073,-7.44898E-05
270.5073,-7.441446E-05
270.6073,-7.435795E-05
270.7073,-7.43589E-05
270.8073,-7.434289E-05
270.9073,-7.429768E-05
271.0073,-7.427602E-05
271.1073,-7.427038E-05
271.2073,-7.419881E-05
271.3073,-7.419032E-05
271.4073,-7.41536E-05
271.5074,-7.411028E-05
271.6074,-7.409709E-05
271.7074,-7.407355E-05
271.8074,-7.404907E-05
271.9074,-7.402176E-05
272.0074,-7.396055E-05
272.1074,-7.395113E-05
272.2074,-7.391346E-05
272.3074,-7.390781E-05
272.4074,-7.385507E-05
272.5074,-7.380988E-05
272.6074,-7.379668E-05
272.7074,-7.378821E-05
272.8074,-7.37948E-05
272.9074,-7.374677E-05
273.0074,-7.36931E-05
273.1075,-7.365637E-05
273.2075,-7.361681E-05
273.3075,-7.359327E-05
273.4075,-7.359892E-05
273.5075,-7.353206E-05
273.6075,-7.346708E-05
273.7075,-7.351417E-05
273.8075,-7.345107E-05
273.9075,-7.339362E-05
274.0075,-7.337856E-05
274.1075,-7.337479E-05
274.2075,-7.338421E-05
274.3075,-7.333994E-05
274.4075,-7.327403E-05
274.5075,-7.32533E-05
274.6075,-7.325049E-05
274.7076,-7.321281E-05
274.8076,-7.31516E-05
274.9076,-7.309415E-05
275.0076,-7.310451E-05
275.1076,-7.310357E-05
275.2076,-7.306872E-05
275.3076,-7.302353E-05
275.4076,-7.29915E-05
275.5076,-7.293688E-05
275.6076,-7.293783E-05
275.7076,-7.291428E-05
275.8076,-7.287096E-05
275.9076,-7.286626E-05
276.0076,-7.281634E-05
276.1076,-7.280881E-05
276.2076,-7.276078E-05
276.3076,-7.271558E-05
276.4077,-7.270616E-05
276.5077,-7.268356E-05
276.6077,-7.266754E-05
276.7077,-7.262611E-05
276.8077,-7.263553E-05
276.9077,-7.25762E-05
277.0077,-7.253288E-05
277.1077,-7.255831E-05
277.2077,-7.250745E-05
277.3077,-7.246225E-05
277.4077,-7.243305E-05
277.5077,-7.241328E-05
277.6077,-7.234736E-05
277.7077,-7.234831E-05
277.8077,-7.232758E-05
277.9077,-7.229933E-05
278.0078,-7.227955E-05
278.1078,-7.226544E-05
278.2078,-7.221364E-05
278.3078,-7.223718E-05
278.4078,-7.218727E-05
278.5078,-7.213077E-05
278.6078,-7.211192E-05
278.7078,-7.210911E-05
278.8078,-7.207049E-05
278.9078,-7.207049E-05
279.0078,-7.203753E-05
279.1078,-7.19716E-05
279.2078,-7.199233E-05
279.3078,-7.196784E-05
279.4078,-7.1933E-05
279.5078,-7.192075E-05
279.6078,-7.188779E-05
279.7079,-7.18925E-05
279.8079,-7.185766E-05
279.9079,-7.185295E-05
280.0079,-7.17955E-05
280.1079,-7.176066E-05
280.2079,-7.175501E-05
280.3079,-7.173335E-05
280.4079,-7.168909E-05
280.5079,-7.169474E-05
280.6079,-7.167496E-05
280.7079,-7.162977E-05
280.8079,-7.160716E-05
280.9079,-7.157514E-05
281.0079,-7.155253E-05
281.1079,-7.156949E-05
281.2079,-7.152994E-05
281.308,-7.148567E-05
281.408,-7.147344E-05
281.508,-7.146967E-05
281.608,-7.142446E-05
281.708,-7.140751E-05
281.808,-7.13802E-05
281.908,-7.139151E-05
282.008,-7.140658E-05
282.108,-7.133594E-05
282.208,-7.129827E-05
282.308,-7.128791E-05
282.408,-7.125307E-05
282.508,-7.122105E-05
282.608,-7.120127E-05
282.708,-7.11749E-05
282.808,-7.11231E-05
282.9081,-7.110427E-05
283.0081,-7.109485E-05
283.1081,-7.104212E-05
283.2081,-7.103835E-05
283.3081,-7.099221E-05
283.4081,-7.09583E-05
283.5081,-7.09649E-05
283.6081,-7.096019E-05
283.7081,-7.088485E-05
283.8081,-7.086978E-05
283.9081,-7.08566E-05
284.0081,-7.081516E-05
284.1081,-7.082835E-05
284.2081,-7.079256E-05
284.3081,-7.072381E-05
284.4081,-7.071817E-05
284.5081,-7.072099E-05
284.6082,-7.068426E-05
284.7082,-7.064189E-05
284.8082,-7.064565E-05
284.9082,-7.059197E-05
285.0082,-7.057503E-05
285.1082,-7.056937E-05
285.2082,-7.052888E-05
285.3082,-7.051947E-05
285.4082,-7.048462E-05
285.5082,-7.041493E-05
285.6082,-7.042246E-05
285.7082,-7.041399E-05
285.8082,-7.035372E-05
285.9082,-7.034618E-05
286.0082,-7.029816E-05
286.1082,-7.027838E-05
286.2083,-7.027743E-05
286.3083,-7.025013E-05
286.4083,-7.018608E-05
286.5083,-7.016631E-05
286.6083,-7.015972E-05
286.7083,-7.01164E-05
286.8083,-7.011451E-05
286.9083,-7.009285E-05
287.0083,-7.002035E-05
287.1083,-7.001469E-05
287.2083,-7.001658E-05
287.3083,-6.997796E-05
287.4083,-6.994783E-05
287.5083,-6.991863E-05
287.6083,-6.984235E-05
287.7083,-6.988567E-05
287.8083,-6.983294E-05
287.9084,-6.979526E-05
288.0084,-6.979998E-05
288.1084,-6.97397E-05
288.2084,-6.974253E-05
288.3084,-6.970487E-05
288.4084,-6.965589E-05
288.5084,-6.9638E-05
288.6084,-6.960598E-05
288.7084,-6.960504E-05
288.8084,-6.952781E-05
288.9084,-6.950333E-05
289.0084,-6.956266E-05
289.1084,-6.95815E-05
289.2084,-6.946943E-05
289.3084,-6.941952E-05
289.4084,-6.942705E-05
289.5085,-6.936961E-05
289.6085,-6.934512E-05
289.7085,-6.932911E-05
289.8085,-6.933382E-05
289.9085,-6.936583E-05
290.0085,-6.936112E-05
290.1085,-6.926413E-05
290.2085,-6.921798E-05
290.3085,-6.921045E-05
290.4085,-6.914076E-05
290.5085,-6.913512E-05
290.6085,-6.909933E-05
290.7085,-6.905412E-05
290.8085,-6.906449E-05
290.9085,-6.9056E-05
291.0085,-6.900421E-05
291.1086,-6.89882E-05
291.2086,-6.894959E-05
291.3086,-6.892605E-05
291.4086,-6.895901E-05
291.5086,-6.893735E-05
291.6086,-6.88639E-05
291.7086,-6.887802E-05
291.8086,-6.888837E-05
291.9086,-6.885824E-05
292.0086,-6.884412E-05
292.1086,-6.878479E-05
292.2086,-6.876219E-05
292.3086,-6.879138E-05
292.4086,-6.8749E-05
292.5086,-6.870945E-05
292.6086,-6.869344E-05
292.7086,-6.868497E-05
292.8087,-6.863977E-05
292.9087,-6.866802E-05
293.0087,-6.862941E-05
293.1087,-6.858138E-05
293.2087,-6.857007E-05
293.3087,-6.857949E-05
293.4087,-6.854559E-05
293.5087,-6.852582E-05
293.6087,-6.849851E-05
293.7087,-6.844671E-05
293.8087,-6.844106E-05
293.9087,-6.844576E-05
294.0087,-6.839492E-05
294.1087,-6.838738E-05
294.2087,-6.83902E-05
294.3087,-6.833277E-05
294.4088,-6.830921E-05
294.5088,-6.831111E-05
294.6088,-6.828191E-05
294.7088,-6.822916E-05
294.8088,-6.826684E-05
294.9088,-6.822635E-05
295.0088,-6.818491E-05
295.1088,-6.820657E-05
295.2088,-6.816701E-05
295.3088,-6.813028E-05
295.4088,-6.811898E-05
295.5088,-6.809827E-05
295.6088,-6.804082E-05
295.7088,-6.80493E-05
295.8088,-6.803706E-05
295.9088,-6.79702E-05
296.0089,-6.794571E-05
296.1089,-6.791463E-05
296.2089,-6.792122E-05
296.3089,-6.794288E-05
296.4089,-6.790992E-05
296.5089,-6.783741E-05
296.6089,-6.782799E-05
296.7089,-6.779598E-05
296.8089,-6.776583E-05
296.9089,-6.77423E-05
297.0089,-6.772346E-05
297.1089,-6.764906E-05
297.2089,-6.766319E-05
297.3089,-6.766601E-05
297.4089,-6.760951E-05
297.5089,-6.756807E-05
297.6089,-6.756619E-05
297.709,-6.752852E-05
297.809,-6.753323E-05
297.909,-6.751251E-05
298.009,-6.746261E-05
298.109,-6.745883E-05
298.209,-6.744565E-05
298.309,-6.73995E-05
298.409,-6.741269E-05
298.509,-6.737879E-05
298.609,-6.731004E-05
298.709,-6.729309E-05
298.809,-6.728555E-05
298.909,-6.727614E-05
299.009,-6.726766E-05
299.109,-6.722528E-05
299.209,-6.720267E-05
299.3091,-6.715654E-05
299.4091,-6.716407E-05
299.5091,-6.712264E-05
299.6091,-6.712264E-05
299.7091,-6.710098E-05
299.8091,-6.705953E-05
299.9091,-6.705859E-05
300.0091,-6.69955E-05
300.1091,-6.703034E-05
300.2091,-6.697384E-05
300.3091,-6.695218E-05
300.4091,-6.692205E-05
300.5091,-6.690792E-05
300.6091,-6.689096E-05
300.7091,-6.686083E-05
300.8091,-6.680244E-05
300.9091,-6.681281E-05
301.0092,-6.682223E-05
301.1092,-6.677325E-05
301.2092,-6.674312E-05
301.3092,-6.673464E-05
301.4092,-6.668002E-05
301.5092,-6.668943E-05
301.6092,-6.667155E-05
301.7092,-6.663764E-05
301.8092,-6.661504E-05
301.9092,-6.65736E-05
302.0092,-6.657925E-05
302.1092,-6.658208E-05
302.2092,-6.654347E-05
302.3092,-6.651145E-05
302.4092,-6.648791E-05
302.5092,-6.645871E-05
302.6093,-6.643893E-05
302.7093,-6.641257E-05
302.8093,-6.640975E-05
302.9093,-6.634382E-05
303.0093,-6.636077E-05
303.1093,-6.630615E-05
303.2093,-6.623175E-05
303.3093,-6.628731E-05
303.4093,-6.624965E-05
303.5093,-6.617713E-05
303.6093,-6.617243E-05
303.7093,-6.614324E-05
303.8093,-6.612628E-05
303.9093,-6.611498E-05
304.0093,-6.608861E-05
304.1093,-6.604435E-05
304.2094,-6.604341E-05
304.3094,-6.602646E-05
304.4094,-6.596337E-05
304.5094,-6.596807E-05
304.6094,-6.595771E-05
304.7094,-6.591062E-05
304.8094,-6.588142E-05
304.9094,-6.588521E-05
305.0094,-6.587955E-05
305.1094,-6.585036E-05
305.2094,-6.581645E-05
305.3094,-6.579574E-05
305.4094,-6.573828E-05
305.5094,-6.580327E-05
305.6094,-6.571758E-05
305.7094,-6.567896E-05
305.8094,-6.569874E-05
305.9095,-6.564223E-05
306.0095,-6.56008E-05
306.1095,-6.567143E-05
306.2095,-6.560739E-05
306.3095,-6.554523E-05
306.4095,-6.554995E-05
306.5095,-6.55085E-05
306.6095,-6.542374E-05
306.7095,-6.548403E-05
306.8095,-6.544353E-05
306.9095,-6.535407E-05
307.0095,-6.538326E-05
307.1095,-6.538702E-05
307.2095,-6.532582E-05
307.3095,-6.529662E-05
307.4095,-6.534465E-05
307.5096,-6.534747E-05
307.6096,-6.529285E-05
307.7096,-6.525706E-05
307.8096,-6.520244E-05
307.9096,-6.517984E-05
308.0096,-6.517325E-05
308.1096,-6.512805E-05
308.2096,-6.513746E-05
308.3096,-6.512522E-05
308.4096,-6.507248E-05
308.5096,-6.507719E-05
308.6096,-6.503293E-05
308.7096,-6.502257E-05
308.8096,-6.50075E-05
308.9096,-6.498962E-05
309.0096,-6.494159E-05
309.1096,-6.496419E-05
309.2097,-6.494347E-05
309.3097,-6.489732E-05
309.4097,-6.486907E-05
309.5097,-6.485495E-05
309.6097,-6.481256E-05
309.7097,-6.48314E-05
309.8097,-6.482387E-05
309.9097,-6.476548E-05
310.0097,-6.475982E-05
310.1097,-6.474476E-05
310.2097,-6.470144E-05
310.3097,-6.471275E-05
310.4097,-6.469955E-05
310.5097,-6.46327E-05
310.6097,-6.462987E-05
310.7097,-6.461387E-05
310.8098,-6.458654E-05
310.9098,-6.456961E-05
311.0098,-6.454701E-05
311.1098,-6.449991E-05
311.2098,-6.449332E-05
311.3098,-6.449991E-05
311.4098,-6.445282E-05
311.5098,-6.440763E-05
311.6098,-6.442929E-05
311.7098,-6.440197E-05
311.8098,-6.439915E-05
311.9098,-6.436901E-05
312.0098,-6.430686E-05
312.1098,-6.430121E-05
312.2098,-6.426354E-05
312.3098,-6.425977E-05
312.4099,-6.426354E-05
312.5099,-6.422492E-05
312.6099,-6.416936E-05
312.7099,-6.416842E-05
312.8099,-6.414111E-05
312.9099,-6.411098E-05
313.0099,-6.41138E-05
313.1099,-6.408367E-05
313.2099,-6.405541E-05
313.3099,-6.404035E-05
313.4099,-6.401963E-05
313.5099,-6.400457E-05
313.6099,-6.400267E-05
313.7099,-6.396595E-05
313.8099,-6.39424E-05
313.9099,-6.394052E-05
314.0099,-6.390944E-05
314.11,-6.389061E-05
314.21,-6.387178E-05
314.31,-6.383599E-05
314.41,-6.380679E-05
314.51,-6.380869E-05
314.61,-6.380774E-05
314.71,-6.373994E-05
314.81,-6.370321E-05
314.91,-6.377666E-05
315.01,-6.375218E-05
315.11,-6.365706E-05
315.21,-6.3642E-05
315.31,-6.364576E-05
315.41,-6.361092E-05
315.51,-6.359303E-05
315.61,-6.357795E-05
315.7101,-6.353182E-05
315.8101,-6.354594E-05
315.9101,-6.350168E-05
316.0101,-6.349508E-05
316.1101,-6.348002E-05
316.2101,-6.346682E-05
316.3101,-6.342446E-05
316.4101,-6.33915E-05
316.5101,-6.34141E-05
316.6101,-6.336795E-05
316.7101,-6.334911E-05
316.8101,-6.334158E-05
316.9101,-6.333405E-05
317.0101,-6.334818E-05
317.1101,-6.329449E-05
317.2101,-6.32427E-05
317.3102,-6.323046E-05
317.4102,-6.32201E-05
317.5102,-6.318808E-05
317.6102,-6.317772E-05
317.7102,-6.312686E-05
317.8102,-6.311086E-05
317.9102,-6.312875E-05
318.0102,-6.311746E-05
318.1102,-6.303081E-05
318.2102,-6.304776E-05
318.3102,-6.303081E-05
318.4102,-6.300162E-05
318.5102,-6.299879E-05
318.6102,-6.295171E-05
318.7102,-6.294323E-05
318.8102,-6.291592E-05
318.9102,-6.290744E-05
319.0103,-6.286131E-05
319.1103,-6.287919E-05
319.2103,-6.285565E-05
319.3103,-6.278596E-05
319.4103,-6.280856E-05
319.5103,-6.277749E-05
319.6103,-6.274641E-05
319.7103,-6.275489E-05
319.8103,-6.273887E-05
319.9103,-6.269932E-05
320.0103,-6.266731E-05
320.1103,-6.266071E-05
320.2103,-6.262209E-05
320.3103,-6.262964E-05
320.4103,-6.262209E-05
320.5103,-6.258255E-05
320.6104,-6.254865E-05
320.7104,-6.256465E-05
320.8104,-6.253357E-05
320.9104,-6.252134E-05
321.0104,-6.252699E-05
321.1104,-6.248931E-05
321.2104,-6.244694E-05
321.3104,-6.2446E-05
321.4104,-6.243564E-05
321.5104,-6.240173E-05
321.6104,-6.23782E-05
321.7104,-6.232263E-05
321.8104,-6.22972E-05
321.9104,-6.231886E-05
322.0104,-6.226801E-05
322.1104,-6.223316E-05
322.2104,-6.224259E-05
322.3105,-6.220774E-05
322.4105,-6.218325E-05
322.5105,-6.218419E-05
322.6105,-6.215783E-05
322.7105,-6.213334E-05
322.8105,-6.213522E-05
322.9105,-6.209191E-05
323.0105,-6.209002E-05
323.1105,-6.208814E-05
323.2105,-6.20354E-05
323.3105,-6.201374E-05
323.4105,-6.205612E-05
323.5105,-6.201563E-05
323.6105,-6.195724E-05
323.7105,-6.196006E-05
323.8105,-6.196006E-05
323.9106,-6.192239E-05
324.0106,-6.192522E-05
324.1106,-6.188473E-05
324.2106,-6.185836E-05
324.3106,-6.186118E-05
324.4106,-6.183104E-05
324.5106,-6.17962E-05
324.6106,-6.180374E-05
324.7106,-6.178019E-05
324.8106,-6.171427E-05
324.9106,-6.173593E-05
325.0106,-6.173499E-05
325.1106,-6.16992E-05
325.2106,-6.167284E-05
325.3106,-6.163799E-05
325.4106,-6.162668E-05
325.5107,-6.163705E-05
325.6107,-6.161351E-05
325.7107,-6.155417E-05
325.8107,-6.155794E-05
325.9107,-6.158055E-05
326.0107,-6.15344E-05
326.1107,-6.152028E-05
326.2107,-6.151368E-05
326.3107,-6.147413E-05
326.4107,-6.147131E-05
326.5107,-6.147131E-05
326.6107,-6.140162E-05
326.7107,-6.140915E-05
326.8107,-6.137808E-05
326.9107,-6.138184E-05
327.0107,-6.137054E-05
327.1107,-6.134417E-05
327.2108,-6.131121E-05
327.3108,-6.130556E-05
327.4108,-6.130744E-05
327.5108,-6.127072E-05
327.6108,-6.12274E-05
327.7108,-6.123022E-05
327.8108,-6.120009E-05
327.9108,-6.120573E-05
328.0108,-6.12208E-05
328.1108,-6.114264E-05
328.2108,-6.113604E-05
328.3108,-6.114358E-05
328.4108,-6.109649E-05
328.5108,-6.108802E-05
328.6108,-6.107295E-05
328.7108,-6.106165E-05
328.8109,-6.103811E-05
328.9109,-6.103434E-05
329.0109,-6.102775E-05
329.1109,-6.099197E-05
329.2109,-6.102022E-05
329.3109,-6.099102E-05
329.4109,-6.092133E-05
329.5109,-6.094958E-05
329.6109,-6.098725E-05
329.7109,-6.09185E-05
329.8109,-6.089967E-05
329.9109,-6.085447E-05
330.0109,-6.086483E-05
330.1109,-6.089967E-05
330.2109,-6.086671E-05
330.3109,-6.078573E-05
330.4109,-6.075465E-05
330.511,-6.077066E-05
330.611,-6.074241E-05
330.711,-6.073581E-05
330.811,-6.072922E-05
330.911,-6.067272E-05
331.011,-6.0668E-05
331.111,-6.066895E-05
331.211,-6.064069E-05
331.311,-6.061433E-05
331.411,-6.061339E-05
331.511,-6.058514E-05
331.611,-6.057948E-05
331.711,-6.059267E-05
331.811,-6.053993E-05
331.911,-6.052392E-05
332.011,-6.051074E-05
332.1111,-6.054464E-05
332.2111,-6.055877E-05
332.3111,-6.051356E-05
332.4111,-6.048437E-05
332.5111,-6.046366E-05
332.6111,-6.049944E-05
332.7111,-6.045235E-05
332.8111,-6.042128E-05
332.9111,-6.041468E-05
333.0111,-6.035912E-05
333.1111,-6.036194E-05
333.2111,-6.036759E-05
333.3111,-6.030827E-05
333.4111,-6.036854E-05
333.5111,-6.030356E-05
333.6111,-6.028472E-05
333.7112,-6.025741E-05
333.8112,-6.023764E-05
333.9112,-6.02367E-05
334.0112,-6.022445E-05
334.1112,-6.023104E-05
334.2112,-6.019244E-05
334.3112,-6.019149E-05
334.4112,-6.01849E-05
334.5112,-6.014535E-05
334.6112,-6.013781E-05
334.7112,-6.014252E-05
334.8112,-6.013216E-05
334.9112,-6.008696E-05
335.0112,-6.007943E-05
335.1112,-6.00879E-05
335.2112,-6.005682E-05
335.3112,-6.003046E-05
335.4113,-6.001445E-05
335.5113,-6.002104E-05
335.6113,-6.002198E-05
335.7113,-5.999185E-05
335.8113,-5.996547E-05
335.9113,-5.995982E-05
336.0113,-5.99118E-05
336.1113,-5.994476E-05
336.2113,-5.993628E-05
336.3113,-5.988825E-05
336.4113,-5.986377E-05
336.5113,-5.986283E-05
336.6113,-5.986565E-05
336.7113,-5.984588E-05
336.8113,-5.982233E-05
336.9113,-5.978278E-05
337.0114,-5.977807E-05
337.1114,-5.978372E-05
337.2114,-5.977148E-05
337.3114,-5.975736E-05
337.4114,-5.973381E-05
337.5114,-5.97112E-05
337.6114,-5.969426E-05
337.7114,-5.967825E-05
337.8114,-5.967825E-05
337.9114,-5.967354E-05
338.0114,-5.962739E-05
338.1114,-5.962551E-05
338.2114,-5.958408E-05
338.3114,-5.960008E-05
338.4114,-5.95577E-05
338.5114,-5.955582E-05
338.6115,-5.953228E-05
338.7115,-5.953699E-05
338.8115,-5.949838E-05
338.9115,-5.94673E-05
339.0115,-5.945882E-05
339.1115,-5.944187E-05
339.2115,-5.947483E-05
339.3115,-5.941362E-05
339.4115,-5.936465E-05
339.5115,-5.938913E-05
339.6115,-5.939761E-05
339.7115,-5.934487E-05
339.8115,-5.934111E-05
339.9115,-5.933828E-05
340.0115,-5.928931E-05
340.1115,-5.929779E-05
340.2115,-5.928272E-05
340.3116,-5.924223E-05
340.4116,-5.923186E-05
340.5116,-5.924411E-05
340.6116,-5.920927E-05
340.7116,-5.924882E-05
340.8116,-5.918666E-05
340.9116,-5.914429E-05
341.0116,-5.913864E-05
341.1116,-5.914146E-05
341.2116,-5.910003E-05
341.3116,-5.908966E-05
341.4116,-5.907271E-05
341.5116,-5.906235E-05
341.6116,-5.903505E-05
341.7116,-5.903599E-05
341.8116,-5.901715E-05
341.9117,-5.89889E-05
342.0117,-5.897854E-05
342.1117,-5.89663E-05
342.2117,-5.895123E-05
342.3117,-5.891073E-05
342.4117,-5.887589E-05
342.5117,-5.892204E-05
342.6117,-5.890885E-05
342.7117,-5.884293E-05
342.8117,-5.878266E-05
342.9117,-5.883728E-05
343.0117,-5.882786E-05
343.1117,-5.882598E-05
343.2117,-5.878548E-05
343.3117,-5.874499E-05
343.4117,-5.874123E-05
343.5117,-5.877042E-05
343.6118,-5.872239E-05
343.7118,-5.872051E-05
343.8118,-5.869696E-05
343.9118,-5.868943E-05
344.0118,-5.865741E-05
344.1118,-5.866589E-05
344.2118,-5.863198E-05
344.3118,-5.857266E-05
344.4118,-5.857359E-05
344.5118,-5.856324E-05
344.6118,-5.853875E-05
344.7118,-5.85444E-05
344.8118,-5.850485E-05
344.9118,-5.847189E-05
345.0118,-5.847848E-05
345.1118,-5.848037E-05
345.2119,-5.843045E-05
345.3119,-5.843799E-05
345.4119,-5.841351E-05
345.5119,-5.83796E-05
345.6119,-5.841068E-05
345.7119,-5.838902E-05
345.8119,-5.835229E-05
345.9119,-5.83504E-05
346.0119,-5.831556E-05
346.1119,-5.833534E-05
346.2119,-5.834947E-05
346.3119,-5.828543E-05
346.4119,-5.824493E-05
346.5119,-5.827318E-05
346.6119,-5.824776E-05
346.7119,-5.821951E-05
346.812,-5.820444E-05
346.912,-5.820444E-05
347.012,-5.81696E-05
347.112,-5.814511E-05
347.212,-5.814982E-05
347.312,-5.811874E-05
347.412,-5.813475E-05
347.512,-5.811498E-05
347.612,-5.80952E-05
347.712,-5.806318E-05
347.812,-5.804717E-05
347.912,-5.802645E-05
348.012,-5.801609E-05
348.112,-5.798501E-05
348.212,-5.794546E-05
348.312,-5.797277E-05
348.412,-5.796806E-05
348.5121,-5.790497E-05
348.6121,-5.792663E-05
348.7121,-5.789838E-05
348.8121,-5.787483E-05
348.9121,-5.789273E-05
349.0121,-5.785506E-05
349.1121,-5.780985E-05
349.2121,-5.78042E-05
349.3121,-5.780797E-05
349.4121,-5.777218E-05
349.5121,-5.778443E-05
349.6121,-5.7759E-05
349.7121,-5.771003E-05
349.8121,-5.771191E-05
349.9121,-5.769496E-05
350.0121,-5.766859E-05
350.1122,-5.765824E-05
350.2122,-5.763657E-05
350.3122,-5.758948E-05
350.4122,-5.759231E-05
350.5122,-5.759891E-05
350.6122,-5.757254E-05
350.7122,-5.750944E-05
350.8122,-5.760079E-05
350.9122,-5.758948E-05
351.0122,-5.748024E-05
351.1122,-5.753393E-05
351.2122,-5.753958E-05
351.3122,-5.749155E-05
351.4122,-5.747177E-05
351.5122,-5.747177E-05
351.6122,-5.739267E-05
351.7122,-5.741903E-05
351.8123,-5.743222E-05
351.9123,-5.736629E-05
352.0123,-5.733428E-05
352.1123,-5.732015E-05
352.2123,-5.727683E-05
352.3123,-5.729567E-05
352.4123,-5.729096E-05
352.5123,-5.723352E-05
352.6123,-5.722127E-05
352.7123,-5.722692E-05
352.8123,-5.723163E-05
352.9123,-5.720903E-05
353.0123,-5.718548E-05
353.1123,-5.715817E-05
353.2123,-5.718078E-05
353.3123,-5.716571E-05
353.4124,-5.712804E-05
353.5124,-5.710449E-05
353.6124,-5.709791E-05
353.7124,-5.709884E-05
353.8124,-5.707436E-05
353.9124,-5.704894E-05
354.0124,-5.700467E-05
354.1124,-5.702728E-05
354.2124,-5.700279E-05
354.3124,-5.695853E-05
354.4124,-5.697454E-05
354.5124,-5.696606E-05
354.6124,-5.692651E-05
354.7124,-5.695006E-05
354.8124,-5.690956E-05
354.9124,-5.68766E-05
355.0125,-5.688978E-05
355.1125,-5.687189E-05
355.2125,-5.682763E-05
355.3125,-5.684552E-05
355.4125,-5.683987E-05
355.5125,-5.680785E-05
355.6125,-5.679561E-05
355.7125,-5.678148E-05
355.8125,-5.678242E-05
355.9125,-5.678148E-05
356.0125,-5.677489E-05
356.1125,-5.670709E-05
356.2125,-5.671839E-05
356.3125,-5.67278E-05
356.4125,-5.670897E-05
356.5125,-5.666E-05
356.6125,-5.667601E-05
356.7126,-5.666942E-05
356.8126,-5.666E-05
356.9126,-5.664117E-05
357.0126,-5.660914E-05
357.1126,-5.658654E-05
357.2126,-5.659596E-05
357.3126,-5.657619E-05
357.4126,-5.657901E-05
357.5126,-5.656582E-05
357.6126,-5.652251E-05
357.7126,-5.65112E-05
357.8126,-5.649143E-05
357.9126,-5.645753E-05
358.0126,-5.644246E-05
358.1126,-5.647918E-05
358.2126,-5.646882E-05
358.3127,-5.640761E-05
358.4127,-5.641515E-05
358.5127,-5.639255E-05
358.6127,-5.636053E-05
358.7127,-5.63869E-05
358.8127,-5.636806E-05
358.9127,-5.630779E-05
359.0127,-5.632663E-05
359.1127,-5.629461E-05
359.2127,-5.62786E-05
359.3127,-5.627672E-05
359.4127,-5.626071E-05
359.5127,-5.621833E-05
359.6127,-5.623998E-05
359.7127,-5.621268E-05
359.8127,-5.617689E-05
359.9128,-5.618254E-05
360.0128,-5.620043E-05
360.1128,-5.619667E-05
360.2128,-5.616183E-05
360.3128,-5.612509E-05
360.4128,-5.611756E-05
360.5128,-5.610343E-05
360.6128,-5.610437E-05
360.7128,-5.606105E-05
360.8128,-5.609496E-05
360.9128,-5.606388E-05
361.0128,-5.601774E-05
361.1128,-5.600738E-05
361.2128,-5.603657E-05
361.3128,-5.603375E-05
361.4128,-5.598572E-05
361.5128,-5.597442E-05
361.6129,-5.597724E-05
361.7129,-5.594428E-05
361.8129,-5.593769E-05
361.9129,-5.591697E-05
362.0129,-5.590473E-05
362.1129,-5.587553E-05
362.2129,-5.586141E-05
362.3129,-5.587742E-05
362.4129,-5.587177E-05
362.5129,-5.583316E-05
362.6129,-5.580302E-05
362.7129,-5.580585E-05
362.8129,-5.582186E-05
362.9129,-5.578325E-05
363.0129,-5.576159E-05
363.1129,-5.574841E-05
363.213,-5.572769E-05
363.313,-5.573334E-05
363.413,-5.573522E-05
363.513,-5.569284E-05
363.613,-5.572298E-05
363.713,-5.568813E-05
363.813,-5.564293E-05
363.913,-5.566835E-05
364.013,-5.563916E-05
364.113,-5.561468E-05
364.213,-5.557136E-05
364.313,-5.559678E-05
364.413,-5.554499E-05
364.513,-5.555346E-05
364.613,-5.554499E-05
364.713,-5.552804E-05
364.813,-5.554876E-05
364.9131,-5.550732E-05
365.0131,-5.548283E-05
365.1131,-5.545553E-05
365.2131,-5.547719E-05
365.3131,-5.543951E-05
365.4131,-5.542727E-05
365.5131,-5.541315E-05
365.6131,-5.540279E-05
365.7131,-5.539619E-05
365.8131,-5.538772E-05
365.9131,-5.533687E-05
366.0131,-5.533969E-05
366.1131,-5.534628E-05
366.2131,-5.530202E-05
366.3131,-5.52766E-05
366.4131,-5.529261E-05
366.5132,-5.527377E-05
366.6132,-5.525494E-05
366.7132,-5.530579E-05
366.8132,-5.525964E-05
366.9132,-5.522951E-05
367.0132,-5.523799E-05
367.1132,-5.52022E-05
367.2132,-5.51683E-05
367.3132,-5.516735E-05
367.4132,-5.512968E-05
367.5132,-5.508919E-05
367.6132,-5.514852E-05
367.7132,-5.515794E-05
367.8132,-5.508919E-05
367.9132,-5.50939E-05
368.0132,-5.509861E-05
368.1133,-5.502892E-05
368.2133,-5.504681E-05
368.3133,-5.502704E-05
368.4133,-5.500255E-05
368.5133,-5.499313E-05
368.6133,-5.49969E-05
368.7133,-5.494699E-05
368.8133,-5.495547E-05
368.9133,-5.496582E-05
369.0133,-5.49225E-05
369.1133,-5.490744E-05
369.2133,-5.492627E-05
369.3133,-5.488295E-05
369.4133,-5.488107E-05
369.5133,-5.487353E-05
369.6133,-5.485282E-05
369.7133,-5.486035E-05
369.8134,-5.482739E-05
369.9134,-5.480008E-05
370.0134,-5.477748E-05
370.1134,-5.479349E-05
370.2134,-5.476618E-05
370.3134,-5.477371E-05
370.4134,-5.474923E-05
370.5134,-5.46946E-05
370.6134,-5.47464E-05
370.7134,-5.472192E-05
370.8134,-5.465034E-05
370.9134,-5.472568E-05
371.0134,-5.473227E-05
371.1134,-5.469178E-05
371.2134,-5.462868E-05
371.3134,-5.461644E-05
371.4135,-5.461927E-05
371.5135,-5.460985E-05
371.6135,-5.459761E-05
371.7135,-5.457783E-05
371.8135,-5.455334E-05
371.9135,-5.454958E-05
372.0135,-5.45185E-05
372.1135,-5.452227E-05
372.2135,-5.450249E-05
372.3135,-5.450814E-05
372.4135,-5.450532E-05
372.5135,-5.449119E-05
372.6135,-5.448554E-05
372.7135,-5.448554E-05
372.8135,-5.444976E-05
372.9135,-5.440173E-05
373.0135,-5.441303E-05
373.1136,-5.442245E-05
373.2136,-5.439137E-05
373.3136,-5.435464E-05
373.4136,-5.440926E-05
373.5136,-5.44281E-05
373.6136,-5.433769E-05
373.7136,-5.43537E-05
373.8136,-5.437347E-05
373.9136,-5.430567E-05
374.0136,-5.431791E-05
374.1136,-5.430096E-05
374.2136,-5.426517E-05
374.3136,-5.425388E-05
374.4136,-5.426141E-05
374.5136,-5.427083E-05
374.6136,-5.423975E-05
374.7137,-5.422374E-05
374.8137,-5.41823E-05
374.9137,-5.420302E-05
375.0137,-5.42115E-05
375.1137,-5.414557E-05
375.2137,-5.415217E-05
375.3137,-5.413427E-05
375.4137,-5.411921E-05
375.5137,-5.413145E-05
375.6137,-5.408436E-05
375.7137,-5.407871E-05
375.8137,-5.407212E-05
375.9137,-5.406459E-05
376.0137,-5.403727E-05
376.1137,-5.403822E-05
376.2137,-5.40288E-05
376.3138,-5.400243E-05
376.4138,-5.399207E-05
376.5138,-5.397889E-05
376.6138,-5.396006E-05
376.7138,-5.40175E-05
376.8138,-5.398171E-05
376.9138,-5.39158E-05
377.0138,-5.392145E-05
377.1138,-5.390826E-05
377.2138,-5.391956E-05
377.3138,-5.392333E-05
377.4138,-5.389884E-05
377.5138,-5.386776E-05
377.6138,-5.388001E-05
377.7138,-5.384234E-05
377.8138,-5.378677E-05
377.9138,-5.380184E-05
378.0139,-5.38122E-05
378.1139,-5.376041E-05
378.2139,-5.375852E-05
378.3139,-5.378489E-05
378.4139,-5.375946E-05
378.5139,-5.375758E-05
378.6139,-5.375381E-05
378.7139,-5.368978E-05
378.8139,-5.367471E-05
378.9139,-5.370673E-05
379.0139,-5.366153E-05
379.1139,-5.367471E-05
379.2139,-5.367942E-05
379.3139,-5.362574E-05
379.4139,-5.363516E-05
379.5139,-5.361067E-05
379.614,-5.355699E-05
379.714,-5.356264E-05
379.814,-5.358996E-05
379.914,-5.362103E-05
380.014,-5.355982E-05
380.114,-5.356076E-05
380.214,-5.355511E-05
380.314,-5.349484E-05
380.414,-5.352121E-05
380.514,-5.354005E-05
380.614,-5.349201E-05
380.714,-5.346847E-05
380.814,-5.344681E-05
380.914,-5.344775E-05
381.014,-5.345246E-05
381.114,-5.342704E-05
381.2141,-5.338748E-05
381.3141,-5.338937E-05
381.4141,-5.341103E-05
381.5141,-5.335452E-05
381.6141,-5.33677E-05
381.7141,-5.33451E-05
381.8141,-5.336676E-05
381.9141,-5.338748E-05
382.0141,-5.330649E-05
382.1141,-5.327542E-05
382.2141,-5.332156E-05
382.3141,-5.32886E-05
382.4141,-5.324905E-05
382.5141,-5.326694E-05
382.6141,-5.326035E-05
382.7141,-5.323963E-05
382.8141,-5.325658E-05
382.9142,-5.324057E-05
383.0142,-5.32208E-05
383.1142,-5.322833E-05
383.2142,-5.322645E-05
383.3142,-5.316618E-05
383.4142,-5.315581E-05
383.5142,-5.316994E-05
383.6142,-5.313416E-05
383.7142,-5.313133E-05
383.8142,-5.315958E-05
383.9142,-5.307765E-05
384.0142,-5.312756E-05
384.1142,-5.309272E-05
384.2142,-5.304093E-05
384.3142,-5.305693E-05
384.4142,-5.308236E-05
384.5143,-5.304375E-05
384.6143,-5.299384E-05
384.7143,-5.304281E-05
384.8143,-5.300137E-05
384.9143,-5.298536E-05
385.0143,-5.299384E-05
385.1143,-5.298065E-05
385.2143,-5.296935E-05
385.3143,-5.29524E-05
385.4143,-5.293922E-05
385.5143,-5.29524E-05
385.6143,-5.292792E-05
385.7143,-5.289873E-05
385.8143,-5.287141E-05
385.9143,-5.29185E-05
386.0143,-5.289778E-05
386.1143,-5.284693E-05
386.2144,-5.286388E-05
386.3144,-5.286011E-05
386.4144,-5.280738E-05
386.5144,-5.280926E-05
386.6144,-5.280172E-05
386.7144,-5.274805E-05
386.8144,-5.2765E-05
386.9144,-5.275935E-05
387.0144,-5.272921E-05
387.1144,-5.273203E-05
387.2144,-5.273392E-05
387.3144,-5.268401E-05
387.4144,-5.267271E-05
387.5144,-5.266989E-05
387.6144,-5.263692E-05
387.7144,-5.265199E-05
387.8145,-5.264446E-05
387.9145,-5.261809E-05
388.0145,-5.26115E-05
388.1145,-5.262185E-05
388.2145,-5.259454E-05
388.3145,-5.253333E-05
388.4145,-5.255499E-05
388.5145,-5.255122E-05
388.6145,-5.255405E-05
388.7145,-5.253616E-05
388.8145,-5.248624E-05
388.9145,-5.249001E-05
389.0145,-5.250602E-05
389.1145,-5.248719E-05
389.2145,-5.248813E-05
389.3145,-5.245234E-05
389.4146,-5.24175E-05
389.5146,-5.24175E-05
389.6146,-5.242315E-05
389.7146,-5.239489E-05
389.8146,-5.241844E-05
389.9146,-5.238924E-05
390.0146,-5.234781E-05
390.1146,-5.235064E-05
390.2146,-5.236947E-05
390.3146,-5.236758E-05
390.4146,-5.237136E-05
390.5146,-5.232238E-05
390.6146,-5.228095E-05
390.7146,-5.228471E-05
390.8146,-5.230543E-05
390.9146,-5.227247E-05
391.0146,-5.224705E-05
391.1147,-5.226965E-05
391.2147,-5.220278E-05
391.3147,-5.223857E-05
391.4147,-5.222068E-05
391.5147,-5.220655E-05
391.6147,-5.221314E-05
391.7147,-5.218207E-05
391.8147,-5.216135E-05
391.9147,-5.21378E-05
392.0147,-5.216041E-05
392.1147,-5.213874E-05
392.2147,-5.210579E-05
392.3147,-5.214439E-05
392.4147,-5.211708E-05
392.5147,-5.21152E-05
392.6147,-5.208695E-05
392.7148,-5.207E-05
392.8148,-5.209354E-05
392.9148,-5.20587E-05
393.0148,-5.202668E-05
393.1148,-5.199937E-05
393.2148,-5.203327E-05
393.3148,-5.20474E-05
393.4148,-5.200502E-05
393.5148,-5.200125E-05
393.6148,-5.195134E-05
393.7148,-5.195699E-05
393.8148,-5.195323E-05
393.9148,-5.192686E-05
394.0148,-5.189201E-05
394.1148,-5.191932E-05
394.2148,-5.193439E-05
394.3148,-5.191179E-05
394.4149,-5.188636E-05
394.5149,-5.187129E-05
394.6149,-5.183457E-05
394.7149,-5.18647E-05
394.8149,-5.183269E-05
394.9149,-5.180537E-05
395.0149,-5.179313E-05
395.1149,-5.182327E-05
395.2149,-5.17743E-05
395.3149,-5.179501E-05
395.4149,-5.176959E-05
395.5149,-5.173569E-05
395.6149,-5.172533E-05
395.7149,-5.173286E-05
395.8149,-5.172815E-05
395.9149,-5.169425E-05
396.015,-5.167824E-05
396.115,-5.169143E-05
396.215,-5.17225E-05
396.315,-5.171967E-05
396.415,-5.16368E-05
396.515,-5.162362E-05
396.615,-5.16321E-05
396.715,-5.161232E-05
396.815,-5.161797E-05
396.915,-5.158972E-05
397.015,-5.15351E-05
397.115,-5.1569E-05
397.215,-5.154357E-05
397.315,-5.152473E-05
397.415,-5.150213E-05
397.515,-5.152473E-05
397.6151,-5.149931E-05
397.7151,-5.150685E-05
397.8151,-5.150213E-05
397.9151,-5.146635E-05
398.0151,-5.143433E-05
398.1151,-5.143716E-05
398.2151,-5.142115E-05
398.3151,-5.140608E-05
398.4151,-5.140702E-05
398.5151,-5.141644E-05
398.6151,-5.139384E-05
398.7151,-5.133639E-05
398.8151,-5.13411E-05
398.9151,-5.135993E-05
399.0151,-5.134392E-05
399.1151,-5.128366E-05
399.2151,-5.130061E-05
399.3152,-5.131567E-05
399.4152,-5.12667E-05
399.5152,-5.126388E-05
399.6152,-5.124316E-05
399.7152,-5.126011E-05
399.8152,-5.124316E-05
399.9152,-5.121962E-05
400.0152,-5.119984E-05
400.1152,-5.120926E-05
400.2152,-5.123469E-05
400.3152,-5.118383E-05
400.4152,-5.113769E-05
400.5152,-5.124316E-05
400.6152,-5.125823E-05
400.7152,-5.114616E-05
400.8152,-5.115181E-05
400.9153,-5.117065E-05
401.0153,-5.110755E-05
401.1153,-5.110567E-05
401.2153,-5.108024E-05
401.3153,-5.103316E-05
401.4153,-5.103881E-05
401.5153,-5.10501E-05
401.6153,-5.10162E-05
401.7153,-5.098324E-05
401.8153,-5.098607E-05
401.9153,-5.097477E-05
402.0153,-5.099737E-05
402.1153,-5.097288E-05
402.2153,-5.094087E-05
402.3153,-5.094087E-05
402.4153,-5.095216E-05
402.5154,-5.093993E-05
402.6154,-5.095122E-05
402.7154,-5.089472E-05
402.8154,-5.088059E-05
402.9154,-5.090414E-05
403.0154,-5.092109E-05
403.1154,-5.083727E-05
403.2154,-5.085423E-05
403.3154,-5.085611E-05
403.4154,-5.084293E-05
403.5154,-5.082409E-05
403.6154,-5.081279E-05
403.7154,-5.079678E-05
403.8154,-5.081185E-05
403.9154,-5.08175E-05
404.0154,-5.076853E-05
404.1154,-5.076005E-05
404.2155,-5.07431E-05
404.3155,-5.071862E-05
404.4155,-5.075346E-05
404.5155,-5.074404E-05
404.6155,-5.070731E-05
404.7155,-5.073086E-05
404.8155,-5.071202E-05
404.9155,-5.066965E-05
405.0155,-5.069037E-05
405.1155,-5.069413E-05
405.2155,-5.063762E-05
405.3155,-5.063669E-05
405.4155,-5.06687E-05
405.5155,-5.06235E-05
405.6155,-5.061408E-05
405.7155,-5.061597E-05
405.8156,-5.06235E-05
405.9156,-5.061031E-05
406.0156,-5.061502E-05
406.1156,-5.056417E-05
406.2156,-5.056135E-05
406.3156,-5.056794E-05
406.4156,-5.052839E-05
406.5156,-5.053592E-05
406.6156,-5.054063E-05
406.7156,-5.048318E-05
406.8156,-5.046717E-05
406.9156,-5.046529E-05
407.0156,-5.049072E-05
407.1156,-5.047753E-05
407.2156,-5.047E-05
407.3156,-5.043421E-05
407.4156,-5.041255E-05
407.5157,-5.042385E-05
407.6157,-5.041255E-05
407.7157,-5.042009E-05
407.8157,-5.038995E-05
407.9157,-5.034474E-05
408.0157,-5.037017E-05
408.1157,-5.035887E-05
408.2157,-5.034474E-05
408.3157,-5.035322E-05
408.4157,-5.032498E-05
408.5157,-5.029107E-05
408.6157,-5.032121E-05
408.7157,-5.032309E-05
408.8157,-5.028354E-05
408.9157,-5.026659E-05
409.0157,-5.027035E-05
409.1158,-5.024398E-05
409.2158,-5.024869E-05
409.3158,-5.025717E-05
409.4158,-5.022797E-05
409.5158,-5.020631E-05
409.6158,-5.022421E-05
409.7158,-5.019125E-05
409.8158,-5.019031E-05
409.9158,-5.019596E-05
410.0158,-5.017241E-05
410.1158,-5.013945E-05
410.2158,-5.016111E-05
410.3158,-5.014887E-05
410.4158,-5.013757E-05
410.5158,-5.011779E-05
410.6158,-5.012438E-05
410.7159,-5.011309E-05
410.8159,-5.011402E-05
410.9159,-5.010084E-05
411.0159,-5.009424E-05
411.1159,-5.012721E-05
411.2159,-5.008483E-05
411.3159,-5.003868E-05
411.4159,-5.007918E-05
411.5159,-5.006223E-05
411.6159,-5.000102E-05
411.7159,-5.00255E-05
411.8159,-5.001702E-05
411.9159,-5.003492E-05
412.0159,-4.999631E-05
412.1159,-4.997276E-05
412.2159,-4.996335E-05
412.3159,-4.995393E-05
412.416,-4.994169E-05
412.516,-4.988707E-05
412.616,-4.989648E-05
412.716,-4.990967E-05
412.816,-4.987671E-05
412.916,-4.984563E-05
413.016,-4.982586E-05
413.116,-4.982021E-05
413.216,-4.984469E-05
413.316,-4.983151E-05
413.416,-4.981267E-05
413.516,-4.979666E-05
413.616,-4.982021E-05
413.716,-4.977123E-05
413.816,-4.979195E-05
413.916,-4.979101E-05
414.0161,-4.973451E-05
414.1161,-4.979007E-05
414.2161,-4.976464E-05
414.3161,-4.973168E-05
414.4161,-4.972885E-05
414.5161,-4.970814E-05
414.6161,-4.97232E-05
414.7161,-4.970532E-05
414.8161,-4.969684E-05
414.9161,-4.969872E-05
415.0161,-4.968648E-05
415.1161,-4.96667E-05
415.2161,-4.965352E-05
415.3161,-4.967329E-05
415.4161,-4.964598E-05
415.5161,-4.962338E-05
415.6161,-4.964881E-05
415.7162,-4.965728E-05
415.8162,-4.962621E-05
415.9162,-4.961679E-05
416.0162,-4.959607E-05
416.1162,-4.958665E-05
416.2162,-4.958289E-05
416.3162,-4.958759E-05
416.4162,-4.956499E-05
416.5162,-4.952544E-05
416.6162,-4.953674E-05
416.7162,-4.956123E-05
416.8162,-4.951885E-05
416.9162,-4.952262E-05
417.0162,-4.949719E-05
417.1162,-4.950001E-05
417.2162,-4.950849E-05
417.3163,-4.949436E-05
417.4163,-4.944351E-05
417.5163,-4.946988E-05
417.6163,-4.947553E-05
417.7163,-4.945764E-05
417.8163,-4.942279E-05
417.9163,-4.943692E-05
418.0163,-4.938418E-05
418.1163,-4.943975E-05
418.2163,-4.942185E-05
418.3163,-4.936723E-05
418.4163,-4.938513E-05
418.5163,-4.938983E-05
418.6163,-4.9371E-05
418.7163,-4.933427E-05
418.8163,-4.933804E-05
418.9164,-4.933615E-05
419.0164,-4.935311E-05
419.1164,-4.93192E-05
419.2164,-4.927494E-05
419.3164,-4.9274E-05
419.4164,-4.933521E-05
419.5164,-4.928248E-05
419.6164,-4.924763E-05
419.7164,-4.9274E-05
419.8164,-4.922974E-05
419.9164,-4.92514E-05
420.0164,-4.925423E-05
420.1164,-4.921844E-05
420.2164,-4.920148E-05
420.3164,-4.920431E-05
420.4164,-4.919113E-05
420.5164,-4.917229E-05
420.6165,-4.915817E-05
420.7165,-4.913839E-05
420.8165,-4.918265E-05
420.9165,-4.918265E-05
421.0165,-4.913462E-05
421.1165,-4.913933E-05
421.2165,-4.912332E-05
421.3165,-4.910072E-05
421.4165,-4.910731E-05
421.5165,-4.909225E-05
421.6165,-4.906023E-05
421.7165,-4.90574E-05
421.8165,-4.907247E-05
421.9165,-4.904987E-05
422.0165,-4.901691E-05
422.1165,-4.900749E-05
422.2166,-4.901408E-05
422.3166,-4.904233E-05
422.4166,-4.899148E-05
422.5166,-4.896323E-05
422.6166,-4.897924E-05
422.7166,-4.901597E-05
422.8166,-4.897264E-05
422.9166,-4.896982E-05
423.0166,-4.896135E-05
423.1166,-4.894345E-05
423.2166,-4.896982E-05
423.3166,-4.89378E-05
423.4166,-4.891144E-05
423.5166,-4.891237E-05
423.6166,-4.890861E-05
423.7166,-4.888977E-05
423.8167,-4.883704E-05
423.9167,-4.889637E-05
424.0167,-4.886435E-05
424.1167,-4.883233E-05
424.2167,-4.883892E-05
424.3167,-4.883986E-05
424.4167,-4.879278E-05
424.5167,-4.880031E-05
424.6167,-4.881632E-05
424.7167,-4.878618E-05
424.8167,-4.877488E-05
424.9167,-4.878242E-05
425.0167,-4.877677E-05
425.1167,-4.875134E-05
425.2167,-4.872968E-05
425.3167,-4.875417E-05
425.4167,-4.878148E-05
425.5168,-4.875605E-05
425.6168,-4.869954E-05
425.7168,-4.86986E-05
425.8168,-4.870236E-05
425.9168,-4.869295E-05
426.0168,-4.86986E-05
426.1168,-4.867788E-05
426.2168,-4.86421E-05
426.3168,-4.865057E-05
426.4168,-4.864398E-05
426.5168,-4.863174E-05
426.6168,-4.862609E-05
426.7168,-4.86082E-05
426.8168,-4.858089E-05
426.9168,-4.859218E-05
427.0168,-4.859972E-05
427.1169,-4.856676E-05
427.2169,-4.855169E-05
427.3169,-4.856299E-05
427.4169,-4.853568E-05
427.5169,-4.855452E-05
427.6169,-4.851402E-05
427.7169,-4.850084E-05
427.8169,-4.851214E-05
427.9169,-4.850555E-05
428.0169,-4.84886E-05
428.1169,-4.848389E-05
428.2169,-4.848577E-05
428.3169,-4.84594E-05
428.4169,-4.848389E-05
428.5169,-4.844151E-05
428.6169,-4.843115E-05
428.7169,-4.843774E-05
428.817,-4.843115E-05
428.917,-4.839725E-05
429.017,-4.838312E-05
429.117,-4.840195E-05
429.217,-4.837935E-05
429.317,-4.838972E-05
429.417,-4.83624E-05
429.517,-4.833038E-05
429.617,-4.833227E-05
429.717,-4.834357E-05
429.817,-4.831061E-05
429.917,-4.831814E-05
430.017,-4.831061E-05
430.117,-4.825976E-05
430.217,-4.83059E-05
430.317,-4.830496E-05
430.4171,-4.825787E-05
430.5171,-4.825128E-05
430.6171,-4.82541E-05
430.7171,-4.824186E-05
430.8171,-4.82428E-05
430.9171,-4.822585E-05
431.0171,-4.820796E-05
431.1171,-4.820137E-05
431.2171,-4.819666E-05
431.3171,-4.8175E-05
431.4171,-4.819289E-05
431.5171,-4.817876E-05
431.6171,-4.815993E-05
431.7171,-4.815616E-05
431.8171,-4.815522E-05
431.9171,-4.814675E-05
432.0172,-4.814015E-05
432.1172,-4.810625E-05
432.2172,-4.811284E-05
432.3172,-4.80893E-05
432.4172,-4.810814E-05
432.5172,-4.808742E-05
432.6172,-4.811379E-05
432.7172,-4.807706E-05
432.8172,-4.804033E-05
432.9172,-4.809684E-05
433.0172,-4.80667E-05
433.1172,-4.803845E-05
433.2172,-4.806952E-05
433.3172,-4.801585E-05
433.4172,-4.804127E-05
433.5172,-4.80036E-05
433.6172,-4.80149E-05
433.7173,-4.800549E-05
433.8173,-4.797912E-05
433.9173,-4.798477E-05
434.0173,-4.798289E-05
434.1173,-4.79358E-05
434.2173,-4.797252E-05
434.3173,-4.794899E-05
434.4173,-4.791038E-05
434.5173,-4.79245E-05
434.6173,-4.793486E-05
434.7173,-4.791791E-05
434.8173,-4.791791E-05
434.9173,-4.78727E-05
435.0173,-4.785669E-05
435.1173,-4.785952E-05
435.2173,-4.785858E-05
435.3174,-4.781432E-05
435.4174,-4.78388E-05
435.5174,-4.782844E-05
435.6174,-4.778983E-05
435.7174,-4.781432E-05
435.8174,-4.780396E-05
435.9174,-4.778606E-05
436.0174,-4.780113E-05
436.1174,-4.77823E-05
436.2174,-4.773709E-05
436.3174,-4.774933E-05
436.4174,-4.778324E-05
436.5174,-4.773333E-05
436.6174,-4.772391E-05
436.7174,-4.769566E-05
436.8174,-4.770319E-05
436.9174,-4.771261E-05
437.0175,-4.771449E-05
437.1175,-4.766458E-05
437.2175,-4.768059E-05
437.3175,-4.767023E-05
437.4175,-4.765987E-05
437.5175,-4.76627E-05
437.6175,-4.765422E-05
437.7175,-4.761467E-05
437.8175,-4.763444E-05
437.9175,-4.761938E-05
438.0175,-4.759772E-05
438.1175,-4.762597E-05
438.2175,-4.758548E-05
438.3175,-4.754592E-05
438.4175,-4.756664E-05
438.5175,-4.757135E-05
438.6176,-4.753462E-05
438.7176,-4.755628E-05
438.8176,-4.752709E-05
438.9176,-4.751861E-05
439.0176,-4.751861E-05
439.1176,-4.753086E-05
439.2176,-4.749601E-05
439.3176,-4.750919E-05
439.4176,-4.749224E-05
439.5176,-4.748E-05
439.6176,-4.748377E-05
439.7176,-4.746493E-05
439.8176,-4.746493E-05
439.9176,-4.745457E-05
440.0176,-4.745081E-05
440.1176,-4.741879E-05
440.2177,-4.742538E-05
440.3177,-4.743103E-05
440.4177,-4.742915E-05
440.5177,-4.74122E-05
440.6177,-4.738866E-05
440.7177,-4.736888E-05
440.8177,-4.737453E-05
440.9177,-4.739054E-05
441.0177,-4.736888E-05
441.1177,-4.735287E-05
441.2177,-4.734439E-05
441.3177,-4.732085E-05
441.4177,-4.734439E-05
441.5177,-4.734345E-05
441.6177,-4.72973E-05
441.7177,-4.726246E-05
441.8177,-4.729542E-05
441.9178,-4.731143E-05
442.0178,-4.731708E-05
442.1178,-4.72973E-05
442.2178,-4.729448E-05
442.3178,-4.724456E-05
442.4178,-4.727471E-05
442.5178,-4.72408E-05
442.6178,-4.723233E-05
442.7178,-4.724174E-05
442.8178,-4.720973E-05
442.9178,-4.720878E-05
443.0178,-4.718618E-05
443.1178,-4.720219E-05
443.2178,-4.721914E-05
443.3178,-4.719842E-05
443.4178,-4.718242E-05
443.5179,-4.71617E-05
443.6179,-4.717205E-05
443.7179,-4.717111E-05
443.8179,-4.712967E-05
443.9179,-4.711649E-05
444.0179,-4.712214E-05
444.1179,-4.711273E-05
444.2179,-4.710237E-05
444.3179,-4.711555E-05
444.4179,-4.704963E-05
444.5179,-4.709295E-05
444.6179,-4.70873E-05
444.7179,-4.707129E-05
444.8179,-4.705905E-05
444.9179,-4.705905E-05
445.0179,-4.704398E-05
445.118,-4.704398E-05
445.218,-4.704492E-05
445.318,-4.700631E-05
445.418,-4.699784E-05
445.518,-4.699972E-05
445.618,-4.698747E-05
445.718,-4.699218E-05
445.818,-4.699312E-05
445.918,-4.694415E-05
446.018,-4.696205E-05
446.118,-4.696017E-05
446.218,-4.694792E-05
446.318,-4.693191E-05
446.418,-4.694792E-05
446.518,-4.694133E-05
446.618,-4.68999E-05
446.718,-4.69338E-05
446.8181,-4.691402E-05
446.9181,-4.68707E-05
447.0181,-4.691685E-05
447.1181,-4.690554E-05
447.2181,-4.685752E-05
447.3181,-4.685375E-05
447.4181,-4.687823E-05
447.5181,-4.686599E-05
447.6181,-4.68886E-05
447.7181,-4.683774E-05
447.8181,-4.682738E-05
447.9181,-4.684057E-05
448.0181,-4.682267E-05
448.1181,-4.679442E-05
448.2181,-4.680007E-05
448.3181,-4.68029E-05
448.4182,-4.679253E-05
448.5182,-4.679065E-05
448.6182,-4.676334E-05
448.7182,-4.675958E-05
448.8182,-4.678312E-05
448.9182,-4.674545E-05
449.0182,-4.669742E-05
449.1182,-4.673603E-05
449.2182,-4.673697E-05
449.3182,-4.671249E-05
449.4182,-4.671249E-05
449.5182,-4.669648E-05
449.6182,-4.669083E-05
449.7182,-4.668989E-05
449.8182,-4.668141E-05
449.9182,-4.665316E-05
450.0182,-4.662773E-05
450.1183,-4.665222E-05
450.2183,-4.66381E-05
450.3183,-4.664375E-05
450.4183,-4.663903E-05
450.5183,-4.660042E-05
450.6183,-4.65976E-05
450.7183,-4.661926E-05
450.8183,-4.660137E-05
450.9183,-4.654957E-05
451.0183,-4.661926E-05
451.1183,-4.66202E-05
451.2183,-4.657876E-05
451.3183,-4.657406E-05
451.4183,-4.658441E-05
451.5183,-4.655334E-05
451.6183,-4.65571E-05
451.7184,-4.654015E-05
451.8184,-4.654298E-05
451.9184,-4.652038E-05
452.0184,-4.649212E-05
452.1184,-4.650531E-05
452.2184,-4.651096E-05
452.3184,-4.651472E-05
452.4184,-4.648083E-05
452.5184,-4.647046E-05
452.6184,-4.649401E-05
452.7184,-4.646199E-05
452.8184,-4.647141E-05
452.9184,-4.643186E-05
453.0184,-4.644315E-05
453.1184,-4.646011E-05
453.2184,-4.651661E-05
453.3185,-4.642338E-05
453.4185,-4.640643E-05
453.5185,-4.642809E-05
453.6185,-4.640455E-05
453.7185,-4.641302E-05
453.8185,-4.640266E-05
453.9185,-4.635745E-05
454.0185,-4.635652E-05
454.1185,-4.636688E-05
454.2185,-4.637158E-05
454.3185,-4.634522E-05
454.4185,-4.632167E-05
454.5185,-4.631884E-05
454.6185,-4.631037E-05
454.7185,-4.633014E-05
454.8185,-4.629342E-05
454.9185,-4.629813E-05
455.0186,-4.629059E-05
455.1186,-4.628023E-05
455.2186,-4.628306E-05
455.3186,-4.629154E-05
455.4186,-4.628588E-05
455.5186,-4.625481E-05
455.6186,-4.625198E-05
455.7186,-4.622844E-05
455.8186,-4.626988E-05
455.9186,-4.624539E-05
456.0186,-4.622373E-05
456.1186,-4.622844E-05
456.2186,-4.621431E-05
456.3186,-4.620113E-05
456.4186,-4.620678E-05
456.5186,-4.622938E-05
456.6187,-4.617194E-05
456.7187,-4.618136E-05
456.8187,-4.619925E-05
456.9187,-4.616346E-05
457.0187,-4.619925E-05
457.1187,-4.617382E-05
457.2187,-4.612297E-05
457.3187,-4.614368E-05
457.4187,-4.616911E-05
457.5187,-4.613709E-05
457.6187,-4.613615E-05
457.7187,-4.612768E-05
457.8187,-4.61192E-05
457.9187,-4.614839E-05
458.0187,-4.613238E-05
458.1187,-4.609848E-05
458.2188,-4.60787E-05
458.3188,-4.610225E-05
458.4188,-4.609095E-05
458.5188,-4.609942E-05
458.6188,-4.609566E-05
458.7188,-4.605704E-05
458.8188,-4.608342E-05
458.9188,-4.604763E-05
459.0188,-4.603256E-05
459.1188,-4.607023E-05
459.2188,-4.604763E-05
459.3188,-4.599772E-05
459.4188,-4.59996E-05
459.5188,-4.604763E-05
459.6188,-4.600901E-05
459.7188,-4.597323E-05
459.8188,-4.600996E-05
459.9189,-4.599678E-05
460.0189,-4.594875E-05
460.1189,-4.597982E-05
460.2189,-4.597512E-05
460.3189,-4.597982E-05
460.4189,-4.596005E-05
460.5189,-4.591955E-05
460.6189,-4.591484E-05
460.7189,-4.593274E-05
460.8189,-4.591767E-05
460.9189,-4.591955E-05
461.0189,-4.588376E-05
461.1189,-4.58913E-05
461.2189,-4.587529E-05
461.3189,-4.58913E-05
461.4189,-4.587341E-05
461.519,-4.586681E-05
461.619,-4.586493E-05
461.719,-4.588188E-05
461.819,-4.587811E-05
461.919,-4.584892E-05
462.019,-4.583292E-05
462.119,-4.582915E-05
462.219,-4.585457E-05
462.319,-4.579901E-05
462.419,-4.57943E-05
462.519,-4.583292E-05
462.619,-4.580089E-05
462.719,-4.57943E-05
462.819,-4.577923E-05
462.919,-4.579524E-05
463.019,-4.577923E-05
463.119,-4.58056E-05
463.2191,-4.57604E-05
463.3191,-4.576228E-05
463.4191,-4.577547E-05
463.5191,-4.574439E-05
463.6191,-4.571802E-05
463.7191,-4.573497E-05
463.8191,-4.571708E-05
463.9191,-4.571708E-05
464.0191,-4.572461E-05
464.1191,-4.568789E-05
464.2191,-4.569354E-05
464.3191,-4.56973E-05
464.4191,-4.569919E-05
464.5191,-4.564551E-05
464.6191,-4.56973E-05
464.7191,-4.566717E-05
464.8192,-4.564834E-05
464.9192,-4.563703E-05
465.0192,-4.563327E-05
465.1192,-4.562479E-05
465.2192,-4.563986E-05
465.3192,-4.562291E-05
465.4192,-4.561255E-05
465.5192,-4.558712E-05
465.6192,-4.563421E-05
465.7192,-4.562008E-05
465.8192,-4.557582E-05
465.9192,-4.557205E-05
466.0192,-4.562291E-05
466.1192,-4.557394E-05
466.2192,-4.557488E-05
466.3192,-4.555416E-05
466.4193,-4.552685E-05
466.5193,-4.555981E-05
466.6193,-4.557676E-05
466.7193,-4.555228E-05
466.8193,-4.551932E-05
466.9193,-4.553156E-05
467.0193,-4.550425E-05
467.1193,-4.551367E-05
467.2193,-4.551743E-05
467.3193,-4.549766E-05
467.4193,-4.549483E-05
467.5193,-4.546658E-05
467.6193,-4.546564E-05
467.7193,-4.546941E-05
467.8193,-4.549389E-05
467.9193,-4.545904E-05
468.0193,-4.544398E-05
468.1194,-4.54468E-05
468.2194,-4.544303E-05
468.3194,-4.545057E-05
468.4194,-4.543927E-05
468.5194,-4.540066E-05
468.6194,-4.541949E-05
468.7194,-4.539595E-05
468.8194,-4.537994E-05
468.9194,-4.539595E-05
469.0194,-4.54129E-05
469.1194,-4.536299E-05
469.2194,-4.538747E-05
469.3194,-4.539312E-05
469.4194,-4.536393E-05
469.5194,-4.541102E-05
469.6194,-4.537806E-05
469.7195,-4.532908E-05
469.8195,-4.536864E-05
469.9195,-4.541102E-05
470.0195,-4.535075E-05
470.1195,-4.533945E-05
470.2195,-4.532532E-05
470.3195,-4.534321E-05
470.4195,-4.534792E-05
470.5195,-4.533851E-05
470.6195,-4.528106E-05
470.7195,-4.528012E-05
470.8195,-4.530742E-05
470.9195,-4.525092E-05
471.0195,-4.525469E-05
471.1195,-4.524057E-05
471.2195,-4.523303E-05
471.3195,-4.524716E-05
471.4196,-4.52481E-05
471.5196,-4.521702E-05
471.6196,-4.520101E-05
471.7196,-4.52302E-05
471.8196,-4.521608E-05
471.9196,-4.522456E-05
472.0196,-4.519253E-05
472.1196,-4.518312E-05
472.2196,-4.518029E-05
472.3196,-4.519725E-05
472.4196,-4.518218E-05
472.5196,-4.5185E-05
472.6196,-4.515863E-05
472.7196,-4.514827E-05
472.8196,-4.51511E-05
472.9196,-4.514357E-05
473.0197,-4.511908E-05
473.1197,-4.513321E-05
473.2197,-4.513321E-05
473.3197,-4.509271E-05
473.4197,-4.511343E-05
473.5197,-4.512473E-05
473.6197,-4.510119E-05
473.7197,-4.508706E-05
473.8197,-4.508895E-05
473.9197,-4.505787E-05
474.0197,-4.508989E-05
474.1197,-4.510025E-05
474.2197,-4.505693E-05
474.3197,-4.505881E-05
474.4197,-4.505033E-05
474.5197,-4.507011E-05
474.6198,-4.507858E-05
474.7198,-4.505316E-05
474.8198,-4.501832E-05
474.9198,-4.504939E-05
475.0198,-4.504468E-05
475.1198,-4.502208E-05
475.2198,-4.503056E-05
475.3198,-4.502679E-05
475.4198,-4.498912E-05
475.5198,-4.500795E-05
475.6198,-4.501172E-05
475.7198,-4.498912E-05
475.8198,-4.501078E-05
475.9198,-4.503244E-05
476.0198,-4.499572E-05
476.1198,-4.49976E-05
476.2198,-4.498065E-05
476.3199,-4.495428E-05
476.4199,-4.495899E-05
476.5199,-4.495145E-05
476.6199,-4.495334E-05
476.7199,-4.496369E-05
476.8199,-4.497594E-05
476.9199,-4.492603E-05
477.0199,-4.493074E-05
477.1199,-4.494957E-05
477.2199,-4.491378E-05
477.3199,-4.493356E-05
477.4199,-4.492696E-05
477.5199,-4.491661E-05
477.6199,-4.491472E-05
477.7199,-4.494015E-05
477.8199,-4.489589E-05
477.92,-4.489872E-05
478.02,-4.489495E-05
478.12,-4.486764E-05
478.22,-4.488553E-05
478.32,-4.491284E-05
478.42,-4.485634E-05
478.52,-4.482243E-05
478.62,-4.487423E-05
478.72,-4.485445E-05
478.82,-4.487706E-05
478.92,-4.485257E-05
479.02,-4.483468E-05
479.12,-4.480643E-05
479.22,-4.483562E-05
479.32,-4.480831E-05
479.42,-4.480643E-05
479.5201,-4.479795E-05
479.6201,-4.481867E-05
479.7201,-4.479983E-05
479.8201,-4.481961E-05
479.9201,-4.480266E-05
480.0201,-4.480549E-05
480.1201,-4.480737E-05
480.2201,-4.479607E-05
480.3201,-4.477441E-05
480.4201,-4.476876E-05
480.5201,-4.474804E-05
480.6201,-4.473768E-05
480.7201,-4.478288E-05
480.8201,-4.478476E-05
480.9201,-4.47245E-05
481.0201,-4.47292E-05
481.1201,-4.474992E-05
481.2202,-4.470943E-05
481.3202,-4.472355E-05
481.4202,-4.471319E-05
481.5202,-4.468306E-05
481.6202,-4.469813E-05
481.7202,-4.470943E-05
481.8202,-4.46727E-05
481.9202,-4.466988E-05
482.0202,-4.469154E-05
482.1202,-4.466799E-05
482.2202,-4.468494E-05
482.3202,-4.467553E-05
482.4202,-4.463127E-05
482.5202,-4.46388E-05
482.6202,-4.464633E-05
482.7202,-4.463503E-05
482.8203,-4.463032E-05
482.9203,-4.463127E-05
483.0203,-4.458889E-05
483.1203,-4.463597E-05
483.2203,-4.462373E-05
483.3203,-4.460113E-05
483.4203,-4.460019E-05
483.5203,-4.45757E-05
483.6203,-4.459548E-05
483.7203,-4.459265E-05
483.8203,-4.457664E-05
483.9203,-4.456157E-05
484.0203,-4.458606E-05
484.1203,-4.458795E-05
484.2203,-4.45757E-05
484.3203,-4.457664E-05
484.4203,-4.457193E-05
484.5204,-4.455781E-05
484.6204,-4.45757E-05
484.7204,-4.454933E-05
484.8204,-4.453615E-05
484.9204,-4.456629E-05
485.0204,-4.455687E-05
485.1204,-4.450695E-05
485.2204,-4.451543E-05
485.3204,-4.450884E-05
485.4204,-4.450884E-05
485.5204,-4.45192E-05
485.6204,-4.449566E-05
485.7204,-4.445516E-05
485.8204,-4.447964E-05
485.9204,-4.45079E-05
486.0204,-4.445422E-05
486.1205,-4.445893E-05
486.2205,-4.446929E-05
486.3205,-4.445328E-05
486.4205,-4.446269E-05
486.5205,-4.445045E-05
486.6205,-4.442031E-05
486.7205,-4.447023E-05
486.8205,-4.447494E-05
486.9205,-4.443821E-05
487.0205,-4.444951E-05
487.1205,-4.443256E-05
487.2205,-4.441278E-05
487.3205,-4.443632E-05
487.4205,-4.442785E-05
487.5205,-4.440807E-05
487.6205,-4.441373E-05
487.7206,-4.441561E-05
487.8206,-4.439772E-05
487.9206,-4.442785E-05
488.0206,-4.442503E-05
488.1206,-4.440243E-05
488.2206,-4.440901E-05
488.3206,-4.438924E-05
488.4206,-4.436946E-05
488.5206,-4.4377E-05
488.6206,-4.437888E-05
488.7206,-4.432332E-05
488.8206,-4.434686E-05
488.9206,-4.436005E-05
489.0206,-4.434592E-05
489.1206,-4.434968E-05
489.2206,-4.433368E-05
489.3206,-4.434121E-05
489.4207,-4.431673E-05
489.5207,-4.434215E-05
489.6207,-4.431955E-05
489.7207,-4.43026E-05
489.8207,-4.429977E-05
489.9207,-4.426587E-05
490.0207,-4.425175E-05
490.1207,-4.431861E-05
490.2207,-4.433744E-05
490.3207,-4.426776E-05
490.4207,-4.429789E-05
490.5207,-4.427341E-05
490.6207,-4.423008E-05
490.7207,-4.428188E-05
490.8207,-4.426211E-05
490.9207,-4.420654E-05
491.0208,-4.425175E-05
491.1208,-4.426211E-05
491.2208,-4.421502E-05
491.3208,-4.424139E-05
491.4208,-4.420937E-05
491.5208,-4.420089E-05
491.6208,-4.421031E-05
491.7208,-4.417923E-05
491.8208,-4.419147E-05
491.9208,-4.421973E-05
492.0208,-4.419242E-05
492.1208,-4.418959E-05
492.2208,-4.42056E-05
492.3208,-4.417829E-05
492.4208,-4.41491E-05
492.5208,-4.415286E-05
492.6208,-4.415475E-05
492.7209,-4.413874E-05
492.8209,-4.41604E-05
492.9209,-4.417923E-05
493.0209,-4.41378E-05
493.1209,-4.415004E-05
493.2209,-4.41378E-05
493.3209,-4.409165E-05
493.4209,-4.413121E-05
493.5209,-4.415663E-05
493.6209,-4.410296E-05
493.7209,-4.411425E-05
493.8209,-4.412273E-05
493.9209,-4.409071E-05
494.0209,-4.410012E-05
494.1209,-4.409448E-05
494.2209,-4.409542E-05
494.321,-4.407753E-05
494.421,-4.409542E-05
494.521,-4.408977E-05
494.621,-4.407376E-05
494.721,-4.413591E-05
494.821,-4.409259E-05
494.921,-4.404833E-05
495.021,-4.409636E-05
495.121,-4.409353E-05
495.221,-4.404927E-05
495.321,-4.403892E-05
495.421,-4.406152E-05
495.521,-4.402949E-05
495.621,-4.406152E-05
495.721,-4.402479E-05
495.821,-4.400407E-05
495.9211,-4.402667E-05
496.0211,-4.404833E-05
496.1211,-4.400313E-05
496.2211,-4.401349E-05
496.3211,-4.399842E-05
496.4211,-4.399842E-05
496.5211,-4.404174E-05
496.6211,-4.400407E-05
496.7211,-4.396546E-05
496.8211,-4.398147E-05
496.9211,-4.399748E-05
497.0211,-4.396923E-05
497.1211,-4.398053E-05
497.2211,-4.397958E-05
497.3211,-4.401726E-05
497.4211,-4.402667E-05
497.5211,-4.399371E-05
497.6212,-4.39617E-05
497.7212,-4.398806E-05
497.8212,-4.398335E-05
497.9212,-4.394003E-05
498.0212,-4.39551E-05
498.1212,-4.39325E-05
498.2212,-4.392308E-05
498.3212,-4.393344E-05
498.4212,-4.394945E-05
498.5212,-4.388071E-05
498.6212,-4.392967E-05
498.7212,-4.393815E-05
498.8212,-4.390425E-05
498.9212,-4.389483E-05
499.0212,-4.390613E-05
499.1212,-4.387788E-05
499.2213,-4.391649E-05
499.3213,-4.388918E-05
499.4213,-4.385339E-05
499.5213,-4.389766E-05
499.6213,-4.389295E-05
499.7213,-4.382797E-05
499.8213,-4.384586E-05
499.9213,-4.390048E-05
500.0213,-4.393062E-05
500.1213,-4.38694E-05
500.2213,-4.388541E-05
500.3213,-4.387129E-05
500.4213,-4.384303E-05
500.5213,-4.388635E-05
500.6213,-4.384492E-05
500.7213,-4.38129E-05
500.8214,-4.385999E-05
500.9214,-4.384586E-05
501.0214,-4.382985E-05
501.1214,-4.382514E-05
501.2214,-4.381761E-05
501.3214,-4.382232E-05
501.4214,-4.382703E-05
501.5214,-4.381008E-05
501.6214,-4.379877E-05
501.7214,-4.380442E-05
501.8214,-4.377429E-05
501.9214,-4.378182E-05
502.0214,-4.377335E-05
502.1214,-4.377146E-05
502.2214,-4.377052E-05
502.3214,-4.38016E-05
502.4214,-4.376864E-05
502.5215,-4.375074E-05
502.6215,-4.376864E-05
502.7215,-4.375169E-05
502.8215,-4.375922E-05
502.9215,-4.375922E-05
503.0215,-4.37159E-05
503.1215,-4.373285E-05
503.2215,-4.378182E-05
503.3215,-4.380348E-05
503.4215,-4.374039E-05
503.5215,-4.374604E-05
503.6215,-4.376299E-05
503.7215,-4.370366E-05
503.8215,-4.376676E-05
503.9215,-4.37272E-05
504.0215,-4.370742E-05
504.1216,-4.369989E-05
504.2216,-4.369424E-05
504.3216,-4.36867E-05
504.4216,-4.370178E-05
504.5216,-4.368106E-05
504.6216,-4.366882E-05
504.7216,-4.365751E-05
504.8216,-4.367352E-05
504.9216,-4.366976E-05
505.0216,-4.367164E-05
505.1216,-4.362832E-05
505.2216,-4.363303E-05
505.3216,-4.370366E-05
505.4216,-4.371873E-05
505.5216,-4.36641E-05
505.6216,-4.364904E-05
505.7216,-4.366034E-05
505.8217,-4.366128E-05
505.9217,-4.367164E-05
506.0217,-4.363397E-05
506.1217,-4.362456E-05
506.2217,-4.361513E-05
506.3217,-4.365845E-05
506.4217,-4.362173E-05
506.5217,-4.36189E-05
506.6217,-4.361325E-05
506.7217,-4.358029E-05
506.8217,-4.359442E-05
506.9217,-4.358877E-05
507.0217,-4.356522E-05
507.1217,-4.358029E-05
507.2217,-4.358312E-05
507.3217,-4.355769E-05
507.4218,-4.358029E-05
507.5218,-4.358312E-05
507.6218,-4.356993E-05
507.7218,-4.35737E-05
507.8218,-4.356522E-05
507.9218,-4.35219E-05
508.0218,-4.355863E-05
508.1218,-4.356522E-05
508.2218,-4.353697E-05
508.3218,-4.354262E-05
508.4218,-4.356616E-05
508.5218,-4.356052E-05
508.6218,-4.356993E-05
508.7218,-4.352002E-05
508.8218,-4.354545E-05
508.9218,-4.355393E-05
509.0219,-4.350684E-05
509.1219,-4.349836E-05
509.2219,-4.351343E-05
509.3219,-4.35219E-05
509.4219,-4.350684E-05
509.5219,-4.350213E-05
509.6219,-4.351437E-05
509.7219,-4.34654E-05
509.8219,-4.348801E-05
509.9219,-4.350119E-05
510.0219,-4.348801E-05
510.1219,-4.347764E-05
510.2219,-4.347764E-05
510.3219,-4.346351E-05
510.4219,-4.347294E-05
510.5219,-4.347764E-05
510.6219,-4.343338E-05
510.722,-4.346258E-05
510.822,-4.347105E-05
510.922,-4.342867E-05
511.022,-4.347764E-05
511.122,-4.346728E-05
511.222,-4.34202E-05
511.322,-4.341267E-05
511.422,-4.344657E-05
511.522,-4.343809E-05
511.622,-4.343244E-05
511.722,-4.343338E-05
511.822,-4.338253E-05
511.922,-4.341737E-05
512.022,-4.343715E-05
512.122,-4.339854E-05
512.222,-4.337405E-05
512.322,-4.34202E-05
512.4219,-4.341455E-05
512.5219,-4.340795E-05
512.6219,-4.339006E-05
512.7219,-4.339571E-05
512.8218,-4.340701E-05
512.9218,-4.338065E-05
513.0218,-4.338159E-05
513.1218,-4.338347E-05
513.2217,-4.339477E-05
513.3217,-4.3375E-05
513.4217,-4.334298E-05
513.5217,-4.336181E-05
513.6216,-4.335616E-05
513.7216,-4.334957E-05
513.8216,-4.335616E-05
513.9216,-4.332885E-05
514.0215,-4.334957E-05
514.1215,-4.336275E-05
514.2215,-4.333544E-05
514.3215,-4.331378E-05
514.4214,-4.334674E-05
514.5214,-4.331284E-05
514.6214,-4.327046E-05
514.7214,-4.337688E-05
514.8214,-4.339194E-05
514.9213,-4.332037E-05
515.0213,-4.333168E-05
515.1213,-4.333544E-05
515.2213,-4.329024E-05
515.3212,-4.334109E-05
515.4212,-4.33119E-05
515.5212,-4.327235E-05
515.6212,-4.326952E-05
515.7211,-4.326764E-05
515.8211,-4.327705E-05
515.9211,-4.332414E-05
516.0211,-4.329965E-05
516.121,-4.321396E-05
516.221,-4.325069E-05
516.321,-4.326481E-05
516.421,-4.323374E-05
516.5209,-4.326764E-05
516.6209,-4.323091E-05
516.7209,-4.323468E-05
516.8209,-4.326575E-05
516.9208,-4.32601E-05
517.0208,-4.321584E-05
517.1208,-4.322432E-05
517.2208,-4.325163E-05
517.3207,-4.320925E-05
517.4207,-4.321207E-05
517.5207,-4.322338E-05
517.6207,-4.323279E-05
517.7206,-4.325069E-05
517.8206,-4.320548E-05
517.9206,-4.318006E-05
518.0206,-4.321867E-05
518.1205,-4.321396E-05
518.2205,-4.317911E-05
518.3205,-4.322243E-05
518.4205,-4.319701E-05
518.5204,-4.315086E-05
518.6204,-4.319889E-05
518.7204,-4.320831E-05
518.8204,-4.313673E-05
518.9203,-4.315934E-05
519.0203,-4.316405E-05
519.1203,-4.312732E-05
519.2203,-4.318006E-05
519.3203,-4.315934E-05
519.4202,-4.312826E-05
519.5202,-4.314238E-05
519.6202,-4.314521E-05
519.7202,-4.312826E-05
519.8201,-4.313956E-05
519.9201,-4.315463E-05
520.0201,-4.310943E-05
520.1201,-4.313391E-05
520.22,-4.31245E-05
520.32,-4.311885E-05
520.42,-4.312261E-05
520.52,-4.31405E-05
520.6199,-4.309059E-05
520.7199,-4.311885E-05
520.8199,-4.310472E-05
520.9199,-4.311413E-05
521.0198,-4.316122E-05
521.1198,-4.312261E-05
521.2198,-4.307929E-05
521.3198,-4.312544E-05
521.4197,-4.310754E-05
521.5197,-4.308588E-05
521.6197,-4.309247E-05
521.7197,-4.308117E-05
521.8196,-4.303691E-05
521.9196,-4.308965E-05
522.0196,-4.30953E-05
522.1196,-4.308494E-05
522.2195,-4.308871E-05
522.3195,-4.30614E-05
522.4195,-4.303126E-05
522.5195,-4.306987E-05
522.6194,-4.309342E-05
522.7194,-4.305104E-05
522.8194,-4.306328E-05
522.9194,-4.306893E-05
523.0193,-4.304162E-05
523.1193,-4.303409E-05
523.2193,-4.305763E-05
523.3193,-4.305951E-05
523.4193,-4.305386E-05
523.5192,-4.303597E-05
523.6192,-4.303597E-05
523.7192,-4.305293E-05
523.8192,-4.30435E-05
523.9191,-4.302467E-05
524.0191,-4.30275E-05
524.1191,-4.300866E-05
524.2191,-4.301149E-05
524.319,-4.30322E-05
524.419,-4.301149E-05
524.519,-4.300395E-05
524.619,-4.30435E-05
524.7189,-4.30435E-05
524.8189,-4.300489E-05
524.9189,-4.299077E-05
525.0189,-4.299548E-05
525.1188,-4.298417E-05
525.2188,-4.301902E-05
525.3188,-4.298982E-05
525.4188,-4.29531E-05
525.5187,-4.300018E-05
525.6187,-4.300018E-05
525.7187,-4.295875E-05
525.8187,-4.300301E-05
525.9186,-4.298512E-05
526.0186,-4.295216E-05
526.1186,-4.300207E-05
526.2186,-4.299265E-05
526.3185,-4.295498E-05
526.4185,-4.297853E-05
526.5185,-4.296817E-05
526.6185,-4.292391E-05
526.7184,-4.296534E-05
526.8184,-4.297099E-05
526.9184,-4.294368E-05
527.0184,-4.295498E-05
527.1183,-4.299077E-05
527.2183,-4.294086E-05
527.3183,-4.292767E-05
527.4183,-4.293709E-05
527.5182,-4.292485E-05
527.6182,-4.294651E-05
527.7182,-4.294745E-05
527.8182,-4.292673E-05
527.9182,-4.292297E-05
528.0181,-4.293144E-05
528.1181,-4.289188E-05
528.2181,-4.291166E-05
528.3181,-4.293426E-05
528.418,-4.289283E-05
528.518,-4.292767E-05
528.618,-4.290884E-05
528.718,-4.29126E-05
528.8179,-4.288341E-05
528.9179,-4.288059E-05
529.0179,-4.288247E-05
529.1179,-4.291543E-05
529.2178,-4.290225E-05
529.3178,-4.290319E-05
529.4178,-4.29305E-05
529.5178,-4.29192E-05
529.6177,-4.28448E-05
529.7177,-4.288059E-05
529.8177,-4.29079E-05
529.9177,-4.287776E-05
530.0176,-4.289E-05
530.1176,-4.288718E-05
530.2176,-4.287682E-05
530.3176,-4.289754E-05
530.4175,-4.289942E-05
530.5175,-4.285422E-05
530.6175,-4.284668E-05
530.7175,-4.285233E-05
530.8174,-4.282502E-05
530.9174,-4.28514E-05
531.0174,-4.286363E-05
531.1174,-4.282314E-05
531.2173,-4.281937E-05
531.3173,-4.285422E-05
531.4173,-4.283821E-05
531.5173,-4.281372E-05
531.6172,-4.282409E-05
531.7172,-4.282502E-05
531.8172,-4.284103E-05
531.9172,-4.281843E-05
532.0172,-4.281749E-05
532.1171,-4.280996E-05
532.2171,-4.281749E-05
532.3171,-4.281655E-05
532.4171,-4.281184E-05
532.517,-4.279489E-05
532.617,-4.279206E-05
532.717,-4.27883E-05
532.817,-4.281278E-05
532.9169,-4.277605E-05
533.0169,-4.277323E-05
533.1169,-4.279677E-05
533.2169,-4.279489E-05
533.3168,-4.279866E-05
533.4168,-4.282409E-05
533.5168,-4.276475E-05
533.6168,-4.280619E-05
533.7167,-4.277981E-05
533.8167,-4.273367E-05
533.9167,-4.278924E-05
534.0167,-4.282219E-05
534.1166,-4.280242E-05
534.2166,-4.274121E-05
534.3166,-4.277793E-05
534.4166,-4.278265E-05
534.5165,-4.275062E-05
534.6165,-4.275534E-05
534.7165,-4.27591E-05
534.8165,-4.276005E-05
534.9164,-4.275062E-05
535.0164,-4.275628E-05
535.1164,-4.275157E-05
535.2164,-4.27657E-05
535.3163,-4.274874E-05
535.4163,-4.272049E-05
535.5163,-4.274686E-05
535.6163,-4.274027E-05
535.7162,-4.273085E-05
535.8162,-4.273838E-05
535.9162,-4.271578E-05
536.0162,-4.272991E-05
536.1161,-4.272614E-05
536.2161,-4.274968E-05
536.3161,-4.273367E-05
536.4161,-4.270542E-05
536.5161,-4.271013E-05
536.616,-4.27139E-05
536.716,-4.275722E-05
536.816,-4.271484E-05
536.916,-4.270166E-05
537.0159,-4.272708E-05
537.1159,-4.272897E-05
537.2159,-4.271202E-05
537.3159,-4.27139E-05
537.4158,-4.271767E-05
537.5158,-4.269601E-05
537.6158,-4.269789E-05
537.7158,-4.271202E-05
537.8157,-4.268282E-05
537.9157,-4.270825E-05
538.0157,-4.269977E-05
538.1157,-4.267152E-05
538.2156,-4.267811E-05
538.3156,-4.269318E-05
538.4156,-4.268847E-05
538.5156,-4.269506E-05
538.6155,-4.268753E-05
538.7155,-4.265928E-05
538.8155,-4.267905E-05
538.9155,-4.271013E-05
539.0154,-4.265928E-05
539.1154,-4.268E-05
539.2154,-4.264986E-05
539.3154,-4.265457E-05
539.4153,-4.268282E-05
539.5153,-4.265551E-05
539.6153,-4.264704E-05
539.7153,-4.26621E-05
539.8152,-4.268565E-05
539.9152,-4.266022E-05
540.0152,-4.266775E-05
540.1152,-4.263479E-05
540.2151,-4.264798E-05
540.3151,-4.267246E-05
540.4151,-4.263479E-05
540.5151,-4.263479E-05
540.6151,-4.267905E-05
540.715,-4.265174E-05
540.815,-4.26122E-05
540.915,-4.263197E-05
541.015,-4.265269E-05
541.1149,-4.264421E-05
541.2149,-4.266116E-05
541.3149,-4.264327E-05
541.4149,-4.262726E-05
541.5148,-4.264704E-05
541.6148,-4.267529E-05
541.7148,-4.263573E-05
541.8148,-4.264609E-05
541.9147,-4.264892E-05
542.0147,-4.264609E-05
542.1147,-4.26687E-05
542.2147,-4.266304E-05
542.3146,-4.259147E-05
542.4146,-4.261502E-05
542.5146,-4.263856E-05
542.6146,-4.263856E-05
542.7145,-4.263479E-05
542.8145,-4.265174E-05
542.9145,-4.261313E-05
543.0145,-4.264986E-05
543.1144,-4.265551E-05
543.2144,-4.263856E-05
543.3144,-4.263856E-05
543.4144,-4.260278E-05
543.5143,-4.260089E-05
543.6143,-4.261125E-05
543.7143,-4.262349E-05
543.8143,-4.261973E-05
543.9142,-4.262443E-05
544.0142,-4.260183E-05
544.1142,-4.259995E-05
544.2142,-4.261878E-05
544.3141,-4.260937E-05
544.4141,-4.256416E-05
544.5141,-4.259242E-05
544.6141,-4.257735E-05
544.7141,-4.256605E-05
544.814,-4.259901E-05
544.914,-4.258582E-05
545.014,-4.254533E-05
545.114,-4.258959E-05
545.2139,-4.257452E-05
545.3139,-4.252838E-05
545.4139,-4.258771E-05
545.5139,-4.2583E-05
545.6138,-4.253121E-05
545.7138,-4.254627E-05
545.8138,-4.256228E-05
545.9138,-4.255381E-05
546.0137,-4.256322E-05
546.1137,-4.252649E-05
546.2137,-4.253968E-05
546.3137,-4.254909E-05
546.4136,-4.25764E-05
546.5136,-4.252743E-05
546.6136,-4.255004E-05
546.7136,-4.256605E-05
546.8135,-4.250201E-05
546.9135,-4.253026E-05
547.0135,-4.254533E-05
547.1135,-4.251048E-05
547.2134,-4.255098E-05
547.3134,-4.255098E-05
547.4134,-4.254062E-05
547.5134,-4.253309E-05
547.6133,-4.260937E-05
547.7133,-4.255569E-05
547.8133,-4.252461E-05
547.9133,-4.255474E-05
548.0132,-4.252932E-05
548.1132,-4.252178E-05
548.2132,-4.255474E-05
548.3132,-4.249071E-05
548.4131,-4.247282E-05
548.5131,-4.2583E-05
548.6131,-4.258959E-05
548.7131,-4.251708E-05
548.813,-4.254909E-05
548.913,-4.256605E-05
549.013,-4.250107E-05
549.113,-4.253968E-05
549.213,-4.254062E-05
549.3129,-4.247752E-05
549.4129,-4.24973E-05
549.5129,-4.252367E-05
549.6129,-4.25086E-05
549.7128,-4.24521E-05
549.8128,-4.249448E-05
549.9128,-4.248412E-05
550.0128,-4.250578E-05
550.1127,-4.249542E-05
550.2127,-4.247376E-05
550.3127,-4.246999E-05
550.4127,-4.249918E-05
550.5126,-4.248223E-05
550.6126,-4.250954E-05
550.7126,-4.248223E-05
550.8126,-4.246528E-05
550.9125,-4.24973E-05
551.0125,-4.248789E-05
551.1125,-4.248506E-05
551.2125,-4.247941E-05
551.3124,-4.245115E-05
551.4124,-4.247093E-05
551.5124,-4.247376E-05
551.6124,-4.249071E-05
551.7123,-4.24521E-05
551.8123,-4.246811E-05
551.9123,-4.245304E-05
552.0123,-4.243891E-05
552.1122,-4.248506E-05
552.2122,-4.247187E-05
552.3122,-4.245115E-05
552.4122,-4.246246E-05
552.5121,-4.243515E-05
552.6121,-4.245021E-05
552.7121,-4.248129E-05
552.8121,-4.247941E-05
552.912,-4.242385E-05
553.012,-4.2486E-05
553.112,-4.245963E-05
553.212,-4.244833E-05
553.312,-4.245492E-05
553.4119,-4.245021E-05
553.5119,-4.242196E-05
553.6119,-4.249918E-05
553.7119,-4.244268E-05
553.8118,-4.241349E-05
553.9118,-4.244268E-05
554.0118,-4.245304E-05
554.1118,-4.244174E-05
554.2117,-4.24342E-05
554.3117,-4.242667E-05
554.4117,-4.241254E-05
554.5117,-4.24568E-05
554.6116,-4.244833E-05
554.7116,-4.241254E-05
554.8116,-4.242573E-05
554.9116,-4.243891E-05
555.0115,-4.241914E-05
555.1115,-4.243326E-05
555.2115,-4.241254E-05
555.3115,-4.237864E-05
555.4114,-4.239748E-05
555.5114,-4.243985E-05
555.6114,-4.239654E-05
555.7114,-4.239842E-05
555.8113,-4.239654E-05
555.9113,-4.240407E-05
556.0113,-4.242196E-05
556.1113,-4.241254E-05
556.2112,-4.238712E-05
556.3112,-4.238335E-05
556.4112,-4.240124E-05
556.5112,-4.24003E-05
556.6111,-4.24229E-05
556.7111,-4.238617E-05
556.8111,-4.238147E-05
556.9111,-4.241632E-05
557.011,-4.242761E-05
557.111,-4.240972E-05
557.211,-4.239654E-05
557.311,-4.238712E-05
557.4109,-4.237958E-05
557.5109,-4.242102E-05
557.6109,-4.24003E-05
557.7109,-4.238523E-05
557.8109,-4.237864E-05
557.9108,-4.237864E-05
558.0108,-4.238429E-05
558.1108,-4.236546E-05
558.2108,-4.236358E-05
558.3107,-4.237488E-05
558.4107,-4.24003E-05
558.5107,-4.238147E-05
558.6107,-4.236075E-05
558.7106,-4.235133E-05
558.8106,-4.236451E-05
558.9106,-4.236828E-05
559.0106,-4.238053E-05
559.1105,-4.234663E-05
559.2105,-4.234285E-05
559.3105,-4.237205E-05
559.4105,-4.238147E-05
559.5104,-4.237299E-05
559.6104,-4.235228E-05
559.7104,-4.233815E-05
559.8104,-4.233815E-05
559.9103,-4.23664E-05
560.0103,-4.23551E-05
560.1103,-4.234757E-05
560.2103,-4.234474E-05
560.3102,-4.234474E-05
560.4102,-4.233909E-05
560.5102,-4.237016E-05
560.6102,-4.241632E-05
560.7101,-4.234663E-05
560.8101,-4.233627E-05
560.9101,-4.234945E-05
561.0101,-4.234097E-05
561.11,-4.236169E-05
561.21,-4.234003E-05
561.31,-4.233156E-05
561.41,-4.23438E-05
561.5099,-4.232873E-05
561.6099,-4.232402E-05
561.7099,-4.232497E-05
561.8099,-4.23325E-05
561.9099,-4.233156E-05
562.0098,-4.23325E-05
562.1098,-4.233062E-05
562.2098,-4.231555E-05
562.3098,-4.232025E-05
562.4097,-4.229765E-05
562.5097,-4.230425E-05
562.6097,-4.235792E-05
562.7097,-4.230801E-05
562.8096,-4.228824E-05
562.9096,-4.233344E-05
563.0096,-4.23212E-05
563.1096,-4.230236E-05
563.2095,-4.229671E-05
563.3095,-4.231649E-05
563.4095,-4.228635E-05
563.5095,-4.229859E-05
563.6094,-4.229954E-05
563.7094,-4.23259E-05
563.8094,-4.229671E-05
563.9094,-4.230896E-05
564.0093,-4.230236E-05
564.1093,-4.229294E-05
564.2093,-4.229671E-05
564.3093,-4.228729E-05
564.4092,-4.230047E-05
564.5092,-4.228635E-05
564.6092,-4.22694E-05
564.7092,-4.230896E-05
564.8091,-4.231555E-05
564.9091,-4.22807E-05
565.0091,-4.227599E-05
565.1091,-4.2292E-05
565.209,-4.226564E-05
565.309,-4.228918E-05
565.409,-4.228353E-05
565.509,-4.224209E-05
565.6089,-4.224021E-05
565.7089,-4.232402E-05
565.8089,-4.234097E-05
565.9089,-4.224397E-05
566.0089,-4.227223E-05
566.1088,-4.227599E-05
566.2088,-4.226187E-05
566.3088,-4.227034E-05
566.4088,-4.226469E-05
566.5087,-4.222702E-05
566.6087,-4.224303E-05
566.7087,-4.225716E-05
566.8087,-4.224963E-05
566.9086,-4.223079E-05
567.0086,-4.223362E-05
567.1086,-4.223833E-05
567.2086,-4.224397E-05
567.3085,-4.22468E-05
567.4085,-4.222326E-05
567.5085,-4.226658E-05
567.6085,-4.223267E-05
567.7084,-4.219595E-05
567.8084,-4.222702E-05
567.9084,-4.221101E-05
568.0084,-4.221855E-05
568.1083,-4.224868E-05
568.2083,-4.220725E-05
568.3083,-4.22016E-05
568.4083,-4.220065E-05
568.5082,-4.22129E-05
568.6082,-4.221666E-05
568.7082,-4.219312E-05
568.8082,-4.221101E-05
568.9081,-4.22016E-05
569.0081,-4.219783E-05
569.1081,-4.220065E-05
569.2081,-4.218465E-05
569.308,-4.221666E-05
569.408,-4.22016E-05
569.508,-4.216958E-05
569.608,-4.216864E-05
569.7079,-4.21724E-05
569.8079,-4.217805E-05
569.9079,-4.217146E-05
570.0079,-4.217335E-05
570.1078,-4.215545E-05
570.2078,-4.219218E-05
570.3078,-4.216958E-05
570.4078,-4.215169E-05
570.5078,-4.22016E-05
570.6077,-4.215828E-05
570.7077,-4.215169E-05
570.8077,-4.2179E-05
570.9077,-4.216582E-05
571.0076,-4.211778E-05
571.1076,-4.214227E-05
571.2076,-4.217523E-05
571.3076,-4.21498E-05
571.4075,-4.214415E-05
571.5075,-4.218088E-05
571.6075,-4.215357E-05
571.7075,-4.216582E-05
571.8074,-4.216958E-05
571.9074,-4.212155E-05
572.0074,-4.214697E-05
572.1074,-4.217711E-05
572.2073,-4.21272E-05
572.3073,-4.210271E-05
572.4073,-4.214321E-05
572.5073,-4.213944E-05
572.6072,-4.210083E-05
572.7072,-4.211966E-05
572.8072,-4.212908E-05
572.9072,-4.214792E-05
573.0071,-4.21724E-05
573.1071,-4.209895E-05
573.2071,-4.209047E-05
573.3071,-4.211684E-05
573.407,-4.211308E-05
573.507,-4.209989E-05
573.607,-4.20933E-05
573.707,-4.207352E-05
573.8069,-4.208106E-05
573.9069,-4.213191E-05
574.0069,-4.215733E-05
574.1069,-4.210554E-05
574.2068,-4.21046E-05
574.3068,-4.209706E-05
574.4068,-4.208859E-05
574.5068,-4.207728E-05
574.6068,-4.208388E-05
574.7067,-4.206693E-05
574.8067,-4.20867E-05
574.9067,-4.20707E-05
575.0067,-4.206599E-05
575.1066,-4.20867E-05
575.2066,-4.204527E-05
575.3066,-4.203114E-05
575.4066,-4.204809E-05
575.5065,-4.206975E-05
575.6065,-4.203209E-05
575.7065,-4.203209E-05
575.8065,-4.204904E-05
575.9064,-4.199818E-05
576.0064,-4.202926E-05
576.1064,-4.204621E-05
576.2064,-4.202078E-05
576.3063,-4.20076E-05
576.4063,-4.20302E-05
576.5063,-4.202267E-05
576.6063,-4.204339E-05
576.7062,-4.203114E-05
576.8062,-4.200477E-05
576.9062,-4.201043E-05
577.0062,-4.20302E-05
577.1061,-4.200383E-05
577.2061,-4.201419E-05
577.3061,-4.201513E-05
577.4061,-4.198594E-05
577.506,-4.197181E-05
577.606,-4.198029E-05
577.706,-4.200007E-05
577.806,-4.199536E-05
577.9059,-4.200101E-05
578.0059,-4.198877E-05
578.1059,-4.198312E-05
578.2059,-4.199912E-05
578.3058,-4.199724E-05
578.4058,-4.198029E-05
578.5058,-4.197746E-05
578.6058,-4.196711E-05
578.7057,-4.194921E-05
578.8057,-4.196522E-05
578.9057,-4.198406E-05
579.0057,-4.200289E-05
579.1057,-4.194074E-05
579.2056,-4.195769E-05
579.3056,-4.193791E-05
579.4056,-4.196993E-05
579.5056,-4.196711E-05
579.6055,-4.192943E-05
579.7055,-4.195769E-05
579.8055,-4.195769E-05
579.9055,-4.196146E-05
580.0054,-4.194921E-05
580.1054,-4.192943E-05
580.2054,-4.193132E-05
580.3054,-4.19737E-05
580.4053,-4.196051E-05
580.5053,-4.194451E-05
580.6053,-4.192378E-05
580.7053,-4.193603E-05
580.8052,-4.19219E-05
580.9052,-4.194545E-05
581.0052,-4.195392E-05
581.1052,-4.190589E-05
581.2051,-4.192473E-05
581.3051,-4.191908E-05
581.4051,-4.191531E-05
581.5051,-4.193226E-05
581.605,-4.193414E-05
581.705,-4.192002E-05
581.805,-4.191908E-05
581.905,-4.19285E-05
582.0049,-4.195015E-05
582.1049,-4.197746E-05
582.2049,-4.196522E-05
582.3049,-4.189836E-05
582.4048,-4.192096E-05
582.5048,-4.194168E-05
582.6048,-4.19219E-05
582.7048,-4.191343E-05
582.8047,-4.192473E-05
582.9047,-4.190683E-05
583.0047,-4.190307E-05
583.1047,-4.194451E-05
583.2047,-4.191437E-05
583.3046,-4.189365E-05
583.4046,-4.190024E-05
583.5046,-4.190589E-05
583.6046,-4.190966E-05
583.7045,-4.188612E-05
583.8045,-4.188894E-05
583.9045,-4.189742E-05
584.0045,-4.190966E-05
584.1044,-4.186351E-05
584.2044,-4.187482E-05
584.3044,-4.190119E-05
584.4044,-4.188706E-05
584.5043,-4.190966E-05
584.6043,-4.188706E-05
584.7043,-4.188329E-05
584.8043,-4.187858E-05
584.9042,-4.189365E-05
585.0042,-4.185692E-05
585.1042,-4.187482E-05
585.2042,-4.18767E-05
585.3041,-4.189271E-05
585.4041,-4.191908E-05
585.5041,-4.187011E-05
585.6041,-4.187105E-05
585.704,-4.188989E-05
585.804,-4.189836E-05
585.904,-4.184656E-05
586.004,-4.187952E-05
586.1039,-4.18767E-05
586.2039,-4.185692E-05
586.3039,-4.188424E-05
586.4039,-4.188517E-05
586.5038,-4.185786E-05
586.6038,-4.183526E-05
586.7038,-4.185504E-05
586.8038,-4.184656E-05
586.9037,-4.183244E-05
587.0037,-4.185692E-05
587.1037,-4.185504E-05
587.2037,-4.184468E-05
587.3036,-4.188894E-05
587.4036,-4.188424E-05
587.5036,-4.187105E-05
587.6036,-4.188517E-05
587.7036,-4.186257E-05
587.8035,-4.18654E-05
587.9035,-4.185881E-05
588.0035,-4.184845E-05
588.1035,-4.18089E-05
588.2034,-4.188235E-05
588.3034,-4.184468E-05
588.4034,-4.181925E-05
588.5034,-4.18362E-05
588.6033,-4.183998E-05
588.7033,-4.181266E-05
588.8033,-4.180701E-05
588.9033,-4.183432E-05
589.0032,-4.183432E-05
589.1032,-4.184374E-05
589.2032,-4.180701E-05
589.3032,-4.178724E-05
589.4031,-4.180607E-05
589.5031,-4.179948E-05
589.6031,-4.180042E-05
589.7031,-4.179006E-05
589.803,-4.178629E-05
589.903,-4.177123E-05
590.003,-4.179759E-05
590.103,-4.178252E-05
590.2029,-4.177782E-05
590.3029,-4.179854E-05
590.4029,-4.175899E-05
590.5029,-4.175804E-05
590.6028,-4.176087E-05
590.7028,-4.176652E-05
590.8028,-4.178064E-05
590.9028,-4.179194E-05
591.0027,-4.17684E-05
591.1027,-4.177311E-05
591.2027,-4.178629E-05
591.3027,-4.176746E-05
591.4026,-4.172696E-05
591.5026,-4.177217E-05
591.6026,-4.178441E-05
591.7026,-4.175427E-05
591.8026,-4.178535E-05
591.9025,-4.174015E-05
592.0025,-4.172602E-05
592.1025,-4.177311E-05
592.2025,-4.177405E-05
592.3024,-4.173638E-05
592.4024,-4.173544E-05
592.5024,-4.175993E-05
592.6024,-4.175239E-05
592.7023,-4.175804E-05
592.8023,-4.174674E-05
592.9023,-4.172131E-05
593.0023,-4.171849E-05
593.1022,-4.175521E-05
593.2022,-4.172414E-05
593.3022,-4.173073E-05
593.4022,-4.171849E-05
593.5021,-4.170813E-05
593.6021,-4.175616E-05
593.7021,-4.173921E-05
593.8021,-4.168553E-05
593.902,-4.171189E-05
594.002,-4.172131E-05
594.102,-4.173073E-05
594.202,-4.173827E-05
594.3019,-4.172602E-05
594.4019,-4.168082E-05
594.5019,-4.171943E-05
594.6019,-4.174203E-05
594.7018,-4.171472E-05
594.8018,-4.17006E-05
594.9018,-4.171567E-05
595.0018,-4.171849E-05
595.1017,-4.173073E-05
595.2017,-4.170248E-05
595.3017,-4.171001E-05
595.4017,-4.171284E-05
595.5016,-4.171284E-05
595.6016,-4.171001E-05
595.7016,-4.171284E-05
595.8016,-4.174297E-05
595.9016,-4.172414E-05
596.0015,-4.171284E-05
596.1015,-4.170248E-05
596.2015,-4.16893E-05
596.3015,-4.170907E-05
596.4014,-4.170248E-05
596.5014,-4.168836E-05
596.6014,-4.167517E-05
596.7014,-4.172037E-05
596.8013,-4.170531E-05
596.9013,-4.169777E-05
597.0013,-4.17006E-05
597.1013,-4.170154E-05
597.2012,-4.168741E-05
597.3012,-4.17232E-05
597.4012,-4.16893E-05
597.5012,-4.166952E-05
597.6011,-4.16893E-05
597.7011,-4.17232E-05
597.8011,-4.166575E-05
597.9011,-4.167611E-05
598.001,-4.169777E-05
598.101,-4.167705E-05
598.201,-4.167235E-05
598.301,-4.16667E-05
598.4009,-4.168176E-05
598.5009,-4.169401E-05
598.6009,-4.168836E-05
598.7009,-4.166105E-05
598.8008,-4.166952E-05
598.9008,-4.167517E-05
599.0008,-4.167705E-05
599.1008,-4.168082E-05
599.2007,-4.166198E-05
599.3007,-4.16441E-05
599.4007,-4.166952E-05
599.5007,-4.168836E-05
599.6006,-4.165822E-05
599.7006,-4.165163E-05
599.8006,-4.167423E-05
599.9006,-4.166952E-05
600.0005,-4.166481E-05
